"Username","ID","ExperimentName","Session","Trial","Date","TimeDif","Condition.Number","Stimuli.File","Order.File","Condition.Description","Condition.Notes","Stimuli.Cue","Stimuli.Answer","Stimuli.Shuffle","Stimuli.Stimuli.Notes","Stimuli.Value","Stimuli.Rand","Procedure.Item","Procedure.Trial.Type","Procedure.Max.Time","Procedure.Min.Time","Procedure.Text","Procedure.Procedure.Notes","Procedure.Shuffle","Response.RT","Response.Response","Response.Accuracy","Response.RTfirst","Response.RTlast","Response.strictAcc","Response.lenientAcc","Response.focus","Response.JOL","Response.Focus"
"20317098SB","rltm9zdlfd","Affordance Norms_MSU_TEX",1,11,"2023-04-12T02:03:16+00:00",43.269490003586,37,"updated stim.csv","Version37.csv","Version 37","List 37","elephant",NA,1108,4.36,900,0.837946143,1109,"BOI","-","-","Please name all of the ways you could use this object. Keep in mind that one object can have many uses. Separate your responses with a comma.",NA,"y",43069,NA,NA,11840,27012,NA,NA,NA,"to ride, circus, rescue, jewelry",1
"20317098SB","rltm9zdlfd","Affordance Norms_MSU_TEX",1,12,"2023-04-12T02:03:40+00:00",24.230871915817,37,"updated stim.csv","Version37.csv","Version 37","List 37","kneecap",NA,1092,5.714285714,1434,0.122056671,1093,"BOI","-","-","Please name all of the ways you could use this object. Keep in mind that one object can have many uses. Separate your responses with a comma.",NA,"y",24035,NA,NA,5836,20731,NA,NA,NA,"squat, stand, balance, walk, run, ",1
"20317098SB","rltm9zdlfd","Affordance Norms_MSU_TEX",1,13,"2023-04-12T02:05:37+00:00",116.5669491291,37,"updated stim.csv","Version37.csv","Version 37","List 37","shirttail",NA,1093,5.333333333,2348,0.56761113,1094,"BOI","-","-","Please name all of the ways you could use this object. Keep in mind that one object can have many uses. Separate your responses with a comma.",NA,"y",116325,NA,NA,108600,114576,NA,NA,NA,"shirt, append, add",0.668
"20317098SB","rltm9zdlfd","Affordance Norms_MSU_TEX",1,14,"2023-04-12T02:06:22+00:00",45.641814947128,37,"updated stim.csv","Version37.csv","Version 37","List 37","rosary",NA,1082,5.791666667,2193,0.270107865,1083,"BOI","-","-","Please name all of the ways you could use this object. Keep in mind that one object can have many uses. Separate your responses with a comma.",NA,"y",45260,NA,NA,2508,20607,NA,NA,NA,"pray, take it to church, ",1
"20317098SB","rltm9zdlfd","Affordance Norms_MSU_TEX",1,15,"2023-04-12T02:06:40+00:00",18.151136875153,37,"updated stim.csv","Version37.csv","Version 37","List 37","stereo",NA,1102,5.68,2531,0.446672274,1103,"BOI","-","-","Please name all of the ways you could use this object. Keep in mind that one object can have many uses. Separate your responses with a comma.",NA,"y",17822,NA,NA,3259,17180,NA,NA,NA,"listen to music, set stuff on, decoration",1
"20317098SB","rltm9zdlfd","Affordance Norms_MSU_TEX",1,16,"2023-04-12T02:07:17+00:00",36.111991167068,37,"updated stim.csv","Version37.csv","Version 37","List 37","jeweler",NA,1100,4.695652174,1385,0.23942267,1101,"BOI","-","-","Please name all of the ways you could use this object. Keep in mind that one object can have many uses. Separate your responses with a comma.",NA,"y",35716,NA,NA,2310,25687,NA,NA,NA,"make a necklace, rings, bracelets, earrings",1
"20317098SB","rltm9zdlfd","Affordance Norms_MSU_TEX",1,17,"2023-04-12T02:08:17+00:00",60.363141775131,37,"updated stim.csv","Version37.csv","Version 37","List 37","toffee",NA,1091,5.608695652,2716,0.995417769,1092,"BOI","-","-","Please name all of the ways you could use this object. Keep in mind that one object can have many uses. Separate your responses with a comma.",NA,"y",60021,NA,NA,34576,59694,NA,NA,NA,"coffee, toffee syrup, toffee nuts",1
"20317098SB","rltm9zdlfd","Affordance Norms_MSU_TEX",1,18,"2023-04-12T02:09:19+00:00",61.744603157043,37,"updated stim.csv","Version37.csv","Version 37","List 37","greenery",NA,1103,4.375,1170,0.663615272,1104,"BOI","-","-","Please name all of the ways you could use this object. Keep in mind that one object can have many uses. Separate your responses with a comma.",NA,"y",61308,NA,NA,44548,60618,NA,NA,NA,"plants, vegetation, leaves ",0.766
"20317098SB","rltm9zdlfd","Affordance Norms_MSU_TEX",1,19,"2023-04-12T02:10:07+00:00",48.562530994415,37,"updated stim.csv","Version37.csv","Version 37","List 37","mustard",NA,1104,5.8,1727,0.310063549,1105,"BOI","-","-","Please name all of the ways you could use this object. Keep in mind that one object can have many uses. Separate your responses with a comma.",NA,"y",48373,NA,NA,1933,47287,NA,NA,NA,"on a burger, on a corn dog, in tuna salad",1
"20317098SB","rltm9zdlfd","Affordance Norms_MSU_TEX",1,20,"2023-04-12T02:10:19+00:00",11.396691083908,37,"updated stim.csv","Version37.csv","Version 37","List 37","scorecard",NA,1090,4.875,2279,0.005628161,1091,"BOI","-","-","Please name all of the ways you could use this object. Keep in mind that one object can have many uses. Separate your responses with a comma.",NA,"y",11196,NA,NA,2217,8156,NA,NA,NA,"bingo, golf, bowling, ",1
"20317098SB","rltm9zdlfd","Affordance Norms_MSU_TEX",1,21,"2023-04-12T02:14:03+00:00",224.18809485435,37,"updated stim.csv","Version37.csv","Version 37","List 37","dressing",NA,1098,5.08,845,0.024846269,1099,"BOI","-","-","Please name all of the ways you could use this object. Keep in mind that one object can have many uses. Separate your responses with a comma.",NA,"y",223749,NA,NA,2262,90761,NA,NA,NA,"salad, dressing room, on a wound, on cupcake",1
"20317098SB","rltm9zdlfd","Affordance Norms_MSU_TEX",1,22,"2023-04-12T02:15:58+00:00",115.2715010643,37,"updated stim.csv","Version37.csv","Version 37","List 37","auto",NA,1096,4.391304348,100,0.633727133,1097,"BOI","-","-","Please name all of the ways you could use this object. Keep in mind that one object can have many uses. Separate your responses with a comma.",NA,"y",114857,NA,NA,77790,111278,NA,NA,NA,"automotive, auto pilot, auto care, auto insurance ",1
"20317098SB","rltm9zdlfd","Affordance Norms_MSU_TEX",1,23,"2023-04-12T02:16:46+00:00",47.578065872192,37,"updated stim.csv","Version37.csv","Version 37","List 37","twig",NA,1109,5.28,2811,0.495724488,1110,"BOI","-","-","Please name all of the ways you could use this object. Keep in mind that one object can have many uses. Separate your responses with a comma.",NA,"y",47333,NA,NA,2905,47035,NA,NA,NA,"start a fire, make a fishing pole, use it as a snake poker",1
"20317098SB","rltm9zdlfd","Affordance Norms_MSU_TEX",1,24,"2023-04-12T02:16:57+00:00",11.733289003372,37,"updated stim.csv","Version37.csv","Version 37","List 37","jet",NA,1084,5.041666667,1383,0.574627572,1085,"BOI","-","-","Please name all of the ways you could use this object. Keep in mind that one object can have many uses. Separate your responses with a comma.",NA,"y",11471,NA,NA,2013,8250,NA,NA,NA,"fly, go fast",1
"20317098SB","rltm9zdlfd","Affordance Norms_MSU_TEX",1,25,"2023-04-12T02:17:25+00:00",27.957739114761,37,"updated stim.csv","Version37.csv","Version 37","List 37","clover",NA,1089,4.695652174,574,0.467038467,1090,"BOI","-","-","Please name all of the ways you could use this object. Keep in mind that one object can have many uses. Separate your responses with a comma.",NA,"y",27724,NA,NA,2175,26729,NA,NA,NA,"good luck, saint patricks day",1
"20317098SB","rltm9zdlfd","Affordance Norms_MSU_TEX",1,26,"2023-04-12T02:18:43+00:00",78.138347864151,37,"updated stim.csv","Version37.csv","Version 37","List 37","lotion",NA,1097,6.28,1548,0.077716612,1098,"BOI","-","-","Please name all of the ways you could use this object. Keep in mind that one object can have many uses. Separate your responses with a comma.",NA,"y",77821,NA,NA,13868,46076,NA,NA,NA,"moisturize, conditioner, ",1
"20317098SB","rltm9zdlfd","Affordance Norms_MSU_TEX",1,27,"2023-04-12T02:18:59+00:00",15.689791202545,37,"updated stim.csv","Version37.csv","Version 37","List 37","lid",NA,1107,5.428571429,1503,0.999014504,1108,"BOI","-","-","Please name all of the ways you could use this object. Keep in mind that one object can have many uses. Separate your responses with a comma.",NA,"y",15431,NA,NA,3406,14919,NA,NA,NA,"on a cup, to keep food fresh",1
"20317098SB","rltm9zdlfd","Affordance Norms_MSU_TEX",1,28,"2023-04-12T02:19:37+00:00",37.542611837387,37,"updated stim.csv","Version37.csv","Version 37","List 37","forklift",NA,1094,5.541666667,1048,0.746760437,1095,"BOI","-","-","Please name all of the ways you could use this object. Keep in mind that one object can have many uses. Separate your responses with a comma.",NA,"y",37345,NA,NA,2180,37033,NA,NA,NA,"to reach high places, work on roof, work on light post,",1
"20317098SB","rltm9zdlfd","Affordance Norms_MSU_TEX",1,29,"2023-04-12T02:19:47+00:00",9.8202180862427,37,"updated stim.csv","Version37.csv","Version 37","List 37","chair",NA,1110,6.88,485,0.668282677,1111,"BOI","-","-","Please name all of the ways you could use this object. Keep in mind that one object can have many uses. Separate your responses with a comma.",NA,"y",9611,NA,NA,3413,8816,NA,NA,NA,"to sit, to reach top shelf",1
"20317098SB","rltm9zdlfd","Affordance Norms_MSU_TEX",1,30,"2023-04-12T02:20:02+00:00",15.729022979736,37,"updated stim.csv","Version37.csv","Version 37","List 37","vase",NA,1081,5.36,2838,0.037039394,1082,"BOI","-","-","Please name all of the ways you could use this object. Keep in mind that one object can have many uses. Separate your responses with a comma.",NA,"y",15480,NA,NA,1748,15219,NA,NA,NA,"hold flowers, hold ashes, decorations",1
"20317098SB","rltm9zdlfd","Affordance Norms_MSU_TEX",1,31,"2023-04-12T02:20:53+00:00",50.71635890007,37,"updated stim.csv","Version37.csv","Version 37","List 37","tummy",NA,1105,5.125,2796,0.537045485,1106,"BOI","-","-","Please name all of the ways you could use this object. Keep in mind that one object can have many uses. Separate your responses with a comma.",NA,"y",50468,NA,NA,21849,46543,NA,NA,NA,"hold food, study the body, digesting, absorb nutrients ",1
"20317098SB","rltm9zdlfd","Affordance Norms_MSU_TEX",1,32,"2023-04-12T02:21:10+00:00",17.098332166672,37,"updated stim.csv","Version37.csv","Version 37","List 37","glue",NA,1106,5.043478261,1118,0.048454562,1107,"BOI","-","-","Please name all of the ways you could use this object. Keep in mind that one object can have many uses. Separate your responses with a comma.",NA,"y",16804,NA,NA,1678,11748,NA,NA,NA,"to stick things together, close a cut, ",1
"20317098SB","rltm9zdlfd","Affordance Norms_MSU_TEX",1,33,"2023-04-12T02:23:09+00:00",118.88149285316,37,"updated stim.csv","Version37.csv","Version 37","List 37","gear",NA,1083,4.695652174,1091,0.867732272,1084,"BOI","-","-","Please name all of the ways you could use this object. Keep in mind that one object can have many uses. Separate your responses with a comma.",NA,"y",118652,NA,NA,3590,118172,NA,NA,NA,"gearshift, hunting gear, fishing gear, sports gear",0.997
"20317098SB","rltm9zdlfd","Affordance Norms_MSU_TEX",1,34,"2023-04-12T02:23:49+00:00",39.663684129715,37,"updated stim.csv","Version37.csv","Version 37","List 37","lamplight",NA,1095,4.291666667,1456,0.241565984,1096,"BOI","-","-","Please name all of the ways you could use this object. Keep in mind that one object can have many uses. Separate your responses with a comma.",NA,"y",39381,NA,NA,2876,38795,NA,NA,NA,"for light, to see in the dark, to read in bed",1
"20317098SB","rltm9zdlfd","Affordance Norms_MSU_TEX",1,35,"2023-04-12T02:24:27+00:00",38.279052019119,37,"updated stim.csv","Version37.csv","Version 37","List 37","locket",NA,1088,5.333333333,1537,0.726702365,1089,"BOI","-","-","Please name all of the ways you could use this object. Keep in mind that one object can have many uses. Separate your responses with a comma.",NA,"y",38049,NA,NA,4918,37513,NA,NA,NA,"to keep a picture, as a lock on a locker",1
"20317098SB","rltm9zdlfd","Affordance Norms_MSU_TEX",1,36,"2023-04-12T03:00:27+00:00",2160.1158659458,37,"updated stim.csv","Version37.csv","Version 37","List 37","handle",NA,1086,4.958333333,1239,0.837622991,1087,"BOI","-","-","Please name all of the ways you could use this object. Keep in mind that one object can have many uses. Separate your responses with a comma.",NA,"y",2159604,NA,NA,5203,14161,NA,NA,NA,"door handle, car handle, ",1
"20317098SB","rltm9zdlfd","Affordance Norms_MSU_TEX",1,37,"2023-04-12T03:02:49+00:00",142.34975910187,37,"updated stim.csv","Version37.csv","Version 37","List 37","pistachio",NA,1101,5.541666667,1978,0.346562769,1102,"BOI","-","-","Please name all of the ways you could use this object. Keep in mind that one object can have many uses. Separate your responses with a comma.",NA,"y",142030,NA,NA,113401,141712,NA,NA,NA,"ice cream, snack",1
"20317098SB","rltm9zdlfd","Affordance Norms_MSU_TEX",1,38,"2023-04-12T03:03:04+00:00",14.924112796783,37,"updated stim.csv","Version37.csv","Version 37","List 37","critter",NA,1087,4.863636364,697,0.020818523,1088,"BOI","-","-","Please name all of the ways you could use this object. Keep in mind that one object can have many uses. Separate your responses with a comma.",NA,"y",14677,NA,NA,4711,13934,NA,NA,NA,"raccoon, armadillo, raccoon",1
"20317098SB","rltm9zdlfd","Affordance Norms_MSU_TEX",1,39,"2023-04-12T03:03:20+00:00",15.541277170181,37,"updated stim.csv","Version37.csv","Version 37","List 37","tub",NA,1099,6.086956522,2789,0.006517216,1100,"BOI","-","-","Please name all of the ways you could use this object. Keep in mind that one object can have many uses. Separate your responses with a comma.",NA,"y",15359,NA,NA,1940,14378,NA,NA,NA,"take a bath, wash clothes, bathe dogs and cats",1
"20317098SB","rltm9zdlfd","Affordance Norms_MSU_TEX",1,40,"2023-04-12T03:03:43+00:00",23.613432884216,37,"updated stim.csv","Version37.csv","Version 37","List 37","rag",NA,1085,5.666666667,2126,0.867262022,1086,"BOI","-","-","Please name all of the ways you could use this object. Keep in mind that one object can have many uses. Separate your responses with a comma.",NA,"y",23443,NA,NA,2681,22639,NA,NA,NA,"take off makeup, wipe counter, clean up spill, clean floor",1
"jadkison0505JA","tqswcjwk6m","Affordance Norms_MSU_TEX",1,11,"2023-04-03T21:37:50+00:00",18.456393003464,16,"updated stim.csv","Version16.csv","Version 16","List 16","sardine",NA,453,4.869565217,2242,0.892913517,454,"BOI","-","-","Please name all of the ways you could use this object. Keep in mind that one object can have many uses. Separate your responses with a comma.",NA,"y",18207,NA,NA,4587,15784,NA,NA,NA,"Food, Bait",1
"jadkison0505JA","tqswcjwk6m","Affordance Norms_MSU_TEX",1,12,"2023-04-03T21:38:24+00:00",33.493484973907,16,"updated stim.csv","Version16.csv","Version 16","List 16","coal",NA,458,4.875,579,0.494851678,459,"BOI","-","-","Please name all of the ways you could use this object. Keep in mind that one object can have many uses. Separate your responses with a comma.",NA,"y",33240,NA,NA,2375,31706,NA,NA,NA,"Energy, Fire, Forging, Trains, furnaces ",1
"jadkison0505JA","tqswcjwk6m","Affordance Norms_MSU_TEX",1,13,"2023-04-03T21:39:41+00:00",77.456128120422,16,"updated stim.csv","Version16.csv","Version 16","List 16","rupee",NA,480,4.826086957,2208,0.272774302,481,"BOI","-","-","Please name all of the ways you could use this object. Keep in mind that one object can have many uses. Separate your responses with a comma.",NA,"y",77048,NA,NA,20852,34712,NA,NA,NA,"Buying Things, Exchange, ",1
"jadkison0505JA","tqswcjwk6m","Affordance Norms_MSU_TEX",1,14,"2023-04-03T21:40:14+00:00",33.005879878998,16,"updated stim.csv","Version16.csv","Version 16","List 16","checklist",NA,457,4.464285714,501,0.535152959,458,"BOI","-","-","Please name all of the ways you could use this object. Keep in mind that one object can have many uses. Separate your responses with a comma.",NA,"y",32719,NA,NA,3163,30556,NA,NA,NA,"Groceries, chores ",1
"jadkison0505JA","tqswcjwk6m","Affordance Norms_MSU_TEX",1,15,"2023-04-03T21:40:50+00:00",35.579280138016,16,"updated stim.csv","Version16.csv","Version 16","List 16","mortician",NA,451,4.833333333,1686,0.045579899,452,"BOI","-","-","Please name all of the ways you could use this object. Keep in mind that one object can have many uses. Separate your responses with a comma.",NA,"y",35295,NA,NA,2841,10654,NA,NA,NA,"Handling Bodies",1
"jadkison0505JA","tqswcjwk6m","Affordance Norms_MSU_TEX",1,16,"2023-04-03T21:41:36+00:00",46.091591835022,16,"updated stim.csv","Version16.csv","Version 16","List 16","thigh",NA,454,5.76,2680,0.793867773,455,"BOI","-","-","Please name all of the ways you could use this object. Keep in mind that one object can have many uses. Separate your responses with a comma.",NA,"y",45835,NA,NA,29388,31309,NA,NA,NA,"Food",1
"jadkison0505JA","tqswcjwk6m","Affordance Norms_MSU_TEX",1,17,"2023-04-03T21:42:20+00:00",44.247018098831,16,"updated stim.csv","Version16.csv","Version 16","List 16","cocaine",NA,468,5.913043478,585,0.903342053,469,"BOI","-","-","Please name all of the ways you could use this object. Keep in mind that one object can have many uses. Separate your responses with a comma.",NA,"y",43984,NA,NA,17917,42567,NA,NA,NA,"Getting High, Going to Jail",1
"jadkison0505JA","tqswcjwk6m","Affordance Norms_MSU_TEX",1,18,"2023-04-03T21:42:38+00:00",17.734217882156,16,"updated stim.csv","Version16.csv","Version 16","List 16","cellar",NA,476,4.6,472,0.992638044,477,"BOI","-","-","Please name all of the ways you could use this object. Keep in mind that one object can have many uses. Separate your responses with a comma.",NA,"y",17486,NA,NA,5252,15980,NA,NA,NA,"Keeping Wine, food",1
"jadkison0505JA","tqswcjwk6m","Affordance Norms_MSU_TEX",1,19,"2023-04-03T21:42:54+00:00",16.461094141006,16,"updated stim.csv","Version16.csv","Version 16","List 16","linen",NA,462,5.875,1517,0.282871373,463,"BOI","-","-","Please name all of the ways you could use this object. Keep in mind that one object can have many uses. Separate your responses with a comma.",NA,"y",16210,NA,NA,2616,13691,NA,NA,NA,"Sheets, clothes",1
"jadkison0505JA","tqswcjwk6m","Affordance Norms_MSU_TEX",1,20,"2023-04-03T21:43:21+00:00",27.005455970764,16,"updated stim.csv","Version16.csv","Version 16","List 16","satin",NA,455,5.125,2246,0.101934862,456,"BOI","-","-","Please name all of the ways you could use this object. Keep in mind that one object can have many uses. Separate your responses with a comma.",NA,"y",26738,NA,NA,15955,25615,NA,NA,NA,"drapes ",0.841
"jadkison0505JA","tqswcjwk6m","Affordance Norms_MSU_TEX",1,21,"2023-04-03T21:44:09+00:00",47.812973976135,16,"updated stim.csv","Version16.csv","Version 16","List 16","scientist",NA,456,4.47826087,2274,0.507361683,457,"BOI","-","-","Please name all of the ways you could use this object. Keep in mind that one object can have many uses. Separate your responses with a comma.",NA,"y",47576,NA,NA,4045,45932,NA,NA,NA,"Finding Cures, understanding life",1
"jadkison0505JA","tqswcjwk6m","Affordance Norms_MSU_TEX",1,22,"2023-04-03T21:44:24+00:00",14.66185593605,16,"updated stim.csv","Version16.csv","Version 16","List 16","soap",NA,452,6.434782609,2437,0.273714235,453,"BOI","-","-","Please name all of the ways you could use this object. Keep in mind that one object can have many uses. Separate your responses with a comma.",NA,"y",14373,NA,NA,9677,13187,NA,NA,NA,"cleaning things",1
"jadkison0505JA","tqswcjwk6m","Affordance Norms_MSU_TEX",1,23,"2023-04-03T21:44:55+00:00",31.618413209915,16,"updated stim.csv","Version16.csv","Version 16","List 16","stoop",NA,473,4.5,2548,0.965520337,474,"BOI","-","-","Please name all of the ways you could use this object. Keep in mind that one object can have many uses. Separate your responses with a comma.",NA,"y",31379,NA,NA,28422,30079,NA,NA,NA,"spy",0.887
"jadkison0505JA","tqswcjwk6m","Affordance Norms_MSU_TEX",1,24,"2023-04-03T21:45:11+00:00",15.106307983398,16,"updated stim.csv","Version16.csv","Version 16","List 16","easel",NA,470,4.72,885,0.908131854,471,"BOI","-","-","Please name all of the ways you could use this object. Keep in mind that one object can have many uses. Separate your responses with a comma.",NA,"y",14879,NA,NA,3227,9672,NA,NA,NA,"use for canvas ",1
"jadkison0505JA","tqswcjwk6m","Affordance Norms_MSU_TEX",1,25,"2023-04-03T21:45:40+00:00",29.404219865799,16,"updated stim.csv","Version16.csv","Version 16","List 16","policewoman",NA,479,4.904761905,2023,0.204056132,480,"BOI","-","-","Please name all of the ways you could use this object. Keep in mind that one object can have many uses. Separate your responses with a comma.",NA,"y",29173,NA,NA,10738,14095,NA,NA,NA,"Kill people",1
"jadkison0505JA","tqswcjwk6m","Affordance Norms_MSU_TEX",1,26,"2023-04-03T21:47:12+00:00",92.41967010498,16,"updated stim.csv","Version16.csv","Version 16","List 16","paintbox",NA,478,4.44,1848,0.023317079,479,"BOI","-","-","Please name all of the ways you could use this object. Keep in mind that one object can have many uses. Separate your responses with a comma.",NA,"y",92018,NA,NA,6818,86533,NA,NA,NA,"paint things",1
"jadkison0505JA","tqswcjwk6m","Affordance Norms_MSU_TEX",1,27,"2023-04-03T21:47:21+00:00",8.1314558982849,16,"updated stim.csv","Version16.csv","Version 16","List 16","jean",NA,477,5.956521739,1378,0.274659644,478,"BOI","-","-","Please name all of the ways you could use this object. Keep in mind that one object can have many uses. Separate your responses with a comma.",NA,"y",7892,NA,NA,4612,6729,NA,NA,NA,"clothes ",1
"jadkison0505JA","tqswcjwk6m","Affordance Norms_MSU_TEX",1,28,"2023-04-03T21:47:42+00:00",21.444581031799,16,"updated stim.csv","Version16.csv","Version 16","List 16","note",NA,459,5.434782609,1781,0.11652109,460,"BOI","-","-","Please name all of the ways you could use this object. Keep in mind that one object can have many uses. Separate your responses with a comma.",NA,"y",21195,NA,NA,2797,20005,NA,NA,NA,"school, work, study",1
"jadkison0505JA","tqswcjwk6m","Affordance Norms_MSU_TEX",1,29,"2023-04-03T21:47:59+00:00",16.690607070923,16,"updated stim.csv","Version16.csv","Version 16","List 16","lip",NA,463,5.52173913,1521,0.029003979,464,"BOI","-","-","Please name all of the ways you could use this object. Keep in mind that one object can have many uses. Separate your responses with a comma.",NA,"y",16462,NA,NA,4513,15032,NA,NA,NA,"speak, kiss ",1
"jadkison0505JA","tqswcjwk6m","Affordance Norms_MSU_TEX",1,30,"2023-04-03T21:48:28+00:00",29.137221813202,16,"updated stim.csv","Version16.csv","Version 16","List 16","apprentice",NA,466,4.321428571,65,0.613222279,467,"BOI","-","-","Please name all of the ways you could use this object. Keep in mind that one object can have many uses. Separate your responses with a comma.",NA,"y",28906,NA,NA,8800,27707,NA,NA,NA,"help, teach",1
"jadkison0505JA","tqswcjwk6m","Affordance Norms_MSU_TEX",1,31,"2023-04-03T21:49:08+00:00",39.80385518074,16,"updated stim.csv","Version16.csv","Version 16","List 16","genital",NA,464,5.826086957,1095,0.838010994,465,"BOI","-","-","Please name all of the ways you could use this object. Keep in mind that one object can have many uses. Separate your responses with a comma.",NA,"y",39571,NA,NA,5738,33017,NA,NA,NA,"Use the Bathroom, Sex",1
"jadkison0505JA","tqswcjwk6m","Affordance Norms_MSU_TEX",1,32,"2023-04-03T21:49:37+00:00",29.654569864273,16,"updated stim.csv","Version16.csv","Version 16","List 16","paraphernalia",NA,472,4.5,1871,0.999105159,473,"BOI","-","-","Please name all of the ways you could use this object. Keep in mind that one object can have many uses. Separate your responses with a comma.",NA,"y",29384,NA,NA,21996,27747,NA,NA,NA,"Fill your pockets",0.907
"jadkison0505JA","tqswcjwk6m","Affordance Norms_MSU_TEX",1,33,"2023-04-03T21:49:49+00:00",12.038733005524,16,"updated stim.csv","Version16.csv","Version 16","List 16","spatula",NA,461,5.708333333,2463,0.284019134,462,"BOI","-","-","Please name all of the ways you could use this object. Keep in mind that one object can have many uses. Separate your responses with a comma.",NA,"y",11802,NA,NA,3014,9157,NA,NA,NA,"Flip Burgers",1
"jadkison0505JA","tqswcjwk6m","Affordance Norms_MSU_TEX",1,34,"2023-04-03T21:50:10+00:00",21.185115098953,16,"updated stim.csv","Version16.csv","Version 16","List 16","lake",NA,465,5.035714286,1452,0.957672416,466,"BOI","-","-","Please name all of the ways you could use this object. Keep in mind that one object can have many uses. Separate your responses with a comma.",NA,"y",20939,NA,NA,1699,18893,NA,NA,NA,"Swim, fish, boat",1
"jadkison0505JA","tqswcjwk6m","Affordance Norms_MSU_TEX",1,35,"2023-04-03T21:50:21+00:00",10.946215867996,16,"updated stim.csv","Version16.csv","Version 16","List 16","raindrop",NA,460,5.208333333,2131,0.395585786,461,"BOI","-","-","Please name all of the ways you could use this object. Keep in mind that one object can have many uses. Separate your responses with a comma.",NA,"y",10695,NA,NA,4820,9365,NA,NA,NA,"water collecting",1
"jadkison0505JA","tqswcjwk6m","Affordance Norms_MSU_TEX",1,36,"2023-04-03T21:50:40+00:00",18.49972820282,16,"updated stim.csv","Version16.csv","Version 16","List 16","bayonet",NA,471,4.916666667,174,0.190081034,472,"BOI","-","-","Please name all of the ways you could use this object. Keep in mind that one object can have many uses. Separate your responses with a comma.",NA,"y",18232,NA,NA,2589,15140,NA,NA,NA,"stabbing, murder ",1
"jadkison0505JA","tqswcjwk6m","Affordance Norms_MSU_TEX",1,37,"2023-04-03T21:51:01+00:00",21.455492973328,16,"updated stim.csv","Version16.csv","Version 16","List 16","nickel",NA,467,5.814814815,1766,0.592286248,468,"BOI","-","-","Please name all of the ways you could use this object. Keep in mind that one object can have many uses. Separate your responses with a comma.",NA,"y",21209,NA,NA,9733,19804,NA,NA,NA,"Make metal things",1
"jadkison0505JA","tqswcjwk6m","Affordance Norms_MSU_TEX",1,38,"2023-04-03T21:51:22+00:00",20.42334485054,16,"updated stim.csv","Version16.csv","Version 16","List 16","collar",NA,469,5.12,600,0.026191584,470,"BOI","-","-","Please name all of the ways you could use this object. Keep in mind that one object can have many uses. Separate your responses with a comma.",NA,"y",20138,NA,NA,11653,18993,NA,NA,NA,"helps dogs not get lost",1
"jadkison0505JA","tqswcjwk6m","Affordance Norms_MSU_TEX",1,39,"2023-04-03T21:51:28+00:00",6.0257971286774,16,"updated stim.csv","Version16.csv","Version 16","List 16","mutton",NA,474,5,1729,0.300420837,475,"BOI","-","-","Please name all of the ways you could use this object. Keep in mind that one object can have many uses. Separate your responses with a comma.",NA,"y",5786,NA,NA,3226,3912,NA,NA,NA,"food ",1
"jadkison0505JA","tqswcjwk6m","Affordance Norms_MSU_TEX",1,40,"2023-04-03T21:52:17+00:00",49.256120920181,16,"updated stim.csv","Version16.csv","Version 16","List 16","pole",NA,475,5.32,2020,0.760021962,476,"BOI","-","-","Please name all of the ways you could use this object. Keep in mind that one object can have many uses. Separate your responses with a comma.",NA,"y",49021,NA,NA,12185,18909,NA,NA,NA,"flags, dancing",1
"lasilver0515LAS","ra310unxsz","Affordance Norms_MSU_TEX",1,11,"2023-04-07T02:10:52+00:00",31.851129055023,21,"updated stim.csv","Version21.csv","Version 21","List 21","gangster",NA,601,4.36,1072,0.054989468,602,"BOI","-","-","Please name all of the ways you could use this object. Keep in mind that one object can have many uses. Separate your responses with a comma.",NA,"y",31616,NA,NA,6743,30145,NA,NA,NA,"hire, employee, entice, betray",1
"lasilver0515LAS","ra310unxsz","Affordance Norms_MSU_TEX",1,12,"2023-04-07T02:11:26+00:00",33.535970926285,21,"updated stim.csv","Version21.csv","Version 21","List 21","ammo",NA,603,5.32,34,0.622457557,604,"BOI","-","-","Please name all of the ways you could use this object. Keep in mind that one object can have many uses. Separate your responses with a comma.",NA,"y",33291,NA,NA,1570,32065,NA,NA,NA,"shoot, stash, stow, carry, pass, install, buy, trade, sell, fire, expend",1
"lasilver0515LAS","ra310unxsz","Affordance Norms_MSU_TEX",1,13,"2023-04-07T02:12:06+00:00",40.52702999115,21,"updated stim.csv","Version21.csv","Version 21","List 21","can",NA,619,4.88,408,0.104956358,620,"BOI","-","-","Please name all of the ways you could use this object. Keep in mind that one object can have many uses. Separate your responses with a comma.",NA,"y",40270,NA,NA,3232,39003,NA,NA,NA,"open, buy, grab, throw, stack, hand, withdraw, close",1
"lasilver0515LAS","ra310unxsz","Affordance Norms_MSU_TEX",1,14,"2023-04-07T02:12:44+00:00",37.792434930801,21,"updated stim.csv","Version21.csv","Version 21","List 21","bugle",NA,622,4.541666667,348,0.410731421,623,"BOI","-","-","Please name all of the ways you could use this object. Keep in mind that one object can have many uses. Separate your responses with a comma.",NA,"y",37551,NA,NA,4086,34690,NA,NA,NA,"pack, unpack, play, buy, sell, purchase, auction, clean, polish, carry",1
"lasilver0515LAS","ra310unxsz","Affordance Norms_MSU_TEX",1,15,"2023-04-07T02:13:19+00:00",35.337988138199,21,"updated stim.csv","Version21.csv","Version 21","List 21","sunflower",NA,615,5.333333333,2587,0.961970071,616,"BOI","-","-","Please name all of the ways you could use this object. Keep in mind that one object can have many uses. Separate your responses with a comma.",NA,"y",35092,NA,NA,2831,33926,NA,NA,NA,"eat, admire, plant, pick, kill, water, nurture, foster, harvest, cut, pluck",1
"lasilver0515LAS","ra310unxsz","Affordance Norms_MSU_TEX",1,16,"2023-04-07T02:13:42+00:00",22.501664876938,21,"updated stim.csv","Version21.csv","Version 21","List 21","schoolhouse",NA,612,5.291666667,2272,0.759838801,613,"BOI","-","-","Please name all of the ways you could use this object. Keep in mind that one object can have many uses. Separate your responses with a comma.",NA,"y",22259,NA,NA,3735,16683,NA,NA,NA,"build, inhabit, burn, torch, enter, exit",1
"lasilver0515LAS","ra310unxsz","Affordance Norms_MSU_TEX",1,17,"2023-04-07T02:14:44+00:00",61.928036928177,21,"updated stim.csv","Version21.csv","Version 21","List 21","washroom",NA,625,5.037037037,2901,0.496721159,626,"BOI","-","-","Please name all of the ways you could use this object. Keep in mind that one object can have many uses. Separate your responses with a comma.",NA,"y",61510,NA,NA,3694,59785,NA,NA,NA,"restroom, shower, bath, handwash, urinate, defecate, cleanse, rinse up, bleach",1
"lasilver0515LAS","ra310unxsz","Affordance Norms_MSU_TEX",1,18,"2023-04-07T02:15:34+00:00",50.539573192596,21,"updated stim.csv","Version21.csv","Version 21","List 21","iguana",NA,617,5.166666667,1350,0.213044893,618,"BOI","-","-","Please name all of the ways you could use this object. Keep in mind that one object can have many uses. Separate your responses with a comma.",NA,"y",50284,NA,NA,1964,32076,NA,NA,NA,"pet, buy, sell, carry, water, present, steal, smuggle, dress, eat, nurture, ",0.836
"lasilver0515LAS","ra310unxsz","Affordance Norms_MSU_TEX",1,19,"2023-04-07T02:16:20+00:00",45.262702941895,21,"updated stim.csv","Version21.csv","Version 21","List 21","checkerboard",NA,609,5.391304348,500,0.472581554,610,"BOI","-","-","Please name all of the ways you could use this object. Keep in mind that one object can have many uses. Separate your responses with a comma.",NA,"y",45014,NA,NA,4834,42046,NA,NA,NA,"paint, play, stash, unpack, gift, steal, buy, inherit, throw away, showcase, clean",1
"lasilver0515LAS","ra310unxsz","Affordance Norms_MSU_TEX",1,20,"2023-04-07T02:16:57+00:00",37.468863964081,21,"updated stim.csv","Version21.csv","Version 21","List 21","condominium",NA,620,4.678571429,623,0.282304847,621,"BOI","-","-","Please name all of the ways you could use this object. Keep in mind that one object can have many uses. Separate your responses with a comma.",NA,"y",37218,NA,NA,2009,36473,NA,NA,NA,"inhabit, evacuate, leave, enter, buy, sell, rent, decorate, trash, clean, wash, enjoy, lease",1
"lasilver0515LAS","ra310unxsz","Affordance Norms_MSU_TEX",1,21,"2023-04-07T02:17:32+00:00",34.727821111679,21,"updated stim.csv","Version21.csv","Version 21","List 21","snowshoe",NA,605,5.541666667,2436,0.966183453,606,"BOI","-","-","Please name all of the ways you could use this object. Keep in mind that one object can have many uses. Separate your responses with a comma.",NA,"y",34482,NA,NA,2492,22910,NA,NA,NA,"wear, stash, clean, gift, buy, sell, adorn, remove, ",1
"lasilver0515LAS","ra310unxsz","Affordance Norms_MSU_TEX",1,22,"2023-04-07T02:17:57+00:00",25.599059820175,21,"updated stim.csv","Version21.csv","Version 21","List 21","guesthouse",NA,627,4.913043478,1189,0.51706315,628,"BOI","-","-","Please name all of the ways you could use this object. Keep in mind that one object can have many uses. Separate your responses with a comma.",NA,"y",25353,NA,NA,2206,23814,NA,NA,NA,"clean, tidy, rent, lease, sell, paint, destroy, demolish, renovate",1
"lasilver0515LAS","ra310unxsz","Affordance Norms_MSU_TEX",1,23,"2023-04-07T02:18:35+00:00",37.056048154831,21,"updated stim.csv","Version21.csv","Version 21","List 21","ring",NA,624,6.130434783,2170,0.00520631,625,"BOI","-","-","Please name all of the ways you could use this object. Keep in mind that one object can have many uses. Separate your responses with a comma.",NA,"y",36820,NA,NA,2263,35671,NA,NA,NA,"buy, sell, steal, gift, offer, receive, clean, polish, cherish, hide, rob, display, pawn",1
"lasilver0515LAS","ra310unxsz","Affordance Norms_MSU_TEX",1,24,"2023-04-07T02:18:58+00:00",23.222368955612,21,"updated stim.csv","Version21.csv","Version 21","List 21","muffler",NA,616,4.75,1712,0.151193811,617,"BOI","-","-","Please name all of the ways you could use this object. Keep in mind that one object can have many uses. Separate your responses with a comma.",NA,"y",22978,NA,NA,1943,21172,NA,NA,NA,"install, remove, modify, buy, sell, steal, gift, block, unblock, ",1
"lasilver0515LAS","ra310unxsz","Affordance Norms_MSU_TEX",1,25,"2023-04-07T02:19:32+00:00",34.337431907654,21,"updated stim.csv","Version21.csv","Version 21","List 21","bell",NA,614,5.76,196,0.555805327,615,"BOI","-","-","Please name all of the ways you could use this object. Keep in mind that one object can have many uses. Separate your responses with a comma.",NA,"y",34103,NA,NA,8840,32669,NA,NA,NA,"ring, crack, clean, buy, sell, gift, display",1
"lasilver0515LAS","ra310unxsz","Affordance Norms_MSU_TEX",1,26,"2023-04-07T02:19:42+00:00",9.4038679599762,21,"updated stim.csv","Version21.csv","Version 21","List 21","splint",NA,618,4.958333333,2477,0.375782064,619,"BOI","-","-","Please name all of the ways you could use this object. Keep in mind that one object can have many uses. Separate your responses with a comma.",NA,"y",9156,NA,NA,2174,4119,NA,NA,NA,"wear, apply",1
"lasilver0515LAS","ra310unxsz","Affordance Norms_MSU_TEX",1,27,"2023-04-07T02:19:56+00:00",14.415840148926,21,"updated stim.csv","Version21.csv","Version 21","List 21","piano",NA,630,6.166666667,1947,0.924463791,631,"BOI","-","-","Please name all of the ways you could use this object. Keep in mind that one object can have many uses. Separate your responses with a comma.",NA,"y",14189,NA,NA,1239,13226,NA,NA,NA,"play, display, instruct ",1
"lasilver0515LAS","ra310unxsz","Affordance Norms_MSU_TEX",1,28,"2023-04-07T02:20:09+00:00",12.674876928329,21,"updated stim.csv","Version21.csv","Version 21","List 21","steroids",NA,623,4.52,2532,0.748126488,624,"BOI","-","-","Please name all of the ways you could use this object. Keep in mind that one object can have many uses. Separate your responses with a comma.",NA,"y",12435,NA,NA,2959,11419,NA,NA,NA,"inject, sell, display, offer, receive",1
"lasilver0515LAS","ra310unxsz","Affordance Norms_MSU_TEX",1,29,"2023-04-07T02:20:23+00:00",14.055248975754,21,"updated stim.csv","Version21.csv","Version 21","List 21","frog",NA,604,5.125,1058,0.312710997,605,"BOI","-","-","Please name all of the ways you could use this object. Keep in mind that one object can have many uses. Separate your responses with a comma.",NA,"y",13812,NA,NA,2432,11793,NA,NA,NA,"own, pet, admire, loathe, kiss, ",1
"lasilver0515LAS","ra310unxsz","Affordance Norms_MSU_TEX",1,30,"2023-04-07T02:20:46+00:00",23.807558059692,21,"updated stim.csv","Version21.csv","Version 21","List 21","seaweed",NA,610,4.458333333,2304,0.605127755,611,"BOI","-","-","Please name all of the ways you could use this object. Keep in mind that one object can have many uses. Separate your responses with a comma.",NA,"y",23572,NA,NA,1615,22152,NA,NA,NA,"eat, harvest, transport, buy, sell, crush, consume, dry-out",1
"lasilver0515LAS","ra310unxsz","Affordance Norms_MSU_TEX",1,31,"2023-04-07T02:21:03+00:00",16.922947883606,21,"updated stim.csv","Version21.csv","Version 21","List 21","organ",NA,611,5.185185185,1820,0.477300305,612,"BOI","-","-","Please name all of the ways you could use this object. Keep in mind that one object can have many uses. Separate your responses with a comma.",NA,"y",16684,NA,NA,2461,16056,NA,NA,NA,"buy, sell, donate, study, admire, offer, relocate",1
"lasilver0515LAS","ra310unxsz","Affordance Norms_MSU_TEX",1,32,"2023-04-07T02:21:47+00:00",43.530699014664,21,"updated stim.csv","Version21.csv","Version 21","List 21","lizard",NA,606,4.925925926,1529,0.691592618,607,"BOI","-","-","Please name all of the ways you could use this object. Keep in mind that one object can have many uses. Separate your responses with a comma.",NA,"y",43290,NA,NA,3633,13181,NA,NA,NA,"admire, observe, buy, sell, raise, order, ",1
"lasilver0515LAS","ra310unxsz","Affordance Norms_MSU_TEX",1,33,"2023-04-07T02:22:04+00:00",16.67037320137,21,"updated stim.csv","Version21.csv","Version 21","List 21","quill",NA,613,4.565217391,2115,0.894304697,614,"BOI","-","-","Please name all of the ways you could use this object. Keep in mind that one object can have many uses. Separate your responses with a comma.",NA,"y",16425,NA,NA,3645,13758,NA,NA,NA,"write, author, scribe, decorate, ",1
"lasilver0515LAS","ra310unxsz","Affordance Norms_MSU_TEX",1,34,"2023-04-07T02:22:12+00:00",7.9397759437561,21,"updated stim.csv","Version21.csv","Version 21","List 21","placenta",NA,629,4.28,1984,0.391387386,630,"BOI","-","-","Please name all of the ways you could use this object. Keep in mind that one object can have many uses. Separate your responses with a comma.",NA,"y",7712,NA,NA,1727,6789,NA,NA,NA,"eat, sell, nurture ",1
"lasilver0515LAS","ra310unxsz","Affordance Norms_MSU_TEX",1,35,"2023-04-07T02:22:29+00:00",17.533664941788,21,"updated stim.csv","Version21.csv","Version 21","List 21","whore",NA,608,4.782608696,2933,0.200273959,609,"BOI","-","-","Please name all of the ways you could use this object. Keep in mind that one object can have many uses. Separate your responses with a comma.",NA,"y",17308,NA,NA,2916,14864,NA,NA,NA,"fuck, pleasure, buy, sell, borrow, include, play, ",1
"lasilver0515LAS","ra310unxsz","Affordance Norms_MSU_TEX",1,36,"2023-04-07T02:22:47+00:00",18.386782884598,21,"updated stim.csv","Version21.csv","Version 21","List 21","toiletry",NA,602,5.222222222,2720,0.520201344,603,"BOI","-","-","Please name all of the ways you could use this object. Keep in mind that one object can have many uses. Separate your responses with a comma.",NA,"y",18143,NA,NA,1405,17167,NA,NA,NA,"buy, sell, gift, decorate, stock, remove, carry",1
"lasilver0515LAS","ra310unxsz","Affordance Norms_MSU_TEX",1,37,"2023-04-07T02:22:59+00:00",11.917857170105,21,"updated stim.csv","Version21.csv","Version 21","List 21","gumdrop",NA,628,5.875,1197,0.232209206,629,"BOI","-","-","Please name all of the ways you could use this object. Keep in mind that one object can have many uses. Separate your responses with a comma.",NA,"y",11684,NA,NA,3659,10788,NA,NA,NA,"eat, throw up, buy, sell, consume, enjoy, ",1
"lasilver0515LAS","ra310unxsz","Affordance Norms_MSU_TEX",1,38,"2023-04-07T02:23:12+00:00",12.967563867569,21,"updated stim.csv","Version21.csv","Version 21","List 21","cutlery",NA,607,5.913043478,738,0.205029454,608,"BOI","-","-","Please name all of the ways you could use this object. Keep in mind that one object can have many uses. Separate your responses with a comma.",NA,"y",12720,NA,NA,3618,11327,NA,NA,NA,"gift, buy, sell, store, remove, clean, rinse, ",1
"lasilver0515LAS","ra310unxsz","Affordance Norms_MSU_TEX",1,39,"2023-04-07T02:23:28+00:00",15.869031190872,21,"updated stim.csv","Version21.csv","Version 21","List 21","cadillac",NA,621,5.12,395,0.211302837,622,"BOI","-","-","Please name all of the ways you could use this object. Keep in mind that one object can have many uses. Separate your responses with a comma.",NA,"y",15633,NA,NA,1943,14423,NA,NA,NA,"drive, display, clean, trash, crash, buy, sell, gift",1
"lasilver0515LAS","ra310unxsz","Affordance Norms_MSU_TEX",1,40,"2023-04-07T02:23:47+00:00",18.755503892899,21,"updated stim.csv","Version21.csv","Version 21","List 21","spinach",NA,626,4.96,2474,0.316902867,627,"BOI","-","-","Please name all of the ways you could use this object. Keep in mind that one object can have many uses. Separate your responses with a comma.",NA,"y",18525,NA,NA,1744,17641,NA,NA,NA,"Eat, grow, cook, clean, ship, unpack, package, study",1
"M20248455C.W.","pk318zpfgz","Affordance Norms_MSU_TEX",1,11,"2023-04-08T12:50:33+00:00",814.7946498394,22,"updated stim.csv","Version22.csv","Version 22","List 22","shed",NA,653,4.333333333,2327,0.019949413,654,"BOI","-","-","Please name all of the ways you could use this object. Keep in mind that one object can have many uses. Separate your responses with a comma.",NA,"y",814223,NA,NA,702874,798729,NA,NA,NA,"storage, housing, enclosure, greenhouse, buy, sell, demolish, hide ",1
"M20248455C.W.","pk318zpfgz","Affordance Norms_MSU_TEX",1,12,"2023-04-08T12:51:52+00:00",78.837182998657,22,"updated stim.csv","Version22.csv","Version 22","List 22","junk",NA,656,4.962962963,1396,0.125346107,657,"BOI","-","-","Please name all of the ways you could use this object. Keep in mind that one object can have many uses. Separate your responses with a comma.",NA,"y",78306,NA,NA,7625,48736,NA,NA,NA,"throw away, keep, collect, store, buy, sell, repurpose, restore",1
"M20248455C.W.","pk318zpfgz","Affordance Norms_MSU_TEX",1,13,"2023-04-08T12:54:12+00:00",139.6100051403,22,"updated stim.csv","Version22.csv","Version 22","List 22","stool",NA,659,6.076923077,2547,0.995036771,660,"BOI","-","-","Please name all of the ways you could use this object. Keep in mind that one object can have many uses. Separate your responses with a comma.",NA,"y",139130,NA,NA,5789,130812,NA,NA,NA,"sample, sit, stand, spin, place, decorate, flush, paint, as small table, plant stand, dissassemble, repurpose, restore, refinish, buy, sell",1
"M20248455C.W.","pk318zpfgz","Affordance Norms_MSU_TEX",1,14,"2023-04-08T12:55:32+00:00",80.560171842575,22,"updated stim.csv","Version22.csv","Version 22","List 22","carport",NA,632,4.28,439,0.557499565,633,"BOI","-","-","Please name all of the ways you could use this object. Keep in mind that one object can have many uses. Separate your responses with a comma.",NA,"y",80093,NA,NA,3017,30945,NA,NA,NA,"park, protect, shelter, buy, sell, ",1
"M20248455C.W.","pk318zpfgz","Affordance Norms_MSU_TEX",1,15,"2023-04-08T12:57:10+00:00",97.73162317276,22,"updated stim.csv","Version22.csv","Version 22","List 22","tutor",NA,634,4.608695652,2807,0.295026168,635,"BOI","-","-","Please name all of the ways you could use this object. Keep in mind that one object can have many uses. Separate your responses with a comma.",NA,"y",97207,NA,NA,3398,85973,NA,NA,NA,"teach, learn, talk to, listen to, study, date, eat with, pay, ",1
"M20248455C.W.","pk318zpfgz","Affordance Norms_MSU_TEX",1,16,"2023-04-08T12:58:33+00:00",83.006063938141,22,"updated stim.csv","Version22.csv","Version 22","List 22","needlepoint",NA,640,4.576923077,1746,0.71513555,641,"BOI","-","-","Please name all of the ways you could use this object. Keep in mind that one object can have many uses. Separate your responses with a comma.",NA,"y",82535,NA,NA,19310,78213,NA,NA,NA,"look at, create, decorate, dye, buy, sell, add to, make patches, teach, learn",1
"M20248455C.W.","pk318zpfgz","Affordance Norms_MSU_TEX",1,17,"2023-04-08T13:00:22+00:00",108.43283891678,22,"updated stim.csv","Version22.csv","Version 22","List 22","puddle",NA,655,5,2089,0.140663882,656,"BOI","-","-","Please name all of the ways you could use this object. Keep in mind that one object can have many uses. Separate your responses with a comma.",NA,"y",107922,NA,NA,3213,99284,NA,NA,NA,"splash, drain, drink, collect, observe, study, research, soak, sit in, treat, photograph, videograph, dry up, fill in",1
"M20248455C.W.","pk318zpfgz","Affordance Norms_MSU_TEX",1,18,"2023-04-08T13:02:02+00:00",100.40991902351,22,"updated stim.csv","Version22.csv","Version 22","List 22","peephole",NA,643,4.875,1907,0.044058693,644,"BOI","-","-","Please name all of the ways you could use this object. Keep in mind that one object can have many uses. Separate your responses with a comma.",NA,"y",99852,NA,NA,6344,86864,NA,NA,NA,"spy, look through, pass notes, talk through, blow through, breathe through, fill in, widen",1
"M20248455C.W.","pk318zpfgz","Affordance Norms_MSU_TEX",1,19,"2023-04-08T13:03:55+00:00",112.58750414848,22,"updated stim.csv","Version22.csv","Version 22","List 22","drone",NA,660,4.291666667,851,0.529488215,661,"BOI","-","-","Please name all of the ways you could use this object. Keep in mind that one object can have many uses. Separate your responses with a comma.",NA,"y",112105,NA,NA,14156,101315,NA,NA,NA,"fly, crash, repair, buy, sell, aerial footage, ship, deliver, observe, collect data, spy, relay information",1
"M20248455C.W.","pk318zpfgz","Affordance Norms_MSU_TEX",1,20,"2023-04-08T13:06:22+00:00",147.38993692398,22,"updated stim.csv","Version22.csv","Version 22","List 22","dress",NA,658,6.16,843,0.914545624,659,"BOI","-","-","Please name all of the ways you could use this object. Keep in mind that one object can have many uses. Separate your responses with a comma.",NA,"y",146893,NA,NA,4251,146867,NA,NA,NA,"destroy, repurpose, wear, buy, sell, decorate, dye, display, political statement, take off, model, design, tourniquet, soak up.",1
"M20248455C.W.","pk318zpfgz","Affordance Norms_MSU_TEX",1,21,"2023-04-08T13:08:49+00:00",146.94824385643,22,"updated stim.csv","Version22.csv","Version 22","List 22","clipper",NA,650,4.923076923,562,0.212052319,651,"BOI","-","-","Please name all of the ways you could use this object. Keep in mind that one object can have many uses. Separate your responses with a comma.",NA,"y",146462,NA,NA,4119,143359,NA,NA,NA,"cut hair, dog grooming, shave beard, shave legs, manscape, make rugs, shear sheep, buy, sell, test, study, take apart, put back together, make noise",1
"M20248455C.W.","pk318zpfgz","Affordance Norms_MSU_TEX",1,22,"2023-04-08T13:10:48+00:00",118.85013699532,22,"updated stim.csv","Version22.csv","Version 22","List 22","parachute",NA,636,4.68,1868,0.70599198,637,"BOI","-","-","Please name all of the ways you could use this object. Keep in mind that one object can have many uses. Separate your responses with a comma.",NA,"y",118372,NA,NA,9250,114786,NA,NA,NA,"jump from airplane, paraglide, as blanket, to deliver, protect, provide shelter, repurpose, destroy, glide, buy, sell, decorate, collect",1
"M20248455C.W.","pk318zpfgz","Affordance Norms_MSU_TEX",1,23,"2023-04-08T13:12:43+00:00",114.72233605385,22,"updated stim.csv","Version22.csv","Version 22","List 22","boat",NA,644,5.130434783,255,0.951563463,645,"BOI","-","-","Please name all of the ways you could use this object. Keep in mind that one object can have many uses. Separate your responses with a comma.",NA,"y",114235,NA,NA,3322,110082,NA,NA,NA,"drive, tug, ship, fish, study, observe, experiment, landing strip, housing, voyages, sailing, buy, sell, decorate, repurpose, collect",1
"M20248455C.W.","pk318zpfgz","Affordance Norms_MSU_TEX",1,24,"2023-04-08T13:14:21+00:00",98.081984043121,22,"updated stim.csv","Version22.csv","Version 22","List 22","buckwheat",NA,639,4.44,343,0.235284908,640,"BOI","-","-","Please name all of the ways you could use this object. Keep in mind that one object can have many uses. Separate your responses with a comma.",NA,"y",97591,NA,NA,21963,92810,NA,NA,NA,"buy, sell, sow, grow, breed, observe, experiment, make twine, dry out, harvest, cultivate, make bales, feed, eat, bedding",1
"M20248455C.W.","pk318zpfgz","Affordance Norms_MSU_TEX",1,25,"2023-04-08T13:15:41+00:00",80.103609085083,22,"updated stim.csv","Version22.csv","Version 22","List 22","stockbroker",NA,649,4.851851852,2540,0.731101603,650,"BOI","-","-","Please name all of the ways you could use this object. Keep in mind that one object can have many uses. Separate your responses with a comma.",NA,"y",79617,NA,NA,8828,72211,NA,NA,NA,"make money, lose money, borrow money, learn from, teach, work for, hire, steal, buy, sell, date, love",1
"M20248455C.W.","pk318zpfgz","Affordance Norms_MSU_TEX",1,26,"2023-04-08T13:16:41+00:00",60.236201047897,22,"updated stim.csv","Version22.csv","Version 22","List 22","artist",NA,651,4.782608696,80,0.726156662,652,"BOI","-","-","Please name all of the ways you could use this object. Keep in mind that one object can have many uses. Separate your responses with a comma.",NA,"y",59670,NA,NA,4475,52354,NA,NA,NA,"buy from, sell to, date, hire, work for, steal from, gain inspiration, learn from, teach, ",1
"M20248455C.W.","pk318zpfgz","Affordance Norms_MSU_TEX",1,27,"2023-04-08T13:17:41+00:00",60.098465919495,22,"updated stim.csv","Version22.csv","Version 22","List 22","diaphragm",NA,641,4.269230769,788,0.761321461,642,"BOI","-","-","Please name all of the ways you could use this object. Keep in mind that one object can have many uses. Separate your responses with a comma.",NA,"y",59582,NA,NA,17236,58092,NA,NA,NA,"inhale, exhale, research, observe, experiment, remove, tranquilize, buy, sell",1
"M20248455C.W.","pk318zpfgz","Affordance Norms_MSU_TEX",1,28,"2023-04-08T13:18:55+00:00",74.104002952576,22,"updated stim.csv","Version22.csv","Version 22","List 22","pumpernickel",NA,646,5.130434783,2097,0.008330352,647,"BOI","-","-","Please name all of the ways you could use this object. Keep in mind that one object can have many uses. Separate your responses with a comma.",NA,"y",73631,NA,NA,20457,69648,NA,NA,NA,"buy, sell, eat, toast, dip with, snack, feed, study, experiment",1
"M20248455C.W.","pk318zpfgz","Affordance Norms_MSU_TEX",1,29,"2023-04-08T13:19:45+00:00",49.630116939545,22,"updated stim.csv","Version22.csv","Version 22","List 22","trunk",NA,631,5.217391304,2788,0.288599309,632,"BOI","-","-","Please name all of the ways you could use this object. Keep in mind that one object can have many uses. Separate your responses with a comma.",NA,"y",49115,NA,NA,2477,36668,NA,NA,NA,"storage, buy, sell, decorate, refurbis, refinish, restore, ",1
"M20248455C.W.","pk318zpfgz","Affordance Norms_MSU_TEX",1,30,"2023-04-08T13:20:35+00:00",49.858433961868,22,"updated stim.csv","Version22.csv","Version 22","List 22","wigmaker",NA,645,4.36,2936,0.405238599,646,"BOI","-","-","Please name all of the ways you could use this object. Keep in mind that one object can have many uses. Separate your responses with a comma.",NA,"y",49370,NA,NA,3413,32397,NA,NA,NA,"buy from, sell to, date, learn from, teach, steal from",1
"M20248455C.W.","pk318zpfgz","Affordance Norms_MSU_TEX",1,31,"2023-04-08T13:21:58+00:00",83.332919120789,22,"updated stim.csv","Version22.csv","Version 22","List 22","seawater",NA,633,4.961538462,2303,0.081957919,634,"BOI","-","-","Please name all of the ways you could use this object. Keep in mind that one object can have many uses. Separate your responses with a comma.",NA,"y",82821,NA,NA,9164,75939,NA,NA,NA,"evaporate, cook with, titrate, filter, aquarium, bathe in, observe, experiment, buy, sell",1
"M20248455C.W.","pk318zpfgz","Affordance Norms_MSU_TEX",1,32,"2023-04-08T13:22:57+00:00",59.202318906784,22,"updated stim.csv","Version22.csv","Version 22","List 22","rabbit",NA,642,5,2117,0.225154992,643,"BOI","-","-","Please name all of the ways you could use this object. Keep in mind that one object can have many uses. Separate your responses with a comma.",NA,"y",58684,NA,NA,5073,50657,NA,NA,NA,"eat, play with, love, companionship, fur, luck, breeding, buy, sell, care for",1
"M20248455C.W.","pk318zpfgz","Affordance Norms_MSU_TEX",1,33,"2023-04-08T13:24:20+00:00",82.754832983017,22,"updated stim.csv","Version22.csv","Version 22","List 22","beach",NA,637,5.666666667,176,0.555141902,638,"BOI","-","-","Please name all of the ways you could use this object. Keep in mind that one object can have many uses. Separate your responses with a comma.",NA,"y",82278,NA,NA,5051,80602,NA,NA,NA,"picnic, date, walking, running, swimming, research, tide pool observation, restore, get sand, get seawater, collect shells, go fishing, buy, sell, build on",1
"M20248455C.W.","pk318zpfgz","Affordance Norms_MSU_TEX",1,34,"2023-04-08T13:25:17+00:00",57.373059988022,22,"updated stim.csv","Version22.csv","Version 22","List 22","shield",NA,647,5.037037037,2338,0.491439171,648,"BOI","-","-","Please name all of the ways you could use this object. Keep in mind that one object can have many uses. Separate your responses with a comma.",NA,"y",56894,NA,NA,2567,54766,NA,NA,NA,"protect, use as weapon, use as saucer, throw, buy, sell ",1
"M20248455C.W.","pk318zpfgz","Affordance Norms_MSU_TEX",1,35,"2023-04-08T13:26:22+00:00",65.072968006134,22,"updated stim.csv","Version22.csv","Version 22","List 22","clam",NA,657,4.375,545,0.559495965,658,"BOI","-","-","Please name all of the ways you could use this object. Keep in mind that one object can have many uses. Separate your responses with a comma.",NA,"y",64587,NA,NA,1819,61474,NA,NA,NA,"eat, observe, research, experiment, remove, dissassemble, cook, teach, collect shell",1
"M20248455C.W.","pk318zpfgz","Affordance Norms_MSU_TEX",1,36,"2023-04-08T13:27:30+00:00",67.427193164825,22,"updated stim.csv","Version22.csv","Version 22","List 22","television",NA,652,5.6,2660,0.764587344,653,"BOI","-","-","Please name all of the ways you could use this object. Keep in mind that one object can have many uses. Separate your responses with a comma.",NA,"y",66939,NA,NA,1642,65282,NA,NA,NA,"watch, buy, sell, research, experiment, dissassemble, reassemble, replace, advertise, broadcast, relay information",1
"M20248455C.W.","pk318zpfgz","Affordance Norms_MSU_TEX",1,37,"2023-04-08T13:28:03+00:00",32.954290866852,22,"updated stim.csv","Version22.csv","Version 22","List 22","boomerang",NA,648,5.666666667,280,0.252502843,649,"BOI","-","-","Please name all of the ways you could use this object. Keep in mind that one object can have many uses. Separate your responses with a comma.",NA,"y",32471,NA,NA,1970,19185,NA,NA,NA,"buy, sell, throw, catch, weaponize, ",1
"M20248455C.W.","pk318zpfgz","Affordance Norms_MSU_TEX",1,38,"2023-04-08T13:28:59+00:00",56.005228996277,22,"updated stim.csv","Version22.csv","Version 22","List 22","mountainside",NA,635,4.708333333,1700,0.685106443,636,"BOI","-","-","Please name all of the ways you could use this object. Keep in mind that one object can have many uses. Separate your responses with a comma.",NA,"y",55513,NA,NA,8321,35345,NA,NA,NA,"process, live on, build on, farm on, observe, research, buy, sell, ",1
"M20248455C.W.","pk318zpfgz","Affordance Norms_MSU_TEX",1,39,"2023-04-08T13:29:39+00:00",40.585889101028,22,"updated stim.csv","Version22.csv","Version 22","List 22","rosebush",NA,654,5.333333333,2195,0.69052429,655,"BOI","-","-","Please name all of the ways you could use this object. Keep in mind that one object can have many uses. Separate your responses with a comma.",NA,"y",40087,NA,NA,4866,37385,NA,NA,NA,"grow, observe, buy, sell, display, harvest, collect, landscape, trim",1
"M20248455C.W.","pk318zpfgz","Affordance Norms_MSU_TEX",1,40,"2023-04-08T13:30:33+00:00",53.253221035004,22,"updated stim.csv","Version22.csv","Version 22","List 22","nightstick",NA,638,5.434782609,1774,0.995322937,639,"BOI","-","-","Please name all of the ways you could use this object. Keep in mind that one object can have many uses. Separate your responses with a comma.",NA,"y",52768,NA,NA,24638,41167,NA,NA,NA,"beat, intimidate, buy, sell, repurpose",1
"M20290865_PSJ","x9w8q2uugf","Affordance Norms_MSU_TEX",1,11,"2023-04-02T15:18:48+00:00",18.301617145538,15,"updated stim.csv","Version15.csv","Version 15","List 15","refrigerator",NA,435,5.851851852,2152,0.017631805,436,"BOI","-","-","Please name all of the ways you could use this object. Keep in mind that one object can have many uses. Separate your responses with a comma.",NA,"y",17918,NA,NA,2610,16200,NA,NA,NA,"to put foods, keep things cold,preserve perishables",1
"M20290865_PSJ","x9w8q2uugf","Affordance Norms_MSU_TEX",1,12,"2023-04-02T15:18:55+00:00",7.0776569843292,15,"updated stim.csv","Version15.csv","Version 15","List 15","keyboard",NA,445,6.08,1412,0.85415253,446,"BOI","-","-","Please name all of the ways you could use this object. Keep in mind that one object can have many uses. Separate your responses with a comma.",NA,"y",5996,NA,NA,2631,3725,NA,NA,NA,"typing",1
"M20290865_PSJ","x9w8q2uugf","Affordance Norms_MSU_TEX",1,13,"2023-04-02T15:19:07+00:00",11.712157011032,15,"updated stim.csv","Version15.csv","Version 15","List 15","money",NA,425,6.291666667,1677,0.69421982,426,"BOI","-","-","Please name all of the ways you could use this object. Keep in mind that one object can have many uses. Separate your responses with a comma.",NA,"y",11279,NA,NA,1622,10984,NA,NA,NA,"paying bills, buying food, helping the poor",1
"M20290865_PSJ","x9w8q2uugf","Affordance Norms_MSU_TEX",1,14,"2023-04-02T15:19:21+00:00",13.663187026978,15,"updated stim.csv","Version15.csv","Version 15","List 15","grandma",NA,448,5.769230769,1148,0.122398019,449,"BOI","-","-","Please name all of the ways you could use this object. Keep in mind that one object can have many uses. Separate your responses with a comma.",NA,"y",13260,NA,NA,4144,13034,NA,NA,NA,"watch after the kids,cook meals, ask for money ",1
"M20290865_PSJ","x9w8q2uugf","Affordance Norms_MSU_TEX",1,15,"2023-04-02T15:19:39+00:00",18.675596952438,15,"updated stim.csv","Version15.csv","Version 15","List 15","sibling",NA,424,5.04,2373,0.526230235,425,"BOI","-","-","Please name all of the ways you could use this object. Keep in mind that one object can have many uses. Separate your responses with a comma.",NA,"y",17982,NA,NA,4474,16691,NA,NA,NA,"drive you places, makes you miserable, buy you things",1
"M20290865_PSJ","x9w8q2uugf","Affordance Norms_MSU_TEX",1,16,"2023-04-02T15:19:54+00:00",14.734328985214,15,"updated stim.csv","Version15.csv","Version 15","List 15","newlyweds",NA,447,4.772727273,1754,0.905080051,448,"BOI","-","-","Please name all of the ways you could use this object. Keep in mind that one object can have many uses. Separate your responses with a comma.",NA,"y",14295,NA,NA,5726,11135,NA,NA,NA,"have a wedding party",1
"M20290865_PSJ","x9w8q2uugf","Affordance Norms_MSU_TEX",1,17,"2023-04-02T15:20:02+00:00",8.1268038749695,15,"updated stim.csv","Version15.csv","Version 15","List 15","cake",NA,440,6.086956522,399,0.792412943,441,"BOI","-","-","Please name all of the ways you could use this object. Keep in mind that one object can have many uses. Separate your responses with a comma.",NA,"y",7722,NA,NA,1646,4671,NA,NA,NA,"eating,feeding",1
"M20290865_PSJ","x9w8q2uugf","Affordance Norms_MSU_TEX",1,18,"2023-04-02T15:20:10+00:00",7.9848721027374,15,"updated stim.csv","Version15.csv","Version 15","List 15","pooch",NA,446,5.045454545,2031,0.306327361,447,"BOI","-","-","Please name all of the ways you could use this object. Keep in mind that one object can have many uses. Separate your responses with a comma.",NA,"y",7563,NA,NA,4671,7007,NA,NA,NA,"keep things n",1
"M20290865_PSJ","x9w8q2uugf","Affordance Norms_MSU_TEX",1,19,"2023-04-02T15:20:29+00:00",19.005235910416,15,"updated stim.csv","Version15.csv","Version 15","List 15","parachutist",NA,437,4.6,1869,0.022813055,438,"BOI","-","-","Please name all of the ways you could use this object. Keep in mind that one object can have many uses. Separate your responses with a comma.",NA,"y",16942,NA,NA,2804,15533,NA,NA,NA,"take you safely on the parachute",1
"M20290865_PSJ","x9w8q2uugf","Affordance Norms_MSU_TEX",1,20,"2023-04-02T15:20:52+00:00",22.192724943161,15,"updated stim.csv","Version15.csv","Version 15","List 15","cap",NA,427,5.826086957,422,0.328762048,428,"BOI","-","-","Please name all of the ways you could use this object. Keep in mind that one object can have many uses. Separate your responses with a comma.",NA,"y",14520,NA,NA,1715,14422,NA,NA,NA,"cover you head, protect you from the sun\",1
"M20290865_PSJ","x9w8q2uugf","Affordance Norms_MSU_TEX",1,21,"2023-04-02T15:21:06+00:00",14.427117109299,15,"updated stim.csv","Version15.csv","Version 15","List 15","slut",NA,433,4.652173913,2420,0.469760498,434,"BOI","-","-","Please name all of the ways you could use this object. Keep in mind that one object can have many uses. Separate your responses with a comma.",NA,"y",13235,NA,NA,10842,11253,NA,NA,NA,"sex",1
"M20290865_PSJ","x9w8q2uugf","Affordance Norms_MSU_TEX",1,22,"2023-04-02T15:21:14+00:00",7.9430999755859,15,"updated stim.csv","Version15.csv","Version 15","List 15","tongs",NA,449,5.826086957,2727,0.638758823,450,"BOI","-","-","Please name all of the ways you could use this object. Keep in mind that one object can have many uses. Separate your responses with a comma.",NA,"y",6472,NA,NA,2868,6303,NA,NA,NA,"pick up foods",1
"M20290865_PSJ","x9w8q2uugf","Affordance Norms_MSU_TEX",1,23,"2023-04-02T15:21:39+00:00",24.75204205513,15,"updated stim.csv","Version15.csv","Version 15","List 15","essay",NA,439,4.333333333,922,0.993576252,440,"BOI","-","-","Please name all of the ways you could use this object. Keep in mind that one object can have many uses. Separate your responses with a comma.",NA,"y",20516,NA,NA,2855,20070,NA,NA,NA,"to give opinions on a topic",1
"M20290865_PSJ","x9w8q2uugf","Affordance Norms_MSU_TEX",1,24,"2023-04-02T15:21:59+00:00",20.550472021103,15,"updated stim.csv","Version15.csv","Version 15","List 15","lifeboat",NA,443,5.333333333,1504,0.414036557,444,"BOI","-","-","Please name all of the ways you could use this object. Keep in mind that one object can have many uses. Separate your responses with a comma.",NA,"y",18919,NA,NA,1923,18645,NA,NA,NA,"keep you afloat on water, keeps you from drowning",1
"M20290865_PSJ","x9w8q2uugf","Affordance Norms_MSU_TEX",1,25,"2023-04-02T15:22:20+00:00",20.448336839676,15,"updated stim.csv","Version15.csv","Version 15","List 15","investigator",NA,422,4.888888889,1367,0.47461087,423,"BOI","-","-","Please name all of the ways you could use this object. Keep in mind that one object can have many uses. Separate your responses with a comma.",NA,"y",19429,NA,NA,2398,19246,NA,NA,NA,"finds out information, figures out the bad gy",1
"M20290865_PSJ","x9w8q2uugf","Affordance Norms_MSU_TEX",1,26,"2023-04-02T15:22:51+00:00",31.20706319809,15,"updated stim.csv","Version15.csv","Version 15","List 15","storekeeper",NA,442,4.75,2552,0.711529641,443,"BOI","-","-","Please name all of the ways you could use this object. Keep in mind that one object can have many uses. Separate your responses with a comma.",NA,"y",29926,NA,NA,2086,29264,NA,NA,NA,"watches over the stores, keeps items in the store neat and accessible, cashes out items, removes security tags",1
"M20290865_PSJ","x9w8q2uugf","Affordance Norms_MSU_TEX",1,27,"2023-04-02T15:23:06+00:00",15.05088186264,15,"updated stim.csv","Version15.csv","Version 15","List 15","teapot",NA,450,6.2,2649,0.536720356,451,"BOI","-","-","Please name all of the ways you could use this object. Keep in mind that one object can have many uses. Separate your responses with a comma.",NA,"y",11395,NA,NA,3344,5936,NA,NA,NA,"heats water",1
"M20290865_PSJ","x9w8q2uugf","Affordance Norms_MSU_TEX",1,28,"2023-04-02T15:23:28+00:00",22.565535068512,15,"updated stim.csv","Version15.csv","Version 15","List 15","trapeze",NA,428,4.958333333,2763,0.021755234,429,"BOI","-","-","Please name all of the ways you could use this object. Keep in mind that one object can have many uses. Separate your responses with a comma.",NA,"y",21781,NA,NA,19420,20863,NA,NA,NA,"swing on",0.789
"M20290865_PSJ","x9w8q2uugf","Affordance Norms_MSU_TEX",1,29,"2023-04-02T15:23:40+00:00",11.23810005188,15,"updated stim.csv","Version15.csv","Version 15","List 15","rod",NA,438,4.454545455,2185,0.868683002,439,"BOI","-","-","Please name all of the ways you could use this object. Keep in mind that one object can have many uses. Separate your responses with a comma.",NA,"y",8639,NA,NA,3613,8285,NA,NA,NA,"hang things on",1
"M20290865_PSJ","x9w8q2uugf","Affordance Norms_MSU_TEX",1,30,"2023-04-02T15:23:43+00:00",3.4875359535217,15,"updated stim.csv","Version15.csv","Version 15","List 15","burger",NA,444,6.111111111,365,0.030114514,445,"BOI","-","-","Please name all of the ways you could use this object. Keep in mind that one object can have many uses. Separate your responses with a comma.",NA,"y",3116,NA,NA,1687,2280,NA,NA,NA,"eat",1
"M20290865_PSJ","x9w8q2uugf","Affordance Norms_MSU_TEX",1,31,"2023-04-02T15:24:07+00:00",23.722012042999,15,"updated stim.csv","Version15.csv","Version 15","List 15","newsstand",NA,426,5.458333333,1764,0.165548754,427,"BOI","-","-","Please name all of the ways you could use this object. Keep in mind that one object can have many uses. Separate your responses with a comma.",NA,"y",17637,NA,NA,2217,17422,NA,NA,NA,"buys and sells newspapers ,sells snacks and drinks",1
"M20290865_PSJ","x9w8q2uugf","Affordance Norms_MSU_TEX",1,32,"2023-04-02T15:24:36+00:00",28.728042840958,15,"updated stim.csv","Version15.csv","Version 15","List 15","oceanographer",NA,430,4.44,1800,0.127937549,431,"BOI","-","-","Please name all of the ways you could use this object. Keep in mind that one object can have many uses. Separate your responses with a comma.",NA,"y",26937,NA,NA,14969,26713,NA,NA,NA,"studies plants and animals in a marine environment ",0.879
"M20290865_PSJ","x9w8q2uugf","Affordance Norms_MSU_TEX",1,33,"2023-04-02T15:24:53+00:00",17.167757987976,15,"updated stim.csv","Version15.csv","Version 15","List 15","sundeck",NA,421,4.5,2586,0.114183625,422,"BOI","-","-","Please name all of the ways you could use this object. Keep in mind that one object can have many uses. Separate your responses with a comma.",NA,"y",10385,NA,NA,3590,10064,NA,NA,NA,"open space to go relax",1
"M20290865_PSJ","x9w8q2uugf","Affordance Norms_MSU_TEX",1,34,"2023-04-02T15:25:16+00:00",23.019039154053,15,"updated stim.csv","Version15.csv","Version 15","List 15","claw",NA,423,4.391304348,550,0.085968356,424,"BOI","-","-","Please name all of the ways you could use this object. Keep in mind that one object can have many uses. Separate your responses with a comma.",NA,"y",21619,NA,NA,4098,21429,NA,NA,NA,"pick things up, scratch you, animals indicator if they are unsafe",1
"M20290865_PSJ","x9w8q2uugf","Affordance Norms_MSU_TEX",1,35,"2023-04-02T15:25:34+00:00",18.230741024017,15,"updated stim.csv","Version15.csv","Version 15","List 15","restaurant",NA,434,5.275862069,2159,0.75962687,435,"BOI","-","-","Please name all of the ways you could use this object. Keep in mind that one object can have many uses. Separate your responses with a comma.",NA,"y",13603,NA,NA,2705,12142,NA,NA,NA,"to eat food in, to buy food from, cooks",1
"M20290865_PSJ","x9w8q2uugf","Affordance Norms_MSU_TEX",1,36,"2023-04-02T15:26:11+00:00",36.881989002228,15,"updated stim.csv","Version15.csv","Version 15","List 15","thermometer",NA,429,5.56,2676,0.363619709,430,"BOI","-","-","Please name all of the ways you could use this object. Keep in mind that one object can have many uses. Separate your responses with a comma.",NA,"y",21172,NA,NA,1862,21065,NA,NA,NA,"takes your temperature, tests the temperature of food and water",1
"M20290865_PSJ","x9w8q2uugf","Affordance Norms_MSU_TEX",1,37,"2023-04-02T15:26:21+00:00",10.326812982559,15,"updated stim.csv","Version15.csv","Version 15","List 15","apartment",NA,431,4.6,55,0.282470897,432,"BOI","-","-","Please name all of the ways you could use this object. Keep in mind that one object can have many uses. Separate your responses with a comma.",NA,"y",5091,NA,NA,2202,3989,NA,NA,NA,"to live in",1
"M20290865_PSJ","x9w8q2uugf","Affordance Norms_MSU_TEX",1,38,"2023-04-02T15:26:37+00:00",15.611470937729,15,"updated stim.csv","Version15.csv","Version 15","List 15","corridor",NA,441,4.5,651,0.966954402,442,"BOI","-","-","Please name all of the ways you could use this object. Keep in mind that one object can have many uses. Separate your responses with a comma.",NA,"y",11402,NA,NA,3021,9982,NA,NA,NA,"to walk in, to keep shoes",1
"M20290865_PSJ","x9w8q2uugf","Affordance Norms_MSU_TEX",1,39,"2023-04-02T15:26:57+00:00",19.898844003677,15,"updated stim.csv","Version15.csv","Version 15","List 15","racket",NA,436,5.24,2120,0.111236528,437,"BOI","-","-","Please name all of the ways you could use this object. Keep in mind that one object can have many uses. Separate your responses with a comma.",NA,"y",15501,NA,NA,11859,15103,NA,NA,NA,"to hit balls with",0.868
"M20290865_PSJ","x9w8q2uugf","Affordance Norms_MSU_TEX",1,40,"2023-04-02T15:27:14+00:00",16.793478965759,15,"updated stim.csv","Version15.csv","Version 15","List 15","flounder",NA,432,4.52173913,1013,0.365858235,433,"BOI","-","-","Please name all of the ways you could use this object. Keep in mind that one object can have many uses. Separate your responses with a comma.",NA,"y",13934,NA,NA,3426,13619,NA,NA,NA,"a fish in the ecosystem",1
"M20301206MU","l7ibba2uco","Affordance Norms_MSU_TEX",1,11,"2023-04-11T18:56:49+00:00",42.511268138885,31,"updated stim.csv","Version31.csv","Version 31","List 31","mansions",NA,921,4.260869565,1594,0.475635847,922,"BOI","-","-","Please name all of the ways you could use this object. Keep in mind that one object can have many uses. Separate your responses with a comma.",NA,"y",42370,NA,NA,23697,39139,NA,NA,NA,"live, rent, paint, clean, events",1
"M20301206MU","l7ibba2uco","Affordance Norms_MSU_TEX",1,12,"2023-04-11T18:57:04+00:00",15.483458995819,31,"updated stim.csv","Version31.csv","Version 31","List 31","nightcaps",NA,903,4.708333333,1767,0.050096921,904,"BOI","-","-","Please name all of the ways you could use this object. Keep in mind that one object can have many uses. Separate your responses with a comma.",NA,"y",15248,NA,NA,4293,14367,NA,NA,NA,"sleep, rest, night, put on",1
"M20301206MU","l7ibba2uco","Affordance Norms_MSU_TEX",1,13,"2023-04-11T18:57:28+00:00",23.92774605751,31,"updated stim.csv","Version31.csv","Version 31","List 31","goatee",NA,917,4.375,1123,0.738463999,918,"BOI","-","-","Please name all of the ways you could use this object. Keep in mind that one object can have many uses. Separate your responses with a comma.",NA,"y",23779,NA,NA,9762,21510,NA,NA,NA,"cut, grow out, wear, shave, ",1
"M20301206MU","l7ibba2uco","Affordance Norms_MSU_TEX",1,14,"2023-04-11T18:57:58+00:00",30.047706842422,31,"updated stim.csv","Version31.csv","Version 31","List 31","pub",NA,922,4.666666667,2084,0.25952428,923,"BOI","-","-","Please name all of the ways you could use this object. Keep in mind that one object can have many uses. Separate your responses with a comma.",NA,"y",29896,NA,NA,13722,28340,NA,NA,NA,"drink, party, bar, friends",1
"M20301206MU","l7ibba2uco","Affordance Norms_MSU_TEX",1,15,"2023-04-11T18:58:13+00:00",15.220752000809,31,"updated stim.csv","Version31.csv","Version 31","List 31","latch",NA,910,5.541666667,1469,0.403713267,911,"BOI","-","-","Please name all of the ways you could use this object. Keep in mind that one object can have many uses. Separate your responses with a comma.",NA,"y",15017,NA,NA,6478,13976,NA,NA,NA,"hold on, stay with it",1
"M20301206MU","l7ibba2uco","Affordance Norms_MSU_TEX",1,16,"2023-04-11T18:58:30+00:00",16.833693981171,31,"updated stim.csv","Version31.csv","Version 31","List 31","drain",NA,907,4.291666667,836,0.644056443,908,"BOI","-","-","Please name all of the ways you could use this object. Keep in mind that one object can have many uses. Separate your responses with a comma.",NA,"y",16684,NA,NA,4186,14361,NA,NA,NA,"eptmy out",1
"M20301206MU","l7ibba2uco","Affordance Norms_MSU_TEX",1,17,"2023-04-11T18:58:55+00:00",25.139510154724,31,"updated stim.csv","Version31.csv","Version 31","List 31","sailcloth",NA,901,4.454545455,2217,0.406078443,902,"BOI","-","-","Please name all of the ways you could use this object. Keep in mind that one object can have many uses. Separate your responses with a comma.",NA,"y",24997,NA,NA,12409,23853,NA,NA,NA,"sail, cut, ride, wet, wind",1
"M20301206MU","l7ibba2uco","Affordance Norms_MSU_TEX",1,18,"2023-04-11T18:59:18+00:00",22.299315929413,31,"updated stim.csv","Version31.csv","Version 31","List 31","hairstyle",NA,911,4.68,1217,0.474140169,912,"BOI","-","-","Please name all of the ways you could use this object. Keep in mind that one object can have many uses. Separate your responses with a comma.",NA,"y",22146,NA,NA,4066,21063,NA,NA,NA,"parties, hair, style, wear, cut, culr, straithen",1
"M20301206MU","l7ibba2uco","Affordance Norms_MSU_TEX",1,19,"2023-04-11T18:59:32+00:00",14.358757019043,31,"updated stim.csv","Version31.csv","Version 31","List 31","daisy",NA,928,5,751,0.900654949,929,"BOI","-","-","Please name all of the ways you could use this object. Keep in mind that one object can have many uses. Separate your responses with a comma.",NA,"y",14214,NA,NA,1755,12959,NA,NA,NA,"flower, paint, wear, cut, give",1
"M20301206MU","l7ibba2uco","Affordance Norms_MSU_TEX",1,20,"2023-04-11T18:59:42+00:00",10.247297048569,31,"updated stim.csv","Version31.csv","Version 31","List 31","compressor",NA,923,4.5,615,0.466861581,924,"BOI","-","-","Please name all of the ways you could use this object. Keep in mind that one object can have many uses. Separate your responses with a comma.",NA,"y",10104,NA,NA,3960,7634,NA,NA,NA,"compose",1
"M20301206MU","l7ibba2uco","Affordance Norms_MSU_TEX",1,21,"2023-04-11T19:00:01+00:00",18.933223009109,31,"updated stim.csv","Version31.csv","Version 31","List 31","incubator",NA,912,4.291666667,1352,0.921173331,913,"BOI","-","-","Please name all of the ways you could use this object. Keep in mind that one object can have many uses. Separate your responses with a comma.",NA,"y",18720,NA,NA,15303,18043,NA,NA,NA,"hold together",1
"M20301206MU","l7ibba2uco","Affordance Norms_MSU_TEX",1,22,"2023-04-11T19:00:14+00:00",13.131549835205,31,"updated stim.csv","Version31.csv","Version 31","List 31","dentist",NA,925,5.038461538,775,0.139852212,926,"BOI","-","-","Please name all of the ways you could use this object. Keep in mind that one object can have many uses. Separate your responses with a comma.",NA,"y",12989,NA,NA,5233,6043,NA,NA,NA,"clean",1
"M20301206MU","l7ibba2uco","Affordance Norms_MSU_TEX",1,23,"2023-04-11T19:00:19+00:00",4.4400851726532,31,"updated stim.csv","Version31.csv","Version 31","List 31","folder",NA,916,6.260869565,1024,0.704916345,917,"BOI","-","-","Please name all of the ways you could use this object. Keep in mind that one object can have many uses. Separate your responses with a comma.",NA,"y",4308,NA,NA,2754,3351,NA,NA,NA,"hold",1
"M20301206MU","l7ibba2uco","Affordance Norms_MSU_TEX",1,24,"2023-04-11T19:00:51+00:00",32.142405986786,31,"updated stim.csv","Version31.csv","Version 31","List 31","chronometer",NA,930,4.5,539,0.284768844,931,"BOI","-","-","Please name all of the ways you could use this object. Keep in mind that one object can have many uses. Separate your responses with a comma.",NA,"y",31999,NA,NA,24675,31267,NA,NA,NA,"watch, time, space",1
"M20301206MU","l7ibba2uco","Affordance Norms_MSU_TEX",1,25,"2023-04-11T19:01:17+00:00",26.252437829971,31,"updated stim.csv","Version31.csv","Version 31","List 31","shrubbery",NA,904,4.653846154,2369,0.699361245,905,"BOI","-","-","Please name all of the ways you could use this object. Keep in mind that one object can have many uses. Separate your responses with a comma.",NA,"y",24836,NA,NA,12113,24043,NA,NA,NA,"cut, trim, short, fix",1
"M20301206MU","l7ibba2uco","Affordance Norms_MSU_TEX",1,26,"2023-04-11T19:01:28+00:00",10.852154016495,31,"updated stim.csv","Version31.csv","Version 31","List 31","dynamite",NA,926,5.260869565,874,0.78215374,927,"BOI","-","-","Please name all of the ways you could use this object. Keep in mind that one object can have many uses. Separate your responses with a comma.",NA,"y",10704,NA,NA,3935,9823,NA,NA,NA,"grow, susscue",1
"M20301206MU","l7ibba2uco","Affordance Norms_MSU_TEX",1,27,"2023-04-11T19:01:50+00:00",22.371723175049,31,"updated stim.csv","Version31.csv","Version 31","List 31","tie",NA,906,6.260869565,2694,0.276546396,907,"BOI","-","-","Please name all of the ways you could use this object. Keep in mind that one object can have many uses. Separate your responses with a comma.",NA,"y",22226,NA,NA,2434,21443,NA,NA,NA,"close, put together",1
"M20301206MU","l7ibba2uco","Affordance Norms_MSU_TEX",1,28,"2023-04-11T19:02:16+00:00",25.996996879578,31,"updated stim.csv","Version31.csv","Version 31","List 31","marmalade",NA,915,6.041666667,1610,0.374321308,916,"BOI","-","-","Please name all of the ways you could use this object. Keep in mind that one object can have many uses. Separate your responses with a comma.",NA,"y",25845,NA,NA,16822,25084,NA,NA,NA,"cut, ear, drink, mix",1
"M20301206MU","l7ibba2uco","Affordance Norms_MSU_TEX",1,29,"2023-04-11T19:02:31+00:00",14.84668803215,31,"updated stim.csv","Version31.csv","Version 31","List 31","memo",NA,927,5.04,1642,0.10302145,928,"BOI","-","-","Please name all of the ways you could use this object. Keep in mind that one object can have many uses. Separate your responses with a comma.",NA,"y",14701,NA,NA,4142,13237,NA,NA,NA,"clue, saying, statement",1
"M20301206MU","l7ibba2uco","Affordance Norms_MSU_TEX",1,30,"2023-04-11T19:02:50+00:00",18.999154090881,31,"updated stim.csv","Version31.csv","Version 31","List 31","prop",NA,918,5.125,2074,0.316932676,919,"BOI","-","-","Please name all of the ways you could use this object. Keep in mind that one object can have many uses. Separate your responses with a comma.",NA,"y",18849,NA,NA,4009,17217,NA,NA,NA,"thing, object",1
"M20301206MU","l7ibba2uco","Affordance Norms_MSU_TEX",1,31,"2023-04-11T19:03:42+00:00",51.533808946609,31,"updated stim.csv","Version31.csv","Version 31","List 31","wing",NA,905,4.48,2949,0.673392846,906,"BOI","-","-","Please name all of the ways you could use this object. Keep in mind that one object can have many uses. Separate your responses with a comma.",NA,"y",51379,NA,NA,34930,50448,NA,NA,NA,"fly, eat, cook, mix, draw",1
"M20301206MU","l7ibba2uco","Affordance Norms_MSU_TEX",1,32,"2023-04-11T19:03:55+00:00",12.781386852264,31,"updated stim.csv","Version31.csv","Version 31","List 31","crossword",NA,920,4.555555556,707,0.583325766,921,"BOI","-","-","Please name all of the ways you could use this object. Keep in mind that one object can have many uses. Separate your responses with a comma.",NA,"y",12593,NA,NA,3261,11768,NA,NA,NA,"game, brain",1
"M20301206MU","l7ibba2uco","Affordance Norms_MSU_TEX",1,33,"2023-04-11T19:04:14+00:00",19.618566989899,31,"updated stim.csv","Version31.csv","Version 31","List 31","worm",NA,919,4.681818182,2975,0.797543421,920,"BOI","-","-","Please name all of the ways you could use this object. Keep in mind that one object can have many uses. Separate your responses with a comma.",NA,"y",19476,NA,NA,4007,18725,NA,NA,NA,"cut, eat, drink, feed, step on",1
"M20301206MU","l7ibba2uco","Affordance Norms_MSU_TEX",1,34,"2023-04-11T19:04:30+00:00",15.625564098358,31,"updated stim.csv","Version31.csv","Version 31","List 31","gravel",NA,914,5.461538462,1164,0.895035474,915,"BOI","-","-","Please name all of the ways you could use this object. Keep in mind that one object can have many uses. Separate your responses with a comma.",NA,"y",15479,NA,NA,2245,14772,NA,NA,NA,"drive on, make, cut, shape",1
"M20301206MU","l7ibba2uco","Affordance Norms_MSU_TEX",1,35,"2023-04-11T19:05:03+00:00",33.136893987656,31,"updated stim.csv","Version31.csv","Version 31","List 31","theologian",NA,913,4.47826087,2674,0.353924439,914,"BOI","-","-","Please name all of the ways you could use this object. Keep in mind that one object can have many uses. Separate your responses with a comma.",NA,"y",32952,NA,NA,25121,32138,NA,NA,NA,"engages, learn",1
"M20301206MU","l7ibba2uco","Affordance Norms_MSU_TEX",1,36,"2023-04-11T19:05:18+00:00",15.039041996002,31,"updated stim.csv","Version31.csv","Version 31","List 31","fiddle",NA,929,6.043478261,970,0.5122889,930,"BOI","-","-","Please name all of the ways you could use this object. Keep in mind that one object can have many uses. Separate your responses with a comma.",NA,"y",14846,NA,NA,2430,13938,NA,NA,NA,"miss with, bored, mix, write, create",1
"M20301206MU","l7ibba2uco","Affordance Norms_MSU_TEX",1,37,"2023-04-11T19:05:50+00:00",31.855726957321,31,"updated stim.csv","Version31.csv","Version 31","List 31","hurdle",NA,908,4.36,1337,0.835252702,909,"BOI","-","-","Please name all of the ways you could use this object. Keep in mind that one object can have many uses. Separate your responses with a comma.",NA,"y",31709,NA,NA,1615,29504,NA,NA,NA,"jump, rum, stomp, stop, trip, jog, sprint, walk",1
"M20301206MU","l7ibba2uco","Affordance Norms_MSU_TEX",1,38,"2023-04-11T19:06:17+00:00",27.548463106155,31,"updated stim.csv","Version31.csv","Version 31","List 31","outfit",NA,924,6.130434783,1828,0.398220856,925,"BOI","-","-","Please name all of the ways you could use this object. Keep in mind that one object can have many uses. Separate your responses with a comma.",NA,"y",27404,NA,NA,1555,26795,NA,NA,NA,"wear, plan, make, draw, cut, take, picture, make",1
"M20301206MU","l7ibba2uco","Affordance Norms_MSU_TEX",1,39,"2023-04-11T19:06:32+00:00",14.606212854385,31,"updated stim.csv","Version31.csv","Version 31","List 31","repairer",NA,902,4.583333333,2155,0.34044344,903,"BOI","-","-","Please name all of the ways you could use this object. Keep in mind that one object can have many uses. Separate your responses with a comma.",NA,"y",14462,NA,NA,2551,11741,NA,NA,NA,"fix, make, redo, ",1
"M20301206MU","l7ibba2uco","Affordance Norms_MSU_TEX",1,40,"2023-04-11T19:08:14+00:00",101.75063610077,31,"updated stim.csv","Version31.csv","Version 31","List 31","warden",NA,909,4.434782609,2893,0.782765752,910,"BOI","-","-","Please name all of the ways you could use this object. Keep in mind that one object can have many uses. Separate your responses with a comma.",NA,"y",101536,NA,NA,98591,99740,NA,NA,NA,"wear",1
"M20302550_bc","gp39g93dmf","Affordance Norms_MSU_TEX",1,11,"2023-04-11T22:56:04+00:00",39.515469074249,36,"updated stim.csv","Version36.csv","Version 36","List 36","screwdriver",NA,1069,6.52173913,2287,0.220320709,1070,"BOI","-","-","Please name all of the ways you could use this object. Keep in mind that one object can have many uses. Separate your responses with a comma.",NA,"y",38625,NA,NA,4543,37462,NA,NA,NA,"work, walls, furniture, toys, tools, building",1
"M20302550_bc","gp39g93dmf","Affordance Norms_MSU_TEX",1,12,"2023-04-11T22:56:41+00:00",37.484941005707,36,"updated stim.csv","Version36.csv","Version 36","List 36","harmonica",NA,1061,6.416666667,1251,0.845063225,1062,"BOI","-","-","Please name all of the ways you could use this object. Keep in mind that one object can have many uses. Separate your responses with a comma.",NA,"y",36192,NA,NA,2951,34929,NA,NA,NA,"music, calm,sound, teaching, entertainment",1
"M20302550_bc","gp39g93dmf","Affordance Norms_MSU_TEX",1,13,"2023-04-11T22:57:15+00:00",33.352193832397,36,"updated stim.csv","Version36.csv","Version 36","List 36","teardrop",NA,1064,4.695652174,2651,0.380138083,1065,"BOI","-","-","Please name all of the ways you could use this object. Keep in mind that one object can have many uses. Separate your responses with a comma.",NA,"y",32236,NA,NA,2121,31013,NA,NA,NA,"sad, meaning, pain, frustration, baby",1
"M20302550_bc","gp39g93dmf","Affordance Norms_MSU_TEX",1,14,"2023-04-11T22:57:47+00:00",32.467158079147,36,"updated stim.csv","Version36.csv","Version 36","List 36","vitamins",NA,1077,5.12,2870,0.952358959,1078,"BOI","-","-","Please name all of the ways you could use this object. Keep in mind that one object can have many uses. Separate your responses with a comma.",NA,"y",31209,NA,NA,1819,28635,NA,NA,NA,"growth, health, ate, made",1
"M20302550_bc","gp39g93dmf","Affordance Norms_MSU_TEX",1,15,"2023-04-11T22:58:30+00:00",43.291240930557,36,"updated stim.csv","Version36.csv","Version 36","List 36","telescope",NA,1059,5.916666667,2659,0.548611427,1060,"BOI","-","-","Please name all of the ways you could use this object. Keep in mind that one object can have many uses. Separate your responses with a comma.",NA,"y",41802,NA,NA,1748,38896,NA,NA,NA,"sight,learning, gazing, sky, starts, planets, cells,",1
"M20302550_bc","gp39g93dmf","Affordance Norms_MSU_TEX",1,16,"2023-04-11T22:59:10+00:00",39.566118001938,36,"updated stim.csv","Version36.csv","Version 36","List 36","woodshed",NA,1051,5.25,2964,0.210010171,1052,"BOI","-","-","Please name all of the ways you could use this object. Keep in mind that one object can have many uses. Separate your responses with a comma.",NA,"y",38285,NA,NA,3027,18554,NA,NA,NA,"storage, shelter, tools, dads, ",1
"M20302550_bc","gp39g93dmf","Affordance Norms_MSU_TEX",1,17,"2023-04-11T22:59:42+00:00",31.686499118805,36,"updated stim.csv","Version36.csv","Version 36","List 36","llama",NA,1054,4.75,1530,0.940050955,1055,"BOI","-","-","Please name all of the ways you could use this object. Keep in mind that one object can have many uses. Separate your responses with a comma.",NA,"y",30675,NA,NA,2732,28040,NA,NA,NA,"animal,rides, transport, skin",1
"M20302550_bc","gp39g93dmf","Affordance Norms_MSU_TEX",1,18,"2023-04-11T22:59:45+00:00",3.6777379512787,36,"updated stim.csv","Version36.csv","Version 36","List 36","flashbulb",NA,1076,4.375,1001,0.629683234,1077,"BOI","-","-","Please name all of the ways you could use this object. Keep in mind that one object can have many uses. Separate your responses with a comma.",NA,"y",2548,NA,NA,-1,-1,NA,NA,NA,"",1
"M20302550_bc","gp39g93dmf","Affordance Norms_MSU_TEX",1,19,"2023-04-11T23:00:03+00:00",17.615839004517,36,"updated stim.csv","Version36.csv","Version 36","List 36","mentor",NA,1053,4.347826087,1645,0.570505968,1054,"BOI","-","-","Please name all of the ways you could use this object. Keep in mind that one object can have many uses. Separate your responses with a comma.",NA,"y",16749,NA,NA,1867,15617,NA,NA,NA,"help, study, guide, happy, sad",1
"M20302550_bc","gp39g93dmf","Affordance Norms_MSU_TEX",1,20,"2023-04-11T23:00:18+00:00",15.019916057587,36,"updated stim.csv","Version36.csv","Version 36","List 36","lambskin",NA,1055,4.416666667,1454,0.690896227,1056,"BOI","-","-","Please name all of the ways you could use this object. Keep in mind that one object can have many uses. Separate your responses with a comma.",NA,"y",13896,NA,NA,6270,9588,NA,NA,NA,"wool,skin,",1
"M20302550_bc","gp39g93dmf","Affordance Norms_MSU_TEX",1,21,"2023-04-11T23:00:59+00:00",41.324148893356,36,"updated stim.csv","Version36.csv","Version 36","List 36","manicure",NA,1080,4.730769231,1590,0.1995438,1081,"BOI","-","-","Please name all of the ways you could use this object. Keep in mind that one object can have many uses. Separate your responses with a comma.",NA,"y",40208,NA,NA,7300,38915,NA,NA,NA,"selfcare,model,pretty, events, money",1
"M20302550_bc","gp39g93dmf","Affordance Norms_MSU_TEX",1,22,"2023-04-11T23:01:22+00:00",22.782238006592,36,"updated stim.csv","Version36.csv","Version 36","List 36","ornament",NA,1062,6.181818182,1823,0.998707225,1063,"BOI","-","-","Please name all of the ways you could use this object. Keep in mind that one object can have many uses. Separate your responses with a comma.",NA,"y",21680,NA,NA,1705,20129,NA,NA,NA,"decor, christmas, memory, meaning, kids,family,cold",1
"M20302550_bc","gp39g93dmf","Affordance Norms_MSU_TEX",1,23,"2023-04-11T23:01:51+00:00",28.592346906662,36,"updated stim.csv","Version36.csv","Version 36","List 36","beagle",NA,1075,5.2,179,0.616805077,1076,"BOI","-","-","Please name all of the ways you could use this object. Keep in mind that one object can have many uses. Separate your responses with a comma.",NA,"y",27495,NA,NA,3121,12184,NA,NA,NA,"ate,aesthetic",1
"M20302550_bc","gp39g93dmf","Affordance Norms_MSU_TEX",1,24,"2023-04-11T23:02:16+00:00",24.922085046768,36,"updated stim.csv","Version36.csv","Version 36","List 36","rain",NA,1067,4.958333333,2129,0.893890864,1068,"BOI","-","-","Please name all of the ways you could use this object. Keep in mind that one object can have many uses. Separate your responses with a comma.",NA,"y",23652,NA,NA,2352,22667,NA,NA,NA,"water,thunder,weather",1
"M20302550_bc","gp39g93dmf","Affordance Norms_MSU_TEX",1,25,"2023-04-11T23:02:46+00:00",30.693742990494,36,"updated stim.csv","Version36.csv","Version 36","List 36","motorcycle",NA,1066,5.555555556,1696,0.62938025,1067,"BOI","-","-","Please name all of the ways you could use this object. Keep in mind that one object can have many uses. Separate your responses with a comma.",NA,"y",29510,NA,NA,2784,28478,NA,NA,NA,"trasportation, cool, dangerous, fast, small ",1
"M20302550_bc","gp39g93dmf","Affordance Norms_MSU_TEX",1,26,"2023-04-11T23:03:24+00:00",38.139379024506,36,"updated stim.csv","Version36.csv","Version 36","List 36","male",NA,1057,5.5,1581,0.27446193,1058,"BOI","-","-","Please name all of the ways you could use this object. Keep in mind that one object can have many uses. Separate your responses with a comma.",NA,"y",36922,NA,NA,4278,30881,NA,NA,NA,"bad, fathers, brothers, organism, work",1
"M20302550_bc","gp39g93dmf","Affordance Norms_MSU_TEX",1,27,"2023-04-11T23:03:30+00:00",5.5053811073303,36,"updated stim.csv","Version36.csv","Version 36","List 36","leftovers",NA,1070,5.625,1485,0.349934709,1071,"BOI","-","-","Please name all of the ways you could use this object. Keep in mind that one object can have many uses. Separate your responses with a comma.",NA,"y",4074,NA,NA,-1,-1,NA,NA,NA,"",1
"M20302550_bc","gp39g93dmf","Affordance Norms_MSU_TEX",1,28,"2023-04-11T23:04:03+00:00",32.602608919144,36,"updated stim.csv","Version36.csv","Version 36","List 36","saltshaker",NA,1058,6,2228,0.087603339,1059,"BOI","-","-","Please name all of the ways you could use this object. Keep in mind that one object can have many uses. Separate your responses with a comma.",NA,"y",31543,NA,NA,4646,30576,NA,NA,NA,"flavor, season, spreads salt, fair amount",1
"M20302550_bc","gp39g93dmf","Affordance Norms_MSU_TEX",1,29,"2023-04-11T23:04:05+00:00",2.8573451042175,36,"updated stim.csv","Version36.csv","Version 36","List 36","switchboard",NA,1074,4.777777778,2610,0.925747236,1075,"BOI","-","-","Please name all of the ways you could use this object. Keep in mind that one object can have many uses. Separate your responses with a comma.",NA,"y",1694,NA,NA,-1,-1,NA,NA,NA,"",1
"M20302550_bc","gp39g93dmf","Affordance Norms_MSU_TEX",1,30,"2023-04-11T23:04:32+00:00",26.868036985397,36,"updated stim.csv","Version36.csv","Version 36","List 36","engine",NA,1065,5.333333333,908,0.128914388,1066,"BOI","-","-","Please name all of the ways you could use this object. Keep in mind that one object can have many uses. Separate your responses with a comma.",NA,"y",25983,NA,NA,1845,23591,NA,NA,NA,"car, boat, computer",1
"M20302550_bc","gp39g93dmf","Affordance Norms_MSU_TEX",1,31,"2023-04-11T23:04:54+00:00",21.489264965057,36,"updated stim.csv","Version36.csv","Version 36","List 36","houseboat",NA,1071,4.956521739,1327,0.078689969,1072,"BOI","-","-","Please name all of the ways you could use this object. Keep in mind that one object can have many uses. Separate your responses with a comma.",NA,"y",20597,NA,NA,3240,19594,NA,NA,NA,"living, enviroment, travel",1
"M20302550_bc","gp39g93dmf","Affordance Norms_MSU_TEX",1,32,"2023-04-11T23:05:27+00:00",32.937414884567,36,"updated stim.csv","Version36.csv","Version 36","List 36","drugstore",NA,1079,5.260869565,853,0.581825983,1080,"BOI","-","-","Please name all of the ways you could use this object. Keep in mind that one object can have many uses. Separate your responses with a comma.",NA,"y",31894,NA,NA,6528,23511,NA,NA,NA,"drugs, foods, utilities, utensils",1
"M20302550_bc","gp39g93dmf","Affordance Norms_MSU_TEX",1,33,"2023-04-11T23:05:31+00:00",4.2645859718323,36,"updated stim.csv","Version36.csv","Version 36","List 36","evergreen",NA,1078,4.444444444,923,0.294521341,1079,"BOI","-","-","Please name all of the ways you could use this object. Keep in mind that one object can have many uses. Separate your responses with a comma.",NA,"y",3222,NA,NA,-1,-1,NA,NA,NA,"",1
"M20302550_bc","gp39g93dmf","Affordance Norms_MSU_TEX",1,34,"2023-04-11T23:06:02+00:00",30.98387503624,36,"updated stim.csv","Version36.csv","Version 36","List 36","barber",NA,1060,4.958333333,147,0.779479627,1061,"BOI","-","-","Please name all of the ways you could use this object. Keep in mind that one object can have many uses. Separate your responses with a comma.",NA,"y",30134,NA,NA,2580,28351,NA,NA,NA,"appearance, self care, money, males",1
"M20302550_bc","gp39g93dmf","Affordance Norms_MSU_TEX",1,35,"2023-04-11T23:06:18+00:00",16.05476808548,36,"updated stim.csv","Version36.csv","Version 36","List 36","edibles",NA,1063,5.428571429,888,0.341038926,1064,"BOI","-","-","Please name all of the ways you could use this object. Keep in mind that one object can have many uses. Separate your responses with a comma.",NA,"y",15141,NA,NA,2738,14028,NA,NA,NA,"food, snacks, safe",1
"M20302550_bc","gp39g93dmf","Affordance Norms_MSU_TEX",1,36,"2023-04-11T23:06:46+00:00",27.944612026215,36,"updated stim.csv","Version36.csv","Version 36","List 36","curler",NA,1068,4.454545455,730,0.741093099,1069,"BOI","-","-","Please name all of the ways you could use this object. Keep in mind that one object can have many uses. Separate your responses with a comma.",NA,"y",26915,NA,NA,5697,21582,NA,NA,NA,"hair curler, appearance, gym curler",1
"M20302550_bc","gp39g93dmf","Affordance Norms_MSU_TEX",1,37,"2023-04-11T23:07:26+00:00",39.864773035049,36,"updated stim.csv","Version36.csv","Version 36","List 36","tombstone",NA,1072,5.043478261,2725,0.273275065,1073,"BOI","-","-","Please name all of the ways you could use this object. Keep in mind that one object can have many uses. Separate your responses with a comma.",NA,"y",38714,NA,NA,1563,37646,NA,NA,NA,"death, remembrance, statement, loved,recognized ",1
"M20302550_bc","gp39g93dmf","Affordance Norms_MSU_TEX",1,38,"2023-04-11T23:07:29+00:00",2.9061989784241,36,"updated stim.csv","Version36.csv","Version 36","List 36","ductwork",NA,1056,4.52173913,862,0.409527308,1057,"BOI","-","-","Please name all of the ways you could use this object. Keep in mind that one object can have many uses. Separate your responses with a comma.",NA,"y",1620,NA,NA,-1,-1,NA,NA,NA,"",1
"M20302550_bc","gp39g93dmf","Affordance Norms_MSU_TEX",1,39,"2023-04-11T23:07:45+00:00",15.892449855804,36,"updated stim.csv","Version36.csv","Version 36","List 36","laxative",NA,1052,5.206896552,1476,0.827402237,1053,"BOI","-","-","Please name all of the ways you could use this object. Keep in mind that one object can have many uses. Separate your responses with a comma.",NA,"y",14764,NA,NA,1378,13742,NA,NA,NA,"poop, clears body, digest",1
"M20302550_bc","gp39g93dmf","Affordance Norms_MSU_TEX",1,40,"2023-04-11T23:07:48+00:00",3.3973751068115,36,"updated stim.csv","Version36.csv","Version 36","List 36","alfalfa",NA,1073,5.045454545,26,0.1332912,1074,"BOI","-","-","Please name all of the ways you could use this object. Keep in mind that one object can have many uses. Separate your responses with a comma.",NA,"y",2428,NA,NA,-1,-1,NA,NA,NA,"",1
"M20302779SB","sh4v2u1uay","Affordance Norms_MSU_TEX",1,11,"2023-04-11T04:19:17+00:00",24.166834115982,28,"updated stim.csv","Version28.csv","Version 28","List 28","player",NA,836,4.72,1999,0.968261434,837,"BOI","-","-","Please name all of the ways you could use this object. Keep in mind that one object can have many uses. Separate your responses with a comma.",NA,"y",23111,NA,NA,8619,21817,NA,NA,NA,"move, play with, control",1
"M20302779SB","sh4v2u1uay","Affordance Norms_MSU_TEX",1,12,"2023-04-11T04:19:39+00:00",21.651495933533,28,"updated stim.csv","Version28.csv","Version 28","List 28","traveller",NA,832,4.5,2767,0.757322796,833,"BOI","-","-","Please name all of the ways you could use this object. Keep in mind that one object can have many uses. Separate your responses with a comma.",NA,"y",20384,NA,NA,5494,20101,NA,NA,NA,"walk, explore, view",1
"M20302779SB","sh4v2u1uay","Affordance Norms_MSU_TEX",1,13,"2023-04-11T04:19:57+00:00",18.803308010101,28,"updated stim.csv","Version28.csv","Version 28","List 28","shorts",NA,828,6.04,2359,0.973765651,829,"BOI","-","-","Please name all of the ways you could use this object. Keep in mind that one object can have many uses. Separate your responses with a comma.",NA,"y",17221,NA,NA,2301,15282,NA,NA,NA,"wear",1
"M20302779SB","sh4v2u1uay","Affordance Norms_MSU_TEX",1,14,"2023-04-11T04:20:12+00:00",14.471884965897,28,"updated stim.csv","Version28.csv","Version 28","List 28","snowball",NA,825,5.5,2431,0.143942854,826,"BOI","-","-","Please name all of the ways you could use this object. Keep in mind that one object can have many uses. Separate your responses with a comma.",NA,"y",13090,NA,NA,1908,12579,NA,NA,NA,"throw, eat, break",1
"M20302779SB","sh4v2u1uay","Affordance Norms_MSU_TEX",1,15,"2023-04-11T04:20:25+00:00",12.945446014404,28,"updated stim.csv","Version28.csv","Version 28","List 28","inspector",NA,815,4.391304348,1359,0.242268193,816,"BOI","-","-","Please name all of the ways you could use this object. Keep in mind that one object can have many uses. Separate your responses with a comma.",NA,"y",11576,NA,NA,6155,11222,NA,NA,NA,"watch, view",1
"M20302779SB","sh4v2u1uay","Affordance Norms_MSU_TEX",1,16,"2023-04-11T04:20:42+00:00",17.183626174927,28,"updated stim.csv","Version28.csv","Version 28","List 28","shipmate",NA,817,4.72,2345,0.774354107,818,"BOI","-","-","Please name all of the ways you could use this object. Keep in mind that one object can have many uses. Separate your responses with a comma.",NA,"y",15876,NA,NA,4497,15050,NA,NA,NA,"talk, co-operate",1
"M20302779SB","sh4v2u1uay","Affordance Norms_MSU_TEX",1,17,"2023-04-11T04:20:55+00:00",13.057635784149,28,"updated stim.csv","Version28.csv","Version 28","List 28","liquid",NA,824,5.260869565,1524,0.321872939,825,"BOI","-","-","Please name all of the ways you could use this object. Keep in mind that one object can have many uses. Separate your responses with a comma.",NA,"y",11867,NA,NA,2309,11344,NA,NA,NA,"drink, pour, splash",1
"M20302779SB","sh4v2u1uay","Affordance Norms_MSU_TEX",1,18,"2023-04-11T04:21:11+00:00",16.020867109299,28,"updated stim.csv","Version28.csv","Version 28","List 28","spoon",NA,834,6.115384615,2482,0.213167636,835,"BOI","-","-","Please name all of the ways you could use this object. Keep in mind that one object can have many uses. Separate your responses with a comma.",NA,"y",14575,NA,NA,3855,12898,NA,NA,NA,"scoop, stir",1
"M20302779SB","sh4v2u1uay","Affordance Norms_MSU_TEX",1,19,"2023-04-11T04:21:32+00:00",21.330827951431,28,"updated stim.csv","Version28.csv","Version 28","List 28","cuticle",NA,827,5.08,737,0.981420344,828,"BOI","-","-","Please name all of the ways you could use this object. Keep in mind that one object can have many uses. Separate your responses with a comma.",NA,"y",20040,NA,NA,16263,16835,NA,NA,NA,"cut",1
