Username,Trial,Condition.Number,Condition.Notes,Stimuli.Cue,Procedure.Item,Response.RT,Response.RTfirst,Response.RTlast,affordance,affordance_corrected,POS,Lemma
10012878_CL,11,2,List 2,undergarment,59,46282,2552,29816,wearing,wearing,VBG,wear
10012878_CL,11,2,List 2,undergarment,59,46282,2552,29816,throwing,throwing,VBG,throw
10012878_CL,11,2,List 2,undergarment,59,46282,2552,29816,fashion,fashion,NN,fashion
10012878_CL,11,2,List 2,undergarment,59,46282,2552,29816,coverage,coverage,NN,coverage
10012878_CL,11,2,List 2,undergarment,59,46282,2552,29816,attention,attention,NN,attention
10012878_CL,12,2,List 2,assemblyman,60,36999,3300,22327,construction,construction,NN,construction
10012878_CL,12,2,List 2,assemblyman,60,36999,3300,22327,assistance,assistance,NN,assistance
10012878_CL,12,2,List 2,assemblyman,60,36999,3300,22327,work,work,NN,work
10012878_CL,13,2,List 2,trap,58,26276,5017,10520,opening,opening,VBG,open
10012878_CL,13,2,List 2,trap,58,26276,5017,10520,closing,closing,VBG,close
10012878_CL,13,2,List 2,trap,58,26276,5017,10520,tricking,tricking,VBG,trick
10012878_CL,14,2,List 2,lettuce,34,24155,2118,22202,salad,salad,JJ,salad
10012878_CL,14,2,List 2,lettuce,34,24155,2118,22202,food,food,NN,food
10012878_CL,14,2,List 2,lettuce,34,24155,2118,22202,cooking,cooking,VBG,cook
10012878_CL,14,2,List 2,lettuce,34,24155,2118,22202,feed,feed,NN,feed
10012878_CL,14,2,List 2,lettuce,34,24155,2118,22202,tossing,tossing,VBG,toss
10012878_CL,15,2,List 2,courtyard,32,45778,2611,11453,viewing,viewing,VBG,view
10012878_CL,15,2,List 2,courtyard,32,45778,2611,11453,relaxing,relaxing,VBG,relax
10012878_CL,16,2,List 2,godmother,47,15972,1974,14738,talking,talking,VBG,talk
10012878_CL,16,2,List 2,godmother,47,15972,1974,14738,asking,asking,VBG,ask
10012878_CL,16,2,List 2,godmother,47,15972,1974,14738,cooking,cooking,VBG,cook
10012878_CL,16,2,List 2,godmother,47,15972,1974,14738,parenting,parenting,VBG,parent
10012878_CL,17,2,List 2,skittles,39,20662,2281,19370,eating,eating,VBG,eat
10012878_CL,17,2,List 2,skittles,39,20662,2281,19370,art,art,JJ,art
10012878_CL,17,2,List 2,skittles,39,20662,2281,19370,satisfaction,satisfaction,NN,satisfaction
10012878_CL,18,2,List 2,mice,48,27840,1581,26627,experiments,experiments,NNS,experiment
10012878_CL,18,2,List 2,mice,48,27840,1581,26627,feed,feed,VBP,fee
10012878_CL,18,2,List 2,mice,48,27840,1581,26627,entertainment,entertainment,NN,entertainment
10012878_CL,19,2,List 2,barman,40,11157,1690,10027,drinks,drinks,NNS,drink
10012878_CL,19,2,List 2,barman,40,11157,1690,10027,mixing,mixing,VBG,mix
10012878_CL,19,2,List 2,barman,40,11157,1690,10027,conversation,conversation,NN,conversation
10012878_CL,20,2,List 2,coverall,51,17503,5015,16482,coverage,coverage,NN,coverage
10012878_CL,20,2,List 2,coverall,51,17503,5015,16482,fashion,fashion,NN,fashion
10012878_CL,20,2,List 2,coverall,51,17503,5015,16482,clothing,clothing,NN,clothing
10012878_CL,21,2,List 2,satchel,37,13891,1962,12488,fashion,fashion,NN,fashion
10012878_CL,21,2,List 2,satchel,37,13891,1962,12488,carrying,carrying,VBG,carry
10012878_CL,21,2,List 2,satchel,37,13891,1962,12488,holding,holding,VBG,hold
10012878_CL,22,2,List 2,goalpost,38,11187,3386,10224,scoring,scoring,VBG,score
10012878_CL,22,2,List 2,goalpost,38,11187,3386,10224,sports,sports,NNS,sport
10012878_CL,22,2,List 2,goalpost,38,11187,3386,10224,catching,catching,VBG,catch
10012878_CL,23,2,List 2,hotplate,46,17529,2273,4699,warming,warming,VBG,warm
10012878_CL,23,2,List 2,hotplate,46,17529,2273,4699,food,food,NN,food
10012878_CL,24,2,List 2,blower,54,19770,2976,18475,blowing,blowing,VBG,blow
10012878_CL,24,2,List 2,blower,54,19770,2976,18475,assistance,assistance,NN,assistance
10012878_CL,25,2,List 2,yogurt,50,10184,1620,9089,consumption,consumption,NN,consumption
10012878_CL,25,2,List 2,yogurt,50,10184,1620,9089,food,food,NN,food
10012878_CL,25,2,List 2,yogurt,50,10184,1620,9089,hunger,hunger,NN,hunger
10012878_CL,26,2,List 2,teabag,43,14432,1777,13346,mixing,mixing,VBG,mix
10012878_CL,26,2,List 2,teabag,43,14432,1777,13346,making,making,VBG,make
10012878_CL,26,2,List 2,teabag,43,14432,1777,13346,tea,tea,JJ,tea
10012878_CL,26,2,List 2,teabag,43,14432,1777,13346,drink,drink,NN,drink
10012878_CL,27,2,List 2,gondola,53,30249,6148,29227,viewing,viewing,VBG,view
10012878_CL,27,2,List 2,gondola,53,30249,6148,29227,entertainment,entertainment,NN,entertainment
10012878_CL,27,2,List 2,gondola,53,30249,6148,29227,privacy,privacy,NN,privacy
10012878_CL,27,2,List 2,gondola,53,30249,6148,29227,relaxing,relaxing,VBG,relax
10012878_CL,27,2,List 2,gondola,53,30249,6148,29227,fun,fun,JJ,fun
10012878_CL,27,2,List 2,gondola,53,30249,6148,29227,vacation,vacation,NN,vacation
10012878_CL,28,2,List 2,antibiotics,56,16197,1627,15134,medicine,medicine,NN,medicine
10012878_CL,28,2,List 2,antibiotics,56,16197,1627,15134,treatment,treatment,NN,treatment
10012878_CL,28,2,List 2,antibiotics,56,16197,1627,15134,illnesses,illnesses,VBZ,illnesses
10012878_CL,28,2,List 2,antibiotics,56,16197,1627,15134,curing,curing,VBG,cure
10012878_CL,29,2,List 2,tripe,57,47141,40718,46054,consuming,consuming,VBG,consume
10012878_CL,29,2,List 2,tripe,57,47141,40718,46054,eating,eating,VBG,eat
10012878_CL,30,2,List 2,dolphin,49,14868,1307,13808,swimming,swimming,VBG,swim
10012878_CL,30,2,List 2,dolphin,49,14868,1307,13808,talking,talking,VBG,talk
10012878_CL,30,2,List 2,dolphin,49,14868,1307,13808,entertainment,entertainment,NN,entertainment
10012878_CL,31,2,List 2,bottle,36,16548,1263,15582,drinking,drinking,VBG,drink
10012878_CL,31,2,List 2,bottle,36,16548,1263,15582,holding,holding,VBG,hold
10012878_CL,31,2,List 2,bottle,36,16548,1263,15582,filling,filling,VBG,fill
10012878_CL,31,2,List 2,bottle,36,16548,1263,15582,preserving,preserving,VBG,preserve
10012878_CL,32,2,List 2,turban,41,23563,1751,22148,holding,holding,VBG,hold
10012878_CL,32,2,List 2,turban,41,23563,1751,22148,fashion,fashion,NN,fashion
10012878_CL,32,2,List 2,turban,41,23563,1751,22148,religion,religion,NN,religion
10012878_CL,33,2,List 2,gunpowder,55,16301,1761,11694,shooting,shooting,VBG,shoot
10012878_CL,33,2,List 2,gunpowder,55,16301,1761,11694,crafting,crafting,VBG,craft
10012878_CL,33,2,List 2,gunpowder,55,16301,1761,11694,making,making,VBG,make
10012878_CL,33,2,List 2,gunpowder,55,16301,1761,11694,bullets,bullets,NNS,bullet
10012878_CL,34,2,List 2,prankster,52,14664,1444,13641,jokes,jokes,JJ,jokes
10012878_CL,34,2,List 2,prankster,52,14664,1444,13641,views,views,NNS,view
10012878_CL,34,2,List 2,prankster,52,14664,1444,13641,laughter,laughter,RBR,laughter
10012878_CL,34,2,List 2,prankster,52,14664,1444,13641,entertainment,entertainment,NN,entertainment
10012878_CL,35,2,List 2,newscaster,33,15187,2841,13990,gossip,gossip,NN,gossip
10012878_CL,35,2,List 2,newscaster,33,15187,2841,13990,entertainment,entertainment,NN,entertainment
10012878_CL,35,2,List 2,newscaster,33,15187,2841,13990,curiousity,curiosity,NN,curiosity
10012878_CL,36,2,List 2,rainwater,61,22051,4133,19190,recycling,recycling,VBG,recycle
10012878_CL,36,2,List 2,rainwater,61,22051,4133,19190,drink,drink,VB,drink
10012878_CL,36,2,List 2,rainwater,61,22051,4133,19190,planting,planting,VBG,plant
10012878_CL,36,2,List 2,rainwater,61,22051,4133,19190,farming,farming,VBG,farm
10012878_CL,37,2,List 2,yourself,35,54671,3313,24213,adventures,adventures,NNS,adventure
10012878_CL,37,2,List 2,yourself,35,54671,3313,24213,entertainment,entertainment,NN,entertainment
10012878_CL,38,2,List 2,boot,42,5967,1267,5151,walking,walking,VBG,walk
10012878_CL,38,2,List 2,boot,42,5967,1267,5151,stomping,stomping,VBG,stomp
10012878_CL,39,2,List 2,toy,44,6401,1215,4583,playing,playing,VBG,play
10012878_CL,39,2,List 2,toy,44,6401,1215,4583,entertainment,entertainment,NN,entertainment
10012878_CL,40,2,List 2,choreographer,45,9942,1277,5927,art,art,NN,art
10012878_CL,40,2,List 2,choreographer,45,9942,1277,5927,dancing,dancing,VBG,dance
10016155,11,24,List 74,engineer,2203,27448,3665,24400,chemical,chemical,JJ,chemical
10016155,11,24,List 74,engineer,2203,27448,3665,24400,electrical,electrical,JJ,electrical
10016155,11,24,List 74,engineer,2203,27448,3665,24400,mechanical,mechanical,JJ,mechanical
10016155,12,24,List 74,watchband,2207,12292,2447,11625,worn,worn,NN,worn
10016155,12,24,List 74,watchband,2207,12292,2447,11625,used,used,VBN,use
10016155,12,24,List 74,watchband,2207,12292,2447,11625,touched,touched,VBD,touch
10016155,13,24,List 74,abacus,2197,17071,14472,15439,thrown,thrown,JJ,thrown
10016155,15,24,List 74,duster,2192,8561,3584,7898,clean,clean,JJ,clean
10016155,15,24,List 74,duster,2192,8561,3584,7898,pick,pick,NN,pick
10016155,16,24,List 74,eyewash,2220,15596,2915,10132,ease,ease,NN,ease
10016155,16,24,List 74,eyewash,2220,15596,2915,10132,pain,pain,NN,pain
10016155,16,24,List 74,eyewash,2220,15596,2915,10132,rinse,rinse,NN,rinse
10016155,17,24,List 74,underclothing,2200,13476,3366,12946,worn,worn,NN,worn
10016155,17,24,List 74,underclothing,2200,13476,3366,12946,washed,washed,VBD,wash
10016155,17,24,List 74,underclothing,2200,13476,3366,12946,folded,folded,JJ,folded
10016155,18,24,List 74,lunchroom,2201,16962,12765,16635,eat,eat,NN,eat
10016155,19,24,List 74,percolator,2195,3887,3127,3413,idk,id,NN,id
10016155,20,24,List 74,props,2221,5081,2079,4813,used,used,VBN,use
10016155,20,24,List 74,props,2221,5081,2079,4813,play,play,NN,play
10016155,21,24,List 74,teacher,2202,8168,4143,7831,help,help,NN,help
10016155,21,24,List 74,teacher,2202,8168,4143,7831,students,students,NNS,student
10016155,21,24,List 74,teacher,2202,8168,4143,7831,learn,learn,VBP,learn
10016155,22,24,List 74,electrician,2211,14855,2488,14346,works,works,VBZ,work
10016155,22,24,List 74,electrician,2211,14855,2488,14346,electrical,electrical,JJ,electrical
10016155,22,24,List 74,electrician,2211,14855,2488,14346,problems,problems,NNS,problem
10016155,22,24,List 74,electrician,2211,14855,2488,14346,issues,issues,NNS,issue
10016155,23,24,List 74,flaxseed,2216,6553,1837,6202,eaten,eaten,VBP,eat
10016155,23,24,List 74,flaxseed,2216,6553,1837,6202,grown,grown,VBN,grow
10016155,24,24,List 74,gasket,2208,12374,8656,10866,used,used,JJ,used
10016155,24,24,List 74,gasket,2208,12374,8656,10866,fixe,fix,NN,fix
10016155,25,24,List 74,trench,2218,9216,2206,8917,dug,dug,NN,dug
10016155,25,24,List 74,trench,2218,9216,2206,8917,walk,walk,VBP,walk
10016155,26,24,List 74,rowboat,2194,11358,2741,11030,get,get,VB,get
10016155,26,24,List 74,rowboat,2194,11358,2741,11030,places,places,NNS,place
10016155,27,24,List 74,thumbtack,2210,10786,4237,10411,hold,hold,VB,hold
10016155,27,24,List 74,thumbtack,2210,10786,4237,10411,something,something,NN,something
10016155,28,24,List 74,tangerine,2214,7545,2032,7292,eaten,eaten,JJ,eaten
10016155,28,24,List 74,tangerine,2214,7545,2032,7292,picked,picked,VBD,pick
10016155,28,24,List 74,tangerine,2214,7545,2032,7292,grown,grown,JJ,grown
10016155,29,24,List 74,coaster,2204,11278,3962,10225,hold,hold,JJ,hold
10016155,29,24,List 74,coaster,2204,11278,3962,10225,drinks,drinks,NNS,drink
10016155,30,24,List 74,shank,2205,3401,1781,2480,stab,stab,VBP,stab
10016155,31,24,List 74,parchment,2219,6892,3297,6706,used,used,VBN,use
10016155,31,24,List 74,parchment,2219,6892,3297,6706,cooking,cooking,NN,cooking
10016155,32,24,List 74,tablecloth,2213,8240,1629,7989,used,used,VBN,use
10016155,32,24,List 74,tablecloth,2213,8240,1629,7989,help,help,NN,help
10016155,32,24,List 74,tablecloth,2213,8240,1629,7989,keep,keep,VB,keep
10016155,32,24,List 74,tablecloth,2213,8240,1629,7989,table,table,JJ,table
10016155,32,24,List 74,tablecloth,2213,8240,1629,7989,clean,clean,JJ,clean
10016155,33,24,List 74,worksheet,2198,6433,2387,6147,turn,turn,NN,turn
10016155,33,24,List 74,worksheet,2198,6433,2387,6147,work,work,NN,work
10016155,34,24,List 74,stem,2196,6604,5472,6471,picked,picked,VBD,pick
10016155,35,24,List 74,lunch,2212,2173,1108,1886,eaten,eaten,JJ,eaten
10016155,36,24,List 74,cheek,2193,11216,4528,11035,gets,gets,VBZ,get
10016155,36,24,List 74,cheek,2193,11216,4528,11035,red,red,JJ,red
10016155,36,24,List 74,cheek,2193,11216,4528,11035,helps,helps,NN,help
10016155,36,24,List 74,cheek,2193,11216,4528,11035,smile,smile,VB,smile
10016155,37,24,List 74,salamander,2206,13764,4657,13292,pet,pet,NN,pet
10016155,37,24,List 74,salamander,2206,13764,4657,13292,wild,wild,NN,wild
10016155,37,24,List 74,salamander,2206,13764,4657,13292,also,also,RB,also
10016155,38,24,List 74,ruler,2217,5872,1748,5652,used,used,VBD,use
10016155,38,24,List 74,ruler,2217,5872,1748,5652,measure,measure,NN,measure
10016155,39,24,List 74,stepbrother,2215,9883,3092,9686,advice,advice,NN,advice
10016155,39,24,List 74,stepbrother,2215,9883,3092,9686,quality,quality,NN,quality
10016155,39,24,List 74,stepbrother,2215,9883,3092,9686,time,time,NN,time
10016155,40,24,List 74,stage,2209,9937,2876,9383,perform,perform,VB,perform
10016155,40,24,List 74,stage,2209,9937,2876,9383,sing,sing,VBG,sing
10016155,40,24,List 74,stage,2209,9937,2876,9383,dance,dance,NN,dance
10016155,40,24,List 74,stage,2209,9937,2876,9383,worship,worship,NN,worship
10032501AW,11,11,List 11,billiards,328,86845,57245,82431,sitting,sitting,VBG,sit
10032501AW,11,11,List 11,billiards,328,86845,57245,82431,coaster,coaster,JJ,coaster
10032501AW,11,11,List 11,billiards,328,86845,57245,82431,storage,storage,NN,storage
10032501AW,11,11,List 11,billiards,328,86845,57245,82431,table,table,NN,table
10032501AW,12,11,List 11,mongoose,330,17212,5249,11497,eaten,eaten,NN,eaten
10032501AW,12,11,List 11,mongoose,330,17212,5249,11497,cooked,cooked,VBD,cook
10032501AW,12,11,List 11,mongoose,330,17212,5249,11497,pet,pet,JJ,pet
10032501AW,13,11,List 11,village,322,36352,6554,25275,visit,visit,NN,visit
10032501AW,13,11,List 11,village,322,36352,6554,25275,resident,resident,NN,resident
10032501AW,14,11,List 11,hibachi,313,29292,24679,25435,cooking,cooking,VBG,cook
10032501AW,15,11,List 11,furnace,331,11514,2131,4409,heating,heating,VBG,heat
10032501AW,15,11,List 11,furnace,331,11514,2131,4409,burning,burning,VBG,burn
10032501AW,16,11,List 11,apartments,310,34165,5595,33084,tenant,tenant,JJ,tenant
10032501AW,16,11,List 11,apartments,310,34165,5595,33084,sleep,sleep,JJ,sleep
10032501AW,16,11,List 11,apartments,310,34165,5595,33084,cook,cook,NN,cook
10032501AW,16,11,List 11,apartments,310,34165,5595,33084,eat,eat,NN,eat
10032501AW,16,11,List 11,apartments,310,34165,5595,33084,clean,clean,JJ,clean
10032501AW,16,11,List 11,apartments,310,34165,5595,33084,storage,storage,NN,storage
10032501AW,16,11,List 11,apartments,310,34165,5595,33084,shelter,shelter,NN,shelter
10032501AW,17,11,List 11,teaspoonful,323,42647,11953,34526,seasoning,seasoning,VBG,season
10032501AW,17,11,List 11,teaspoonful,323,42647,11953,34526,sweetener,sweetener,JJR,sweetener
10032501AW,17,11,List 11,teaspoonful,323,42647,11953,34526,mix,mix,NN,mix
10032501AW,17,11,List 11,teaspoonful,323,42647,11953,34526,scoop,scoop,NN,scoop
10032501AW,18,11,List 11,flowerpot,315,15826,2169,4115,plant,plant,NN,plant
10032501AW,18,11,List 11,flowerpot,315,15826,2169,4115,storage,storage,NN,storage
10032501AW,19,11,List 11,grandchild,316,25033,2346,24053,play,play,NN,play
10032501AW,19,11,List 11,grandchild,316,25033,2346,24053,care,care,NN,care
10032501AW,20,11,List 11,taffy,324,27432,2447,24919,eat,eat,NN,eat
10032501AW,20,11,List 11,taffy,324,27432,2447,24919,stretch,stretch,NN,stretch
10032501AW,20,11,List 11,taffy,324,27432,2447,24919,suck,suck,VBD,suck
10032501AW,20,11,List 11,taffy,324,27432,2447,24919,bite,bite,JJ,bite
10032501AW,20,11,List 11,taffy,324,27432,2447,24919,lick,lick,JJ,lick
10032501AW,20,11,List 11,taffy,324,27432,2447,24919,tear,tear,NN,tear
10032501AW,20,11,List 11,taffy,324,27432,2447,24919,crush,crush,NN,crush
10032501AW,20,11,List 11,taffy,324,27432,2447,24919,melt,melt,NN,melt
10032501AW,21,11,List 11,mullets,319,18045,2055,15458,cut,cut,NN,cut
10032501AW,21,11,List 11,mullets,319,18045,2055,15458,washed,washed,VBD,wash
10032501AW,21,11,List 11,mullets,319,18045,2055,15458,dyed,dyed,VBN,dye
10032501AW,21,11,List 11,mullets,319,18045,2055,15458,straightened,straightened,VBN,straighten
10032501AW,21,11,List 11,mullets,319,18045,2055,15458,curled,curled,VBN,curl
10032501AW,22,11,List 11,flatiron,311,24782,5684,23726,hold,hold,VBP,hold
10032501AW,22,11,List 11,flatiron,311,24782,5684,23726,weapon,weapon,NN,weapon
10032501AW,22,11,List 11,flatiron,311,24782,5684,23726,straighten,straighten,JJ,straighten
10032501AW,23,11,List 11,bondsman,308,71479,41760,68725,hug,hug,NN,hug
10032501AW,23,11,List 11,bondsman,308,71479,41760,68725,hit,hit,VBD,hit
10032501AW,24,11,List 11,raincoat,326,23484,1979,15435,wear,wear,JJ,wear
10032501AW,24,11,List 11,raincoat,326,23484,1979,15435,fold,fold,JJ,fold
10032501AW,24,11,List 11,raincoat,326,23484,1979,15435,burn,burn,NN,burn
10032501AW,24,11,List 11,raincoat,326,23484,1979,15435,shelter,shelter,NN,shelter
10032501AW,25,11,List 11,casserole,306,22414,3166,18461,eat,eat,NN,eat
10032501AW,25,11,List 11,casserole,306,22414,3166,18461,reheat,reheat,NN,reheat
10032501AW,25,11,List 11,casserole,306,22414,3166,18461,scoop,scoop,NN,scoop
10032501AW,25,11,List 11,casserole,306,22414,3166,18461,stab,stab,NN,stab
10032501AW,26,11,List 11,crust,304,8475,2169,7390,eat,eat,NN,eat
10032501AW,26,11,List 11,crust,304,8475,2169,7390,crushed,crushed,VBD,crush
10032501AW,26,11,List 11,crust,304,8475,2169,7390,cut,cut,JJ,cut
10032501AW,27,11,List 11,molasses,321,30848,1931,29847,syrup,syrup,NN,syrup
10032501AW,27,11,List 11,molasses,321,30848,1931,29847,lick,lick,NN,lick
10032501AW,27,11,List 11,molasses,321,30848,1931,29847,sweetner,sweetener,NN,sweetener
10032501AW,28,11,List 11,butt,312,20240,5097,15604,slap,slap,VBD,slap
10032501AW,28,11,List 11,butt,312,20240,5097,15604,fondle,fondle,JJ,fondle
10032501AW,28,11,List 11,butt,312,20240,5097,15604,rub,rub,NN,rub
10032501AW,28,11,List 11,butt,312,20240,5097,15604,cushion,cushion,NN,cushion
10032501AW,29,11,List 11,parakeet,329,8809,4277,4781,pet,pet,NN,pet
10032501AW,30,11,List 11,nut,307,26911,6352,20166,eat,eat,NN,eat
10032501AW,30,11,List 11,nut,307,26911,6352,20166,crush,crush,NN,crush
10032501AW,30,11,List 11,nut,307,26911,6352,20166,topping,topping,VBG,top
10032501AW,31,11,List 11,pan,327,12572,4371,11411,fry,fry,JJ,fry
10032501AW,31,11,List 11,pan,327,12572,4371,11411,clean,clean,JJ,clean
10032501AW,31,11,List 11,pan,327,12572,4371,11411,weapon,weapon,NN,weapon
10032501AW,32,11,List 11,corn,317,14705,1645,11298,eat,eat,NN,eat
10032501AW,32,11,List 11,corn,317,14705,1645,11298,boil,boil,NN,boil
10032501AW,32,11,List 11,corn,317,14705,1645,11298,crush,crush,NN,crush
10032501AW,32,11,List 11,corn,317,14705,1645,11298,ingredient,ingredient,NN,ingredient
10032501AW,33,11,List 11,stepdaughter,314,11812,4348,4951,hug,hug,NN,hug
10032501AW,34,11,List 11,trigger,320,7852,4875,5298,push,push,NN,push
10032501AW,35,11,List 11,belt,318,11412,6058,9802,accessory,accessory,NN,accessory
10032501AW,35,11,List 11,belt,318,11412,6058,9802,weapon,weapon,NN,weapon
10032501AW,36,11,List 11,acupuncture,302,14969,5538,14075,weapon,weapon,NN,weapon
10032501AW,36,11,List 11,acupuncture,302,14969,5538,14075,medical,medical,JJ,medical
10032501AW,36,11,List 11,acupuncture,302,14969,5538,14075,tool,tool,NN,tool
10032501AW,37,11,List 11,rectum,309,33346,6813,32299,stretched,stretched,VBD,stretch
10032501AW,37,11,List 11,rectum,309,33346,6813,32299,exit,exit,NN,exit
10032501AW,38,11,List 11,device,303,51612,1846,41935,diary,diary,JJ,diary
10032501AW,38,11,List 11,device,303,51612,1846,41935,book,book,NN,book
10032501AW,38,11,List 11,device,303,51612,1846,41935,storage,storage,NN,storage
10032501AW,39,11,List 11,dirt,325,11728,7083,7693,dug,dug,JJ,dug
10032501AW,40,11,List 11,kettledrum,305,72159,67847,69822,instrument,instrument,NN,instrument
10043633MWA,11,11,List 36,edibles,1064,35909,1425,10472,eaten,eaten,NNS,eaten
10043633MWA,11,11,List 36,edibles,1064,35909,1425,10472,made,made,VBN,make
10043633MWA,11,11,List 36,edibles,1064,35909,1425,10472,sold,sold,VBD,sell
10043633MWA,11,11,List 36,edibles,1064,35909,1425,10472,bought,bought,RB,bought
10043633MWA,12,11,List 36,barber,1061,17695,3398,14821,called,called,VBN,call
10043633MWA,12,11,List 36,barber,1061,17695,3398,14821,used,used,VBN,use
10043633MWA,12,11,List 36,barber,1061,17695,3398,14821,killed,killed,VBN,kill
10043633MWA,13,11,List 36,alfalfa,1074,30951,7184,16502,listened,listened,VBD,listen
10043633MWA,13,11,List 36,alfalfa,1074,30951,7184,16502,watched,watched,JJ,watched
10043633MWA,13,11,List 36,alfalfa,1074,30951,7184,16502,talk,talk,NN,talk
10043633MWA,14,11,List 36,evergreen,1079,23631,13599,22337,seen,seen,VBN,see
10043633MWA,14,11,List 36,evergreen,1079,23631,13599,22337,sold,sold,VBN,sell
10043633MWA,14,11,List 36,evergreen,1079,23631,13599,22337,cut,cut,NN,cut
10043633MWA,14,11,List 36,evergreen,1079,23631,13599,22337,viewed,viewed,VBN,view
10043633MWA,15,11,List 36,flashbulb,1077,20826,2940,20705,broken,broken,NNS,broken
10043633MWA,15,11,List 36,flashbulb,1077,20826,2940,20705,turned,turned,VBD,turn
10043633MWA,15,11,List 36,flashbulb,1077,20826,2940,20705,turned,turned,JJ,turned
10043633MWA,15,11,List 36,flashbulb,1077,20826,2940,20705,bought,bought,VBD,buy
10043633MWA,15,11,List 36,flashbulb,1077,20826,2940,20705,sold,sold,VBN,sell
10043633MWA,17,11,List 36,llama,1055,20252,1363,17069,sold,sold,VBN,sell
10043633MWA,17,11,List 36,llama,1055,20252,1363,17069,rode,rode,NN,rode
10043633MWA,17,11,List 36,llama,1055,20252,1363,17069,bought,bought,VBD,buy
10043633MWA,17,11,List 36,llama,1055,20252,1363,17069,viewed,viewed,VBN,view
10043633MWA,17,11,List 36,llama,1055,20252,1363,17069,kicked,kicked,VBN,kick
10043633MWA,17,11,List 36,llama,1055,20252,1363,17069,tripped,tripped,JJ,tripped
10043633MWA,18,11,List 36,curler,1069,19491,2623,8362,bought,bought,VBD,buy
10043633MWA,18,11,List 36,curler,1069,19491,2623,8362,used,used,VBN,use
10043633MWA,18,11,List 36,curler,1069,19491,2623,8362,sold,sold,VBN,sell
10043633MWA,19,11,List 36,leftovers,1071,18694,1778,17731,eaten,eaten,RB,eaten
10043633MWA,19,11,List 36,leftovers,1071,18694,1778,17731,saved,saved,VBN,save
10043633MWA,19,11,List 36,leftovers,1071,18694,1778,17731,made,made,VBN,make
10043633MWA,20,11,List 36,tombstone,1073,34025,29817,33711,bought,bought,VBD,buy
10043633MWA,20,11,List 36,tombstone,1073,34025,29817,33711,sold,sold,VBN,sell
10043633MWA,20,11,List 36,tombstone,1073,34025,29817,33711,created,created,VBN,create
10043633MWA,21,11,List 36,manicure,1081,52688,3475,51744,bought,bought,VBD,buy
10043633MWA,21,11,List 36,manicure,1081,52688,3475,51744,sold,sold,VBN,sell
10043633MWA,21,11,List 36,manicure,1081,52688,3475,51744,given,given,VBN,give
10043633MWA,22,11,List 36,teardrop,1065,9680,2481,9558,cried,cried,VBN,cry
10043633MWA,22,11,List 36,teardrop,1065,9680,2481,9558,wiped,wiped,VBD,wipe
10043633MWA,22,11,List 36,teardrop,1065,9680,2481,9558,away,away,RB,away
10043633MWA,22,11,List 36,teardrop,1065,9680,2481,9558,shot,shot,JJ,shot
10043633MWA,23,11,List 36,harmonica,1062,57836,1329,40161,played,played,VBN,play
10043633MWA,23,11,List 36,harmonica,1062,57836,1329,40161,buzzed,buzzed,VBN,buzz
10043633MWA,23,11,List 36,harmonica,1062,57836,1329,40161,sold,sold,VBN,sell
10043633MWA,23,11,List 36,harmonica,1062,57836,1329,40161,bought,bought,RB,bought
10043633MWA,24,11,List 36,drugstore,1080,28766,1841,15385,visited,visited,VBN,visit
10043633MWA,24,11,List 36,drugstore,1080,28766,1841,15385,opened,opened,VBD,open
10043633MWA,24,11,List 36,drugstore,1080,28766,1841,15385,closed,closed,VBD,close
10043633MWA,25,11,List 36,switchboard,1075,3427,2909,3367,used,used,VBN,use
10043633MWA,26,11,List 36,vitamins,1078,12128,3266,8966,taken,taken,VBN,take
10043633MWA,26,11,List 36,vitamins,1078,12128,3266,8966,sold,sold,VBN,sell
10043633MWA,26,11,List 36,vitamins,1078,12128,3266,8966,bought,bought,RB,bought
10043633MWA,27,11,List 36,laxative,1053,16937,1576,10654,taken,taken,VBN,take
10043633MWA,27,11,List 36,laxative,1053,16937,1576,10654,bought,bought,VBD,buy
10043633MWA,27,11,List 36,laxative,1053,16937,1576,10654,sold,sold,VBN,sell
10043633MWA,28,11,List 36,beagle,1076,20047,2170,19642,played,played,VBN,play
10043633MWA,28,11,List 36,beagle,1076,20047,2170,19642,viewed,viewed,VBN,view
10043633MWA,28,11,List 36,beagle,1076,20047,2170,19642,walked,walked,JJ,walked
10043633MWA,28,11,List 36,beagle,1076,20047,2170,19642,rode,rode,NN,rode
10043633MWA,28,11,List 36,beagle,1076,20047,2170,19642,bought,bought,VBD,buy
10043633MWA,28,11,List 36,beagle,1076,20047,2170,19642,sold,sold,VBN,sell
10043633MWA,29,11,List 36,screwdriver,1070,12955,1641,12829,bought,bought,RB,bought
10043633MWA,29,11,List 36,screwdriver,1070,12955,1641,12829,sold,sold,VBN,sell
10043633MWA,29,11,List 36,screwdriver,1070,12955,1641,12829,used,used,VBN,use
10043633MWA,29,11,List 36,screwdriver,1070,12955,1641,12829,broken,broken,JJ,broken
10043633MWA,29,11,List 36,screwdriver,1070,12955,1641,12829,bent,bent,NN,bent
10043633MWA,30,11,List 36,houseboat,1072,8325,1947,6851,bought,bought,VBD,buy
10043633MWA,30,11,List 36,houseboat,1072,8325,1947,6851,sold,sold,VBN,sell
10043633MWA,30,11,List 36,houseboat,1072,8325,1947,6851,rode,rode,NN,rode
10043633MWA,30,11,List 36,houseboat,1072,8325,1947,6851,broken,broken,VBN,break
10043633MWA,31,11,List 36,telescope,1060,7952,1713,7848,used,used,VBN,use
10043633MWA,31,11,List 36,telescope,1060,7952,1713,7848,broken,broken,NNS,broken
10043633MWA,31,11,List 36,telescope,1060,7952,1713,7848,bought,bought,VBD,buy
10043633MWA,31,11,List 36,telescope,1060,7952,1713,7848,sold,sold,VBN,sell
10043633MWA,32,11,List 36,rain,1068,7721,1482,4354,felt,felt,RB,felt
10043633MWA,32,11,List 36,rain,1068,7721,1482,4354,caught,caught,JJ,caught
10043633MWA,33,11,List 36,engine,1066,15653,2459,15442,fix,fix,RB,fix
10043633MWA,33,11,List 36,engine,1066,15653,2459,15442,broken,broken,JJ,broken
10043633MWA,33,11,List 36,engine,1066,15653,2459,15442,bought,bought,VBD,buy
10043633MWA,33,11,List 36,engine,1066,15653,2459,15442,sold,sold,VBN,sell
10043633MWA,34,11,List 36,saltshaker,1059,6704,1401,6504,broken,broken,RB,broken
10043633MWA,34,11,List 36,saltshaker,1059,6704,1401,6504,sold,sold,VBN,sell
10043633MWA,34,11,List 36,saltshaker,1059,6704,1401,6504,bought,bought,RB,bought
10043633MWA,35,11,List 36,male,1058,12444,4214,10719,broken,broken,VBN,break
10043633MWA,36,11,List 36,woodshed,1052,4375,1720,4280,built,built,VBN,build
10043633MWA,36,11,List 36,woodshed,1052,4375,1720,4280,bought,bought,VBD,buy
10043633MWA,36,11,List 36,woodshed,1052,4375,1720,4280,sold,sold,VBN,sell
10043633MWA,37,11,List 36,lambskin,1056,6676,1335,6572,sold,sold,VBN,sell
10043633MWA,37,11,List 36,lambskin,1056,6676,1335,6572,torn,torn,JJ,torn
10043633MWA,37,11,List 36,lambskin,1056,6676,1335,6572,bought,bought,VBD,buy
10043633MWA,38,11,List 36,motorcycle,1067,7101,1542,7023,bought,bought,RB,bought
10043633MWA,38,11,List 36,motorcycle,1067,7101,1542,7023,sold,sold,VBN,sell
10043633MWA,38,11,List 36,motorcycle,1067,7101,1542,7023,fixed,fixed,VBN,fix
10043633MWA,38,11,List 36,motorcycle,1067,7101,1542,7023,refurbished,refurbished,VBN,refurbish
10043633MWA,39,11,List 36,mentor,1054,5901,2129,5733,listened,listened,VBN,listen
10043633MWA,39,11,List 36,mentor,1054,5901,2129,5733,bought,bought,VBD,buy
10043633MWA,39,11,List 36,mentor,1054,5901,2129,5733,sold,sold,VBN,sell
10043633MWA,40,11,List 36,ornament,1063,4064,1162,3571,bought,bought,RB,bought
10043633MWA,40,11,List 36,ornament,1063,4064,1162,3571,sold,sold,VBN,sell
10043633MWA,40,11,List 36,ornament,1063,4064,1162,3571,broken,broken,VBN,break
10048843AC,11,2,List 77,pigtail,2291,11062,2402,10319,hair,hair,JJ,hair
10048843AC,11,2,List 77,pigtail,2291,11062,2402,10319,ponytail,ponytail,NN,ponytail
10048843AC,11,2,List 77,pigtail,2291,11062,2402,10319,hot,hot,JJ,hot
10048843AC,12,2,List 77,clergy,2282,4737,3322,3945,court,court,NN,court
10048843AC,13,2,List 77,nameplate,2301,4432,2008,3753,identification,identification,NN,identification
10048843AC,14,2,List 77,costumer,2294,7705,1834,6679,buying,buying,VBG,buy
10048843AC,14,2,List 77,costumer,2294,7705,1834,6679,money,money,NN,money
10048843AC,15,2,List 77,photograph,2296,5055,1093,4386,picture,picture,NN,picture
10048843AC,15,2,List 77,photograph,2296,5055,1093,4386,memories,memories,VBZ,memories
10048843AC,16,2,List 77,mouthwash,2303,6393,3401,5007,fresh,fresh,JJ,fresh
10048843AC,16,2,List 77,mouthwash,2303,6393,3401,5007,mint,mint,NN,mint
10048843AC,17,2,List 77,brisket,2300,8296,1209,7604,food,food,NN,food
10048843AC,17,2,List 77,brisket,2300,8296,1209,7604,barbeque,barbecue,NN,barbecue
10048843AC,17,2,List 77,brisket,2300,8296,1209,7604,grill,grill,NN,grill
10048843AC,18,2,List 77,headset,2305,11617,2485,10938,noise,noise,RB,noise
10048843AC,18,2,List 77,headset,2305,11617,2485,10938,quite,quite,RB,quite
10048843AC,18,2,List 77,headset,2305,11617,2485,10938,focus,focus,JJ,focus
10048843AC,19,2,List 77,baby,2290,7981,1291,6967,cry,cry,NN,cry
10048843AC,19,2,List 77,baby,2290,7981,1291,6967,loud,loud,JJ,loud
10048843AC,19,2,List 77,baby,2290,7981,1291,6967,sweet,sweet,JJ,sweet
10048843AC,19,2,List 77,baby,2290,7981,1291,6967,little,little,JJ,little
10048843AC,20,2,List 77,iron,2297,7647,3184,7127,cast,cast,JJ,cast
10048843AC,20,2,List 77,iron,2297,7647,3184,7127,hard,hard,JJ,hard
10048843AC,20,2,List 77,iron,2297,7647,3184,7127,element,element,NN,element
10048843AC,21,2,List 77,portrait,2308,5619,1073,4883,memory,memory,NN,memory
10048843AC,21,2,List 77,portrait,2308,5619,1073,4883,fancy,fancy,JJ,fancy
10048843AC,22,2,List 77,scallion,2292,3671,2804,3086,food,food,NN,food
10048843AC,23,2,List 77,pumpkin,2306,8720,2652,7337,fall,fall,NN,fall
10048843AC,23,2,List 77,pumpkin,2306,8720,2652,7337,cold,cold,NN,cold
10048843AC,23,2,List 77,pumpkin,2306,8720,2652,7337,halloween,halloween,JJ,halloween
10048843AC,24,2,List 77,undercoat,2299,4772,1685,4033,warm,warm,NN,warm
10048843AC,25,2,List 77,bamboo,2295,4574,1284,3975,green,green,NN,green
10048843AC,25,2,List 77,bamboo,2295,4574,1284,3975,food,food,NN,food
10048843AC,25,2,List 77,bamboo,2295,4574,1284,3975,leaf,leaf,NN,leaf
10048843AC,26,2,List 77,pimento,2304,3004,1245,2713,food,food,NN,food
10048843AC,26,2,List 77,pimento,2304,3004,1245,2713,cheese,cheese,NN,cheese
10048843AC,27,2,List 77,punchbowl,2309,5732,1595,5443,hold,hold,VBP,hold
10048843AC,27,2,List 77,punchbowl,2309,5732,1595,5443,liquid,liquid,JJ,liquid
10048843AC,27,2,List 77,punchbowl,2309,5732,1595,5443,cold,cold,JJ,cold
10048843AC,28,2,List 77,nun,2288,4275,2890,3840,religion,religion,NN,religion
10048843AC,29,2,List 77,thumbnail,2285,3605,2269,3204,pointy,pointy,NN,pointy
10048843AC,30,2,List 77,homemaker,2286,7037,3312,6503,worker,worker,NN,worker
10048843AC,30,2,List 77,homemaker,2286,7037,3312,6503,food,food,NN,food
10048843AC,30,2,List 77,homemaker,2286,7037,3312,6503,cook,cook,NN,cook
10048843AC,31,2,List 77,jukebox,2284,5123,1252,4722,sound,sound,NN,sound
10048843AC,31,2,List 77,jukebox,2284,5123,1252,4722,music,music,NN,music
10048843AC,31,2,List 77,jukebox,2284,5123,1252,4722,dance,dance,NN,dance
10048843AC,31,2,List 77,jukebox,2284,5123,1252,4722,fun,fun,NN,fun
10048843AC,32,2,List 77,bank,2298,4274,1036,3110,money,money,NN,money
10048843AC,32,2,List 77,bank,2298,4274,1036,3110,loan,loan,NN,loan
10048843AC,33,2,List 77,ketchup,2283,5160,1125,4794,sauce,sauce,VBP,sauce
10048843AC,33,2,List 77,ketchup,2283,5160,1125,4794,red,red,JJ,red
10048843AC,33,2,List 77,ketchup,2283,5160,1125,4794,tomato,tomato,NN,tomato
10048843AC,34,2,List 77,marksman,2311,5467,2265,3523,man,man,NN,man
10048843AC,34,2,List 77,marksman,2311,5467,2265,3523,worker,worker,NN,worker
10048843AC,35,2,List 77,mop,2293,4238,1262,3853,wet,wet,JJ,wet
10048843AC,35,2,List 77,mop,2293,4238,1262,3853,clean,clean,JJ,clean
10048843AC,36,2,List 77,bookend,2302,2786,1949,2436,read,read,VBN,read
10048843AC,37,2,List 77,foodstuff,2310,3771,1183,3272,food,food,NN,food
10048843AC,37,2,List 77,foodstuff,2310,3771,1183,3272,cook,cook,NN,cook
10048843AC,38,2,List 77,crotch,2307,4879,3486,4516,body,body,NN,body
10048843AC,38,2,List 77,crotch,2307,4879,3486,4516,part,part,NN,part
10048843AC,39,2,List 77,nail,2287,5111,1346,4165,hold,hold,VBP,hold
10048843AC,39,2,List 77,nail,2287,5111,1346,4165,seal,seal,JJ,seal
10048843AC,40,2,List 77,shingles,2289,2744,1381,2342,disease,disease,NN,disease
10050187SL,11,6,List 6,whisky,175,7188,1670,4754,drink,drink,NN,drink
10050187SL,11,6,List 6,whisky,175,7188,1670,4754,cook,cook,NN,cook
10050187SL,13,6,List 6,snowfall,167,8665,4277,8461,winter,winter,NN,winter
10050187SL,13,6,List 6,snowfall,167,8665,4277,8461,freeze,freeze,NN,freeze
10050187SL,14,6,List 6,scale,176,9996,1410,9838,weight,weight,VBD,weight
10050187SL,14,6,List 6,scale,176,9996,1410,9838,size,size,NN,size
10050187SL,16,6,List 6,crystal,171,13846,11232,13622,tell,tell,NN,tell
10050187SL,16,6,List 6,crystal,171,13846,11232,13622,future,future,NN,future
10050187SL,19,6,List 6,family,154,6054,4529,5946,loved,loved,VBD,love
10050187SL,19,6,List 6,family,154,6054,4529,5946,ones,ones,NNS,one
10050187SL,20,6,List 6,bird,172,7688,1542,7430,flies,flies,NNS,fly
10050187SL,20,6,List 6,bird,172,7688,1542,7430,lands,lands,VBZ,land
10050187SL,20,6,List 6,bird,172,7688,1542,7430,chirps,chirps,JJ,chirps
10050187SL,21,6,List 6,canvass,178,8566,3332,8307,painting,painting,VBG,paint
10050187SL,21,6,List 6,canvass,178,8566,3332,8307,art,art,NN,art
10050187SL,22,6,List 6,tofu,181,8589,1359,8399,food,food,NN,food
10050187SL,22,6,List 6,tofu,181,8589,1359,8399,meat,meat,NN,meat
10050187SL,22,6,List 6,tofu,181,8589,1359,8399,replacement,replacement,NN,replacement
10050187SL,23,6,List 6,screw,153,5576,1921,5298,hold,hold,VBP,hold
10050187SL,23,6,List 6,screw,153,5576,1921,5298,things,things,NNS,thing
10050187SL,23,6,List 6,screw,153,5576,1921,5298,together,together,RB,together
10050187SL,24,6,List 6,tinfoil,156,11128,2132,10715,cover,cover,VBP,cover
10050187SL,24,6,List 6,tinfoil,156,11128,2132,10715,something,something,NN,something
10050187SL,24,6,List 6,tinfoil,156,11128,2132,10715,keep,keep,JJ,keep
10050187SL,24,6,List 6,tinfoil,156,11128,2132,10715,things,things,NNS,thing
10050187SL,24,6,List 6,tinfoil,156,11128,2132,10715,hot,hot,JJ,hot
10050187SL,25,6,List 6,desert,161,17659,5019,17339,cake,cake,NN,cake
10050187SL,25,6,List 6,desert,161,17659,5019,17339,cookies,cookies,NNS,cooky
10050187SL,25,6,List 6,desert,161,17659,5019,17339,ice,ice,VBP,ice
10050187SL,25,6,List 6,desert,161,17659,5019,17339,crea,cream,NN,cream
10050187SL,26,6,List 6,harvest,169,5476,2463,5296,fall,fall,NN,fall
10050187SL,26,6,List 6,harvest,169,5476,2463,5296,food,food,NN,food
10050187SL,27,6,List 6,bicep,152,2559,1500,2224,muscle,muscle,NN,muscle
10050187SL,28,6,List 6,tabasco,174,3562,1389,3333,hot,hot,JJ,hot
10050187SL,28,6,List 6,tabasco,174,3562,1389,3333,sauce,sauce,NN,sauce
10050187SL,29,6,List 6,ginger,179,9437,6506,9202,spice,spice,NN,spice
10050187SL,29,6,List 6,ginger,179,9437,6506,9202,food,food,NN,food
10050187SL,30,6,List 6,wand,170,19081,5322,17921,curling,curling,VBG,curl
10050187SL,30,6,List 6,wand,170,19081,5322,17921,hair,hair,NN,hair
10050187SL,30,6,List 6,wand,170,19081,5322,17921,spraying,spraying,VBG,spray
10050187SL,31,6,List 6,blindfold,168,7742,2150,7438,cover,cover,JJ,cover
10050187SL,31,6,List 6,blindfold,168,7742,2150,7438,eyes,eyes,NNS,eye
10050187SL,31,6,List 6,blindfold,168,7742,2150,7438,keep,keep,VB,keep
10050187SL,31,6,List 6,blindfold,168,7742,2150,7438,secret,secret,JJ,secret
10050187SL,32,6,List 6,berry,180,9489,3933,9243,smoothies,smoothies,NNS,smoothy
10050187SL,32,6,List 6,berry,180,9489,3933,9243,pies,pies,NNS,pie
10050187SL,32,6,List 6,berry,180,9489,3933,9243,flavoring,flavoring,VBG,flavor
10050187SL,33,6,List 6,van,164,5140,1538,4672,drive,drive,NN,drive
10050187SL,33,6,List 6,van,164,5140,1538,4672,hauling,hauling,VBG,haul
10050187SL,34,6,List 6,bathe,157,4334,1469,3403,clean,clean,JJ,clean
10050187SL,36,6,List 6,balcony,177,3484,1294,3164,stand,stand,VBP,stand
10050187SL,37,6,List 6,physician,162,7253,3699,6942,health,health,NN,health
10050187SL,37,6,List 6,physician,162,7253,3699,6942,examination,examination,NN,examination
10050187SL,38,6,List 6,chinaware,159,6753,2333,6399,decoration,decoration,NN,decoration
10050187SL,38,6,List 6,chinaware,159,6753,2333,6399,serving,serving,VBG,serve
10050187SL,39,6,List 6,ticket,165,7143,1443,7049,speeding,speeding,VBG,speed
10050187SL,39,6,List 6,ticket,165,7143,1443,7049,entering,entering,VBG,enter
10050187SL,39,6,List 6,ticket,165,7143,1443,7049,event,event,NN,event
10077702_ela,11,25,List 50,pudding,1497,8479,3535,6290,eating,eating,VBG,eat
10077702_ela,11,25,List 50,pudding,1497,8479,3535,6290,dessert,dessert,JJ,dessert
10077702_ela,12,25,List 50,celery,1485,20077,2164,19056,stuffing,stuffing,VBG,stuff
10077702_ela,12,25,List 50,celery,1485,20077,2164,19056,eating,eating,VBG,eat
10077702_ela,12,25,List 50,celery,1485,20077,2164,19056,cooking,cooking,VBG,cook
10077702_ela,13,25,List 50,councilwoman,1489,19913,2879,10615,debates,debates,NNS,debate
10077702_ela,13,25,List 50,councilwoman,1489,19913,2879,10615,representation,representation,NN,representation
10077702_ela,14,25,List 50,geranium,1472,19936,2504,16840,planting,planting,VBG,plant
10077702_ela,14,25,List 50,geranium,1472,19936,2504,16840,herbology,herpetology,NN,herpetology
10077702_ela,14,25,List 50,geranium,1472,19936,2504,16840,botany,botany,NN,botany
10077702_ela,15,25,List 50,pineapple,1478,19834,2024,18818,pina,piney,NN,piney
10077702_ela,15,25,List 50,pineapple,1478,19834,2024,18818,colada,cola,NN,cola
10077702_ela,15,25,List 50,pineapple,1478,19834,2024,18818,cough,cough,NN,cough
10077702_ela,15,25,List 50,pineapple,1478,19834,2024,18818,remedy,remedy,NN,remedy
10077702_ela,15,25,List 50,pineapple,1478,19834,2024,18818,smoothie,smoothie,NN,smoothie
10077702_ela,15,25,List 50,pineapple,1478,19834,2024,18818,desserts,desserts,NNS,dessert
10077702_ela,16,25,List 50,nanny,1481,13994,2407,12820,cleaning,cleaning,VBG,clean
10077702_ela,16,25,List 50,nanny,1481,13994,2407,12820,protect,protect,JJ,protect
10077702_ela,16,25,List 50,nanny,1481,13994,2407,12820,kids,kids,NNS,kid
10077702_ela,16,25,List 50,nanny,1481,13994,2407,12820,watch,watch,VBP,watch
10077702_ela,16,25,List 50,nanny,1481,13994,2407,12820,children,children,NNS,child
10077702_ela,17,25,List 50,houseboy,1501,13822,2244,8445,cleaning,cleaning,VBG,clean
10077702_ela,17,25,List 50,houseboy,1501,13822,2244,8445,mowing,mowing,VBG,mow
10077702_ela,17,25,List 50,houseboy,1501,13822,2244,8445,lawn,lawn,NN,lawn
10077702_ela,18,25,List 50,corset,1494,20056,2406,18739,fashion,fashion,NN,fashion
10077702_ela,18,25,List 50,corset,1494,20056,2406,18739,lingerie,lingerie,JJ,lingerie
10077702_ela,18,25,List 50,corset,1494,20056,2406,18739,waist,waist,JJ,waist
10077702_ela,18,25,List 50,corset,1494,20056,2406,18739,training,training,NN,training
10077702_ela,19,25,List 50,necktie,1483,11261,2593,10129,weddings,weddings,NNS,wedding
10077702_ela,19,25,List 50,necktie,1483,11261,2593,10129,prom,prom,IN,prom
10077702_ela,19,25,List 50,necktie,1483,11261,2593,10129,formals,formals,NNS,formal
10077702_ela,19,25,List 50,necktie,1483,11261,2593,10129,photography,photography,VBP,photography
10077702_ela,20,25,List 50,orange,1490,11622,1945,8815,juice,juice,NN,juice
10077702_ela,20,25,List 50,orange,1490,11622,1945,8815,peeling,peeling,VBG,peel
10077702_ela,21,25,List 50,shallot,1480,4281,2205,3219,cooking,cooking,VBG,cook
10077702_ela,22,25,List 50,cliff,1495,14213,3095,12151,diving,diving,VBG,dive
10077702_ela,22,25,List 50,cliff,1495,14213,3095,12151,hiking,hiking,VBG,hike
10077702_ela,22,25,List 50,cliff,1495,14213,3095,12151,climbing,climbing,VBG,climb
10077702_ela,23,25,List 50,coin,1486,10584,1592,9559,payments,payments,NNS,payment
10077702_ela,23,25,List 50,coin,1486,10584,1592,9559,wishes,wishes,NNS,wish
10077702_ela,23,25,List 50,coin,1486,10584,1592,9559,bets,bets,NNS,bet
10077702_ela,24,25,List 50,wildcat,1475,9974,7650,8643,hunting,hunting,VBG,hunt
10077702_ela,25,25,List 50,pullover,1477,21695,1829,19715,warmth,warmth,JJ,warmth
10077702_ela,25,25,List 50,pullover,1477,21695,1829,19715,fashion,fashion,NN,fashion
10077702_ela,25,25,List 50,pullover,1477,21695,1829,19715,comfortability,comfort ability,NN,comfort ability
10077702_ela,26,25,List 50,shavings,1499,8020,2959,5329,sawdust,sawdust,JJ,sawdust
10077702_ela,27,25,List 50,cent,1474,6392,2765,5355,payment,payment,NN,payment
10077702_ela,27,25,List 50,cent,1474,6392,2765,5355,tip,tip,NN,tip
10077702_ela,28,25,List 50,saddle,1500,6744,1439,4926,horseback,horseback,NN,horseback
10077702_ela,28,25,List 50,saddle,1500,6744,1439,4926,riding,riding,VBG,rid
10077702_ela,29,25,List 50,potato,1484,12325,1571,11534,cooking,cooking,VBG,cook
10077702_ela,29,25,List 50,potato,1484,12325,1571,11534,frying,frying,VBG,fry
10077702_ela,29,25,List 50,potato,1484,12325,1571,11534,baking,baking,VBG,bake
10077702_ela,29,25,List 50,potato,1484,12325,1571,11534,eating,eating,VBG,eat
10077702_ela,30,25,List 50,Ladder,1498,9668,1621,8784,climbing,climbing,VBG,climb
10077702_ela,30,25,List 50,Ladder,1498,9668,1621,8784,reaching,reaching,VBG,reach
10077702_ela,30,25,List 50,Ladder,1498,9668,1621,8784,construction,construction,NN,construction
10077702_ela,31,25,List 50,drywall,1482,10140,3691,9309,construction,construction,NN,construction
10077702_ela,31,25,List 50,drywall,1482,10140,3691,9309,repair,repair,NN,repair
10077702_ela,31,25,List 50,drywall,1482,10140,3691,9309,building,building,VBG,build
10077702_ela,32,25,List 50,poultry,1488,10946,2563,9578,cooking,cooking,VBG,cook
10077702_ela,32,25,List 50,poultry,1488,10946,2563,9578,eating,eating,VBG,eat
10077702_ela,33,25,List 50,muzzle,1491,10592,1959,4368,restraint,restraint,NN,restraint
10077702_ela,35,25,List 50,sombrero,1493,6349,2074,5442,hat,hat,DT,hat
10077702_ela,35,25,List 50,sombrero,1493,6349,2074,5442,decoration,decoration,NN,decoration
10077702_ela,36,25,List 50,merchant,1479,7685,2385,6259,seller,seller,NN,seller
10077702_ela,36,25,List 50,merchant,1479,7685,2385,6259,persuasion,persuasion,NN,persuasion
10077702_ela,37,25,List 50,metal,1492,19438,2025,18632,welding,welding,VBG,weld
10077702_ela,37,25,List 50,metal,1492,19438,2025,18632,building,building,NN,building
10077702_ela,37,25,List 50,metal,1492,19438,2025,18632,construction,construction,NN,construction
10077702_ela,37,25,List 50,metal,1492,19438,2025,18632,jewelry,jewelry,NN,jewelry
10077702_ela,38,25,List 50,needle,1496,16103,3477,14893,blood,blood,NN,blood
10077702_ela,38,25,List 50,needle,1496,16103,3477,14893,drawing,drawing,VBG,draw
10077702_ela,38,25,List 50,needle,1496,16103,3477,14893,iv,iv,JJ,iv
10077702_ela,38,25,List 50,needle,1496,16103,3477,14893,medication,medication,NN,medication
10077702_ela,40,25,List 50,joystick,1473,6930,4449,6122,video,video,NN,video
10077702_ela,40,25,List 50,joystick,1473,6930,4449,6122,games,games,NNS,game
10085738,11,18,List 68,violinist,2035,18294,7619,16875,orchestra,orchestra,VBP,orchestra
10085738,11,18,List 68,violinist,2035,18294,7619,16875,wedding,wedding,VBG,wed
10085738,12,18,List 68,chickenfeed,2025,5244,2039,4904,feed,feed,NN,feed
10085738,12,18,List 68,chickenfeed,2025,5244,2039,4904,chickens,chickens,NNS,chicken
10085738,13,18,List 68,sketchpad,2016,6241,2309,5923,draw,draw,VBP,draw
10085738,13,18,List 68,sketchpad,2016,6241,2309,5923,write,write,JJ,write
10085738,13,18,List 68,sketchpad,2016,6241,2309,5923,notes,notes,NNS,note
10085738,14,18,List 68,chisel,2013,9109,2801,8895,sculptures,sculptures,NNS,sculpture
10085738,14,18,List 68,chisel,2013,9109,2801,8895,buildings,buildings,NNS,building
10085738,15,18,List 68,umbrella,2020,6131,2401,5553,rain,rain,VBP,rain
10085738,15,18,List 68,umbrella,2020,6131,2401,5553,sun,sun,JJ,sun
10085738,16,18,List 68,whistle,2015,9081,1499,8703,stop,stop,NN,stop
10085738,16,18,List 68,whistle,2015,9081,1499,8703,someone,someone,NN,someone
10085738,16,18,List 68,whistle,2015,9081,1499,8703,stop,stop,JJ,stop
10085738,16,18,List 68,whistle,2015,9081,1499,8703,game,game,NN,game
10085738,17,18,List 68,supper,2014,4870,2220,4550,dinner,dinner,NN,dinner
10085738,17,18,List 68,supper,2014,4870,2220,4550,eat,eat,NN,eat
10085738,18,18,List 68,questionnaire,2012,13974,2474,13732,ask,ask,JJ,ask
10085738,18,18,List 68,questionnaire,2012,13974,2474,13732,questions,questions,NNS,question
10085738,18,18,List 68,questionnaire,2012,13974,2474,13732,learn,learn,VBP,learn
10085738,18,18,List 68,questionnaire,2012,13974,2474,13732,people,people,NNS,people
10085738,19,18,List 68,teaspoon,2041,5002,1609,4611,baking,baking,VBG,bake
10085738,19,18,List 68,teaspoon,2041,5002,1609,4611,eating,eating,VBG,eat
10085738,20,18,List 68,stitching,2032,13265,4008,12947,wound,wound,NN,wound
10085738,20,18,List 68,stitching,2032,13265,4008,12947,clothes,clothes,NNS,clothes
10085738,20,18,List 68,stitching,2032,13265,4008,12947,making,making,VBG,make
10085738,20,18,List 68,stitching,2032,13265,4008,12947,blankets,blankets,NNS,blanket
10085738,22,18,List 68,primates,2036,7225,6056,6956,animals,animals,NNS,animal
10085738,23,18,List 68,slacks,2026,2762,1609,2323,pants,pants,NNS,pant
10085738,24,18,List 68,staircase,2023,11258,1838,11049,walk,walk,VBP,walk
10085738,24,18,List 68,staircase,2023,11258,1838,11049,decorate,decorate,JJ,decorate
10085738,26,18,List 68,dorm,2037,3180,2162,2731,live,live,NNS,live
10085738,27,18,List 68,slipknot,2024,10825,4462,10630,can,can,MD,can
10085738,27,18,List 68,slipknot,2024,10825,4462,10630,easily,easily,RB,easily
10085738,27,18,List 68,slipknot,2024,10825,4462,10630,escape,escape,VB,escape
10085738,28,18,List 68,servant,2038,8399,1879,8257,worker,worker,NN,worker
10085738,28,18,List 68,servant,2038,8399,1879,8257,cleans,cleans,NNS,clean
10085738,29,18,List 68,winch,2021,5848,3094,5582,nice,nice,JJ,nice
10085738,30,18,List 68,pig,2031,13908,9330,13166,food,food,NN,food
10085738,30,18,List 68,pig,2031,13908,9330,13166,hunting,hunting,VBG,hunt
10085738,32,18,List 68,toothbrush,2040,9202,1675,8915,brush,brush,NN,brush
10085738,32,18,List 68,toothbrush,2040,9202,1675,8915,teeth,teeth,NNS,teeth
10085738,32,18,List 68,toothbrush,2040,9202,1675,8915,clean,clean,VBP,clean
10085738,32,18,List 68,toothbrush,2040,9202,1675,8915,grout,grout,NN,grout
10085738,33,18,List 68,wiring,2018,19761,5010,19322,walls,walls,NNS,wall
10085738,33,18,List 68,wiring,2018,19761,5010,19322,tvs,tv,VBP,tv
10085738,34,18,List 68,zucchini,2027,3591,2883,3264,eat,eat,NN,eat
10085738,35,18,List 68,guy,2033,19311,13500,19123,picking,picking,VBG,pick
10085738,35,18,List 68,guy,2033,19311,13500,19123,heavy,heavy,JJ,heavy
10085738,35,18,List 68,guy,2033,19311,13500,19123,stuff,stuff,NN,stuff
10085738,36,18,List 68,ottoman,2028,5554,3278,5256,prop,prop,NN,prop
10085738,36,18,List 68,ottoman,2028,5554,3278,5256,legs,legs,VBD,legs
10085738,37,18,List 68,button,2034,6682,1317,6450,push,push,NN,push
10085738,37,18,List 68,button,2034,6682,1317,6450,fasten,fasten,NN,fasten
10085738,38,18,List 68,businessman,2022,20053,13953,19833,help,help,NN,help
10085738,38,18,List 68,businessman,2022,20053,13953,19833,paperwork,paperwork,VB,paperwork
10085738,39,18,List 68,nursery,2039,4838,3608,4594,baby,baby,JJ,baby
10085738,40,18,List 68,bellman,2029,10941,1562,10731,luggage,luggage,NN,luggage
10085738,40,18,List 68,bellman,2029,10941,1562,10731,directions,directions,NNS,direction
10086350JAM,11,25,List 100,breadboard,2988,40620,7195,34356,hold,hold,VBP,hold
10086350JAM,11,25,List 100,breadboard,2988,40620,7195,34356,serve,serve,VBP,serve
10086350JAM,11,25,List 100,breadboard,2988,40620,7195,34356,wash,wash,JJ,wash
10086350JAM,11,25,List 100,breadboard,2988,40620,7195,34356,make,make,NN,make
10086350JAM,11,25,List 100,breadboard,2988,40620,7195,34356,sand,sand,NN,sand
10086350JAM,13,25,List 100,debris,2972,31304,5525,27578,topping,topping,VBG,top
10086350JAM,13,25,List 100,debris,2972,31304,5525,27578,cleanup,cleanup,NN,cleanup
10086350JAM,13,25,List 100,debris,2972,31304,5525,27578,distribution,distribution,NN,distribution
10086350JAM,14,25,List 100,badminton,3000,39692,3252,38883,play,play,NN,play
10086350JAM,14,25,List 100,badminton,3000,39692,3252,38883,serve,serve,VBP,serve
10086350JAM,14,25,List 100,badminton,3000,39692,3252,38883,setup,setup,NN,setup
10086350JAM,14,25,List 100,badminton,3000,39692,3252,38883,score,score,NN,score
10086350JAM,14,25,List 100,badminton,3000,39692,3252,38883,watch,watch,NN,watch
10086350JAM,14,25,List 100,badminton,3000,39692,3252,38883,purchase,purchase,NN,purchase
10086350JAM,14,25,List 100,badminton,3000,39692,3252,38883,record,record,NN,record
10086350JAM,15,25,List 100,topaz,2993,27723,2985,26345,wear,wear,NN,wear
10086350JAM,15,25,List 100,topaz,2993,27723,2985,26345,show,show,VBP,show
10086350JAM,15,25,List 100,topaz,2993,27723,2985,26345,make,make,VB,make
10086350JAM,15,25,List 100,topaz,2993,27723,2985,26345,jewelry,jewelry,NN,jewelry
10086350JAM,15,25,List 100,topaz,2993,27723,2985,26345,sell,sell,NN,sell
10086350JAM,15,25,List 100,topaz,2993,27723,2985,26345,buy,buy,VB,buy
10086350JAM,16,25,List 100,knickers,2978,29046,2795,27915,wear,wear,JJ,wear
10086350JAM,16,25,List 100,knickers,2978,29046,2795,27915,take,take,NN,take
10086350JAM,16,25,List 100,knickers,2978,29046,2795,27915,put,put,VBD,put
10086350JAM,16,25,List 100,knickers,2978,29046,2795,27915,throw,throw,RP,throw
10086350JAM,16,25,List 100,knickers,2978,29046,2795,27915,wash,wash,NN,wash
10086350JAM,16,25,List 100,knickers,2978,29046,2795,27915,dirty,dirty,NN,dirty
10086350JAM,17,25,List 100,bowling,2981,43051,2944,41308,play,play,NN,play
10086350JAM,17,25,List 100,bowling,2981,43051,2944,41308,watch,watch,NN,watch
10086350JAM,17,25,List 100,bowling,2981,43051,2944,41308,score,score,NN,score
10086350JAM,17,25,List 100,bowling,2981,43051,2944,41308,loose,loose,JJ,loose
10086350JAM,17,25,List 100,bowling,2981,43051,2944,41308,win,win,JJ,win
10086350JAM,17,25,List 100,bowling,2981,43051,2944,41308,practice,practice,NN,practice
10086350JAM,18,25,List 100,greenhouse,2976,36967,2746,35763,plant,plant,NN,plant
10086350JAM,18,25,List 100,greenhouse,2976,36967,2746,35763,set,set,VBN,set
10086350JAM,18,25,List 100,greenhouse,2976,36967,2746,35763,maintain,maintain,VBP,maintain
10086350JAM,18,25,List 100,greenhouse,2976,36967,2746,35763,organize,organize,JJ,organize
10086350JAM,18,25,List 100,greenhouse,2976,36967,2746,35763,clean,clean,JJ,clean
10086350JAM,18,25,List 100,greenhouse,2976,36967,2746,35763,regulate,regulate,NN,regulate
10086350JAM,18,25,List 100,greenhouse,2976,36967,2746,35763,sell,sell,NN,sell
10086350JAM,18,25,List 100,greenhouse,2976,36967,2746,35763,buy,buy,VB,buy
10086350JAM,19,25,List 100,wallboard,2979,43033,3443,40209,write,write,JJ,write
10086350JAM,19,25,List 100,wallboard,2979,43033,3443,40209,throw,throw,NN,throw
10086350JAM,19,25,List 100,wallboard,2979,43033,3443,40209,put,put,VBD,put
10086350JAM,19,25,List 100,wallboard,2979,43033,3443,40209,pin,pin,JJ,pin
10086350JAM,19,25,List 100,wallboard,2979,43033,3443,40209,display,display,NN,display
10086350JAM,19,25,List 100,wallboard,2979,43033,3443,40209,hide,hide,NN,hide
10086350JAM,19,25,List 100,wallboard,2979,43033,3443,40209,organize,organize,VB,organize
10086350JAM,20,25,List 100,school,2980,48187,2725,47304,attend,attend,JJ,attend
10086350JAM,20,25,List 100,school,2980,48187,2725,47304,build,build,NN,build
10086350JAM,20,25,List 100,school,2980,48187,2725,47304,create,create,NN,create
10086350JAM,20,25,List 100,school,2980,48187,2725,47304,despise,despise,NN,despise
10086350JAM,20,25,List 100,school,2980,48187,2725,47304,cherish,cherish,JJ,cherish
10086350JAM,20,25,List 100,school,2980,48187,2725,47304,go,go,VBP,go
10086350JAM,20,25,List 100,school,2980,48187,2725,47304,leave,leave,JJ,leave
10086350JAM,20,25,List 100,school,2980,48187,2725,47304,run,run,VBN,run
10086350JAM,20,25,List 100,school,2980,48187,2725,47304,late,late,RB,late
10086350JAM,20,25,List 100,school,2980,48187,2725,47304,early,early,JJ,early
10086350JAM,20,25,List 100,school,2980,48187,2725,47304,show,show,NN,show
10086350JAM,21,25,List 100,waffle,2984,40471,2980,38027,eat,eat,NN,eat
10086350JAM,21,25,List 100,waffle,2984,40471,2980,38027,make,make,VBP,make
10086350JAM,21,25,List 100,waffle,2984,40471,2980,38027,serve,serve,NN,serve
10086350JAM,21,25,List 100,waffle,2984,40471,2980,38027,order,order,NN,order
10086350JAM,21,25,List 100,waffle,2984,40471,2980,38027,drown,drown,VBN,drown
10086350JAM,21,25,List 100,waffle,2984,40471,2980,38027,syrup,syrup,RB,syrup
10086350JAM,21,25,List 100,waffle,2984,40471,2980,38027,buttered,buttered,JJ,buttered
10086350JAM,22,25,List 100,Fern,2977,49919,4304,48504,watch,watch,NN,watch
10086350JAM,22,25,List 100,Fern,2977,49919,4304,48504,tend,tend,VBP,tend
10086350JAM,22,25,List 100,Fern,2977,49919,4304,48504,keep,keep,JJ,keep
10086350JAM,22,25,List 100,Fern,2977,49919,4304,48504,water,water,NN,water
10086350JAM,22,25,List 100,Fern,2977,49919,4304,48504,dry,dry,JJ,dry
10086350JAM,22,25,List 100,Fern,2977,49919,4304,48504,rot,rot,NN,rot
10086350JAM,22,25,List 100,Fern,2977,49919,4304,48504,drown,drown,JJ,drown
10086350JAM,22,25,List 100,Fern,2977,49919,4304,48504,cut,cut,NN,cut
10086350JAM,22,25,List 100,Fern,2977,49919,4304,48504,splice,splice,NN,splice
10086350JAM,23,25,List 100,fieldstone,2991,18899,4665,17518,watch,watch,VBP,watch
10086350JAM,23,25,List 100,fieldstone,2991,18899,4665,17518,take,take,VB,take
10086350JAM,23,25,List 100,fieldstone,2991,18899,4665,17518,give,give,NN,give
10086350JAM,23,25,List 100,fieldstone,2991,18899,4665,17518,study,study,NN,study
10086350JAM,24,25,List 100,waist,2998,61299,2335,59207,train,train,VBP,train
10086350JAM,24,25,List 100,waist,2998,61299,2335,59207,bend,bend,NN,bend
10086350JAM,24,25,List 100,waist,2998,61299,2335,59207,sinch,sins,NNS,sin
10086350JAM,24,25,List 100,waist,2998,61299,2335,59207,tighten,tighten,VBP,tighten
10086350JAM,24,25,List 100,waist,2998,61299,2335,59207,enhance,enhance,RB,enhance
10086350JAM,24,25,List 100,waist,2998,61299,2335,59207,highlight,highlight,JJ,highlight
10086350JAM,24,25,List 100,waist,2998,61299,2335,59207,hide,hide,NN,hide
10086350JAM,24,25,List 100,waist,2998,61299,2335,59207,slim,slim,JJ,slim
10086350JAM,25,25,List 100,centipede,2987,28757,2584,26782,watch,watch,NN,watch
10086350JAM,25,25,List 100,centipede,2987,28757,2584,26782,grow,grow,NN,grow
10086350JAM,25,25,List 100,centipede,2987,28757,2584,26782,hatch,hatch,NN,hatch
10086350JAM,25,25,List 100,centipede,2987,28757,2584,26782,kill,kill,NN,kill
10086350JAM,25,25,List 100,centipede,2987,28757,2584,26782,study,study,VB,study
10086350JAM,25,25,List 100,centipede,2987,28757,2584,26782,draw,draw,JJ,draw
10086350JAM,25,25,List 100,centipede,2987,28757,2584,26782,paint,paint,NN,paint
10086350JAM,26,25,List 100,earplugs,2997,31720,3447,28672,listen,listen,JJ,listen
10086350JAM,26,25,List 100,earplugs,2997,31720,3447,28672,clean,clean,JJ,clean
10086350JAM,26,25,List 100,earplugs,2997,31720,3447,28672,charge,charge,NN,charge
10086350JAM,26,25,List 100,earplugs,2997,31720,3447,28672,sync,sync,JJ,sync
10086350JAM,26,25,List 100,earplugs,2997,31720,3447,28672,give,give,JJ,give
10086350JAM,26,25,List 100,earplugs,2997,31720,3447,28672,take,take,NN,take
10086350JAM,26,25,List 100,earplugs,2997,31720,3447,28672,recieve,receive,VBP,receive
10086350JAM,27,25,List 100,wrist,2994,36595,2580,35608,bend,bend,NN,bend
10086350JAM,27,25,List 100,wrist,2994,36595,2580,35608,twist,twist,NN,twist
10086350JAM,27,25,List 100,wrist,2994,36595,2580,35608,roll,roll,NN,roll
10086350JAM,27,25,List 100,wrist,2994,36595,2580,35608,flick,flick,JJ,flick
10086350JAM,27,25,List 100,wrist,2994,36595,2580,35608,support,support,NN,support
10086350JAM,27,25,List 100,wrist,2994,36595,2580,35608,damage,damage,NN,damage
10086350JAM,27,25,List 100,wrist,2994,36595,2580,35608,injur,injure,NN,injure
10086350JAM,27,25,List 100,wrist,2994,36595,2580,35608,tattoo,tattoo,NN,tattoo
10086350JAM,28,25,List 100,respirator,2996,29382,2791,28612,wear,wear,JJ,wear
10086350JAM,28,25,List 100,respirator,2996,29382,2791,28612,buy,buy,NN,buy
10086350JAM,28,25,List 100,respirator,2996,29382,2791,28612,sell,sell,VBP,sell
10086350JAM,28,25,List 100,respirator,2996,29382,2791,28612,apply,apply,RB,apply
10086350JAM,28,25,List 100,respirator,2996,29382,2791,28612,remove,remove,VB,remove
10086350JAM,28,25,List 100,respirator,2996,29382,2791,28612,clean,clean,NN,clean
10086350JAM,28,25,List 100,respirator,2996,29382,2791,28612,use,use,NN,use
10086350JAM,29,25,List 100,deck,2989,45458,3337,39673,walk,walk,VBP,walk
10086350JAM,29,25,List 100,deck,2989,45458,3337,39673,sit,sit,NN,sit
10086350JAM,29,25,List 100,deck,2989,45458,3337,39673,stand,stand,VBP,stand
10086350JAM,29,25,List 100,deck,2989,45458,3337,39673,jump,jump,NN,jump
10086350JAM,29,25,List 100,deck,2989,45458,3337,39673,paint,paint,NN,paint
10086350JAM,29,25,List 100,deck,2989,45458,3337,39673,stain,stain,NN,stain
10086350JAM,29,25,List 100,deck,2989,45458,3337,39673,admire,admire,VBP,admire
10086350JAM,29,25,List 100,deck,2989,45458,3337,39673,build,build,JJ,build
10086350JAM,29,25,List 100,deck,2989,45458,3337,39673,demolish,demolish,JJ,demolish
10086350JAM,29,25,List 100,deck,2989,45458,3337,39673,burn,burn,NN,burn
10086350JAM,30,25,List 100,dish,2982,38280,4312,37447,serve,serve,VBP,serve
10086350JAM,30,25,List 100,dish,2982,38280,4312,37447,eat,eat,NN,eat
10086350JAM,30,25,List 100,dish,2982,38280,4312,37447,wash,wash,NN,wash
10086350JAM,30,25,List 100,dish,2982,38280,4312,37447,dirty,dirty,NN,dirty
10086350JAM,30,25,List 100,dish,2982,38280,4312,37447,use,use,NN,use
10086350JAM,30,25,List 100,dish,2982,38280,4312,37447,throw,throw,JJ,throw
10086350JAM,30,25,List 100,dish,2982,38280,4312,37447,catch,catch,NN,catch
10086350JAM,30,25,List 100,dish,2982,38280,4312,37447,break,break,NN,break
10086350JAM,30,25,List 100,dish,2982,38280,4312,37447,buy,buy,VB,buy
10086350JAM,30,25,List 100,dish,2982,38280,4312,37447,sell,sell,JJ,sell
10086350JAM,30,25,List 100,dish,2982,38280,4312,37447,collect,collect,JJ,collect
10086350JAM,31,25,List 100,guardrail,2992,50058,4084,48797,paint,paint,NN,paint
10086350JAM,31,25,List 100,guardrail,2992,50058,4084,48797,stain,stain,NN,stain
10086350JAM,31,25,List 100,guardrail,2992,50058,4084,48797,decorate,decorate,NN,decorate
10086350JAM,31,25,List 100,guardrail,2992,50058,4084,48797,hold,hold,NN,hold
10086350JAM,31,25,List 100,guardrail,2992,50058,4084,48797,use,use,NN,use
10086350JAM,31,25,List 100,guardrail,2992,50058,4084,48797,support,support,NN,support
10086350JAM,31,25,List 100,guardrail,2992,50058,4084,48797,destroy,destroy,NN,destroy
10086350JAM,32,25,List 100,dye,2973,49964,4396,45091,use,use,NN,use
10086350JAM,32,25,List 100,dye,2973,49964,4396,45091,blend,blend,VBP,blend
10086350JAM,32,25,List 100,dye,2973,49964,4396,45091,apply,apply,RB,apply
10086350JAM,32,25,List 100,dye,2973,49964,4396,45091,recieve,receive,JJ,receive
10086350JAM,32,25,List 100,dye,2973,49964,4396,45091,give,give,NN,give
10086350JAM,32,25,List 100,dye,2973,49964,4396,45091,sell,sell,NN,sell
10086350JAM,32,25,List 100,dye,2973,49964,4396,45091,buy,buy,VB,buy
10086350JAM,32,25,List 100,dye,2973,49964,4396,45091,gift,gift,NN,gift
10086350JAM,32,25,List 100,dye,2973,49964,4396,45091,wash,wash,NN,wash
10086350JAM,33,25,List 100,blowgun,2986,20595,3851,19119,use,use,NN,use
10086350JAM,33,25,List 100,blowgun,2986,20595,3851,19119,buy,buy,VBP,buy
10086350JAM,33,25,List 100,blowgun,2986,20595,3851,19119,sell,sell,NN,sell
10086350JAM,33,25,List 100,blowgun,2986,20595,3851,19119,draw,draw,NN,draw
10086350JAM,34,25,List 100,pulley,2974,31049,2596,24849,use,use,NN,use
10086350JAM,34,25,List 100,pulley,2974,31049,2596,24849,set,set,VBN,set
10086350JAM,34,25,List 100,pulley,2974,31049,2596,24849,remove,remove,VB,remove
10086350JAM,34,25,List 100,pulley,2974,31049,2596,24849,adjust,adjust,JJ,adjust
10086350JAM,34,25,List 100,pulley,2974,31049,2596,24849,observe,observe,NN,observe
10086350JAM,35,25,List 100,trampoline,2995,36766,2362,32621,jump,jump,NN,jump
10086350JAM,35,25,List 100,trampoline,2995,36766,2362,32621,sit,sit,NN,sit
10086350JAM,35,25,List 100,trampoline,2995,36766,2362,32621,lay,lay,VBD,lay
10086350JAM,35,25,List 100,trampoline,2995,36766,2362,32621,play,play,NN,play
10086350JAM,35,25,List 100,trampoline,2995,36766,2362,32621,stand,stand,NN,stand
10086350JAM,35,25,List 100,trampoline,2995,36766,2362,32621,enjoy,enjoy,NN,enjoy
10086350JAM,35,25,List 100,trampoline,2995,36766,2362,32621,use,use,VBP,use
10086350JAM,35,25,List 100,trampoline,2995,36766,2362,32621,buy,buy,NN,buy
10086350JAM,35,25,List 100,trampoline,2995,36766,2362,32621,sell,sell,NN,sell
10086350JAM,35,25,List 100,trampoline,2995,36766,2362,32621,desire,desire,NN,desire
10086350JAM,36,25,List 100,limb,2983,63535,4141,53285,break,break,NN,break
10086350JAM,36,25,List 100,limb,2983,63535,4141,53285,wash,wash,NN,wash
10086350JAM,36,25,List 100,limb,2983,63535,4141,53285,hold,hold,VBP,hold
10086350JAM,36,25,List 100,limb,2983,63535,4141,53285,support,support,NN,support
10086350JAM,36,25,List 100,limb,2983,63535,4141,53285,hit,hit,VBD,hit
10086350JAM,36,25,List 100,limb,2983,63535,4141,53285,hurt,hurt,VBN,hurt
10086350JAM,36,25,List 100,limb,2983,63535,4141,53285,burn,burn,JJ,burn
10086350JAM,37,25,List 100,brow,2999,48527,2412,46646,draw,draw,JJ,draw
10086350JAM,37,25,List 100,brow,2999,48527,2412,46646,scratch,scratch,NN,scratch
10086350JAM,37,25,List 100,brow,2999,48527,2412,46646,tweeze,tweezers,NNS,tweezer
10086350JAM,37,25,List 100,brow,2999,48527,2412,46646,thread,thread,VBP,thread
10086350JAM,37,25,List 100,brow,2999,48527,2412,46646,wax,wax,NN,wax
10086350JAM,37,25,List 100,brow,2999,48527,2412,46646,raise,raise,VB,raise
10086350JAM,37,25,List 100,brow,2999,48527,2412,46646,lower,lower,JJR,lower
10086350JAM,37,25,List 100,brow,2999,48527,2412,46646,furrow,furrow,NN,furrow
10086350JAM,37,25,List 100,brow,2999,48527,2412,46646,dye,dye,NN,dye
10086350JAM,37,25,List 100,brow,2999,48527,2412,46646,shave,shave,VBP,shave
10086350JAM,37,25,List 100,brow,2999,48527,2412,46646,grow,grow,NN,grow
10086350JAM,38,25,List 100,marketeer,2990,24066,4051,22154,know,know,VBP,know
10086350JAM,38,25,List 100,marketeer,2990,24066,4051,22154,become,become,VBN,become
10086350JAM,38,25,List 100,marketeer,2990,24066,4051,22154,meet,meet,JJ,meet
10086350JAM,38,25,List 100,marketeer,2990,24066,4051,22154,use,use,JJ,use
10086350JAM,38,25,List 100,marketeer,2990,24066,4051,22154,hire,hire,NN,hire
10086350JAM,38,25,List 100,marketeer,2990,24066,4051,22154,recommend,recommend,VBP,recommend
10086350JAM,39,25,List 100,hound,2975,69390,8961,66126,buy,buy,NN,buy
10086350JAM,39,25,List 100,hound,2975,69390,8961,66126,sell,sell,VBP,sell
10086350JAM,39,25,List 100,hound,2975,69390,8961,66126,breed,breed,NN,breed
10086350JAM,39,25,List 100,hound,2975,69390,8961,66126,pet,pet,JJ,pet
10086350JAM,39,25,List 100,hound,2975,69390,8961,66126,play,play,NN,play
10086350JAM,39,25,List 100,hound,2975,69390,8961,66126,bathe,bathe,NN,bathe
10086350JAM,39,25,List 100,hound,2975,69390,8961,66126,hunt,hunt,NN,hunt
10086350JAM,39,25,List 100,hound,2975,69390,8961,66126,kill,kill,NNP,kill
10086350JAM,39,25,List 100,hound,2975,69390,8961,66126,bury,bury,NN,bury
10086350JAM,40,25,List 100,tee,2985,39863,7033,38756,stick,stick,NN,stick
10086350JAM,40,25,List 100,tee,2985,39863,7033,38756,grass,grass,NN,grass
10086350JAM,40,25,List 100,tee,2985,39863,7033,38756,hit,hit,VBD,hit
10086350JAM,40,25,List 100,tee,2985,39863,7033,38756,knock,knock,NN,knock
10086350JAM,40,25,List 100,tee,2985,39863,7033,38756,set,set,VBN,set
10086350JAM,40,25,List 100,tee,2985,39863,7033,38756,place,place,NN,place
10086350JAM,40,25,List 100,tee,2985,39863,7033,38756,give,give,JJ,give
10086350JAM,40,25,List 100,tee,2985,39863,7033,38756,take,take,NN,take
10086350JAM,40,25,List 100,tee,2985,39863,7033,38756,use,use,NN,use
10088817XD,11,17,List 17,bubble,496,34169,4360,13846,pop,pop,NN,pop
10088817XD,11,17,List 17,bubble,496,34169,4360,13846,blow,blow,NN,blow
10088817XD,11,17,List 17,bubble,496,34169,4360,13846,eat,eat,NN,eat
10088817XD,12,17,List 17,colander,502,53368,23412,31175,strain,strain,VBP,strain
10088817XD,12,17,List 17,colander,502,53368,23412,31175,pour,pour,JJ,pour
10088817XD,13,17,List 17,gearbox,488,70926,60476,68357,increase,increase,NN,increase
10088817XD,13,17,List 17,gearbox,488,70926,60476,68357,decrease,decrease,NN,decrease
10088817XD,13,17,List 17,gearbox,488,70926,60476,68357,break,break,NN,break
10088817XD,14,17,List 17,bookseller,484,30681,3062,26779,sell,sell,VB,sell
10088817XD,14,17,List 17,bookseller,484,30681,3062,26779,return,return,JJ,return
10088817XD,14,17,List 17,bookseller,484,30681,3062,26779,scan,scan,JJ,scan
10088817XD,14,17,List 17,bookseller,484,30681,3062,26779,read,read,NN,read
10088817XD,14,17,List 17,bookseller,484,30681,3062,26779,stock,stock,NN,stock
10088817XD,14,17,List 17,bookseller,484,30681,3062,26779,produce,produce,VBP,produce
10088817XD,15,17,List 17,headphones,487,64559,4167,63290,break,break,JJ,break
10088817XD,15,17,List 17,headphones,487,64559,4167,63290,play,play,NN,play
10088817XD,15,17,List 17,headphones,487,64559,4167,63290,music,music,NN,music
10088817XD,15,17,List 17,headphones,487,64559,4167,63290,dirty,dirty,NN,dirty
10088817XD,16,17,List 17,frame,503,27827,5734,25077,hang,hang,NN,hang
10088817XD,16,17,List 17,frame,503,27827,5734,25077,break,break,NN,break
10088817XD,16,17,List 17,frame,503,27827,5734,25077,protect,protect,NN,protect
10088817XD,16,17,List 17,frame,503,27827,5734,25077,broadcast,broadcast,NN,broadcast
10088817XD,17,17,List 17,wart,504,22095,2389,18540,pop,pop,NN,pop
10088817XD,18,17,List 17,handbook,500,51043,4232,49749,break,break,NN,break
10088817XD,18,17,List 17,handbook,500,51043,4232,49749,give,give,JJ,give
10088817XD,18,17,List 17,handbook,500,51043,4232,49749,information,information,NN,information
10088817XD,18,17,List 17,handbook,500,51043,4232,49749,water,water,NN,water
10088817XD,18,17,List 17,handbook,500,51043,4232,49749,damaged,damaged,VBD,damage
10088817XD,18,17,List 17,handbook,500,51043,4232,49749,tear,tear,JJ,tear
10088817XD,18,17,List 17,handbook,500,51043,4232,49749,thrown,thrown,JJ,thrown
10088817XD,18,17,List 17,handbook,500,51043,4232,49749,drop,drop,NN,drop
10088817XD,18,17,List 17,handbook,500,51043,4232,49749,ran,ran,VBD,run
10088817XD,19,17,List 17,feline,495,54016,24306,52186,scratch,scratch,NN,scratch
10088817XD,19,17,List 17,feline,495,54016,24306,52186,cry,cry,NN,cry
10088817XD,19,17,List 17,feline,495,54016,24306,52186,fall,fall,NN,fall
10088817XD,19,17,List 17,feline,495,54016,24306,52186,roll,roll,NN,roll
10088817XD,19,17,List 17,feline,495,54016,24306,52186,sit,sit,NN,sit
10088817XD,19,17,List 17,feline,495,54016,24306,52186,hug,hug,NN,hug
10088817XD,19,17,List 17,feline,495,54016,24306,52186,kiss,kiss,JJ,kiss
10088817XD,20,17,List 17,kid,497,273008,92289,147195,baby,baby,NN,baby
10088817XD,20,17,List 17,kid,497,273008,92289,147195,whoop,whoop,VBD,whoop
10088817XD,20,17,List 17,kid,497,273008,92289,147195,feed,feed,JJ,feed
10088817XD,20,17,List 17,kid,497,273008,92289,147195,take,take,NN,take
10088817XD,20,17,List 17,kid,497,273008,92289,147195,care,care,NN,care
10088817XD,20,17,List 17,kid,497,273008,92289,147195,talk,talk,NN,talk
10088817XD,20,17,List 17,kid,497,273008,92289,147195,read,read,VBD,read
10088817XD,21,17,List 17,drill,486,27663,9539,18097,screws,screws,NNS,screw
10088817XD,21,17,List 17,drill,486,27663,9539,18097,building,building,VBG,build
10088817XD,22,17,List 17,aftershave,506,96424,81789,94571,wash,wash,NN,wash
10088817XD,22,17,List 17,aftershave,506,96424,81789,94571,rinse,rinse,NN,rinse
10088817XD,22,17,List 17,aftershave,506,96424,81789,94571,lotion,lotion,NN,lotion
10088817XD,23,17,List 17,doorknob,509,34617,3049,13810,twist,twist,NN,twist
10088817XD,23,17,List 17,doorknob,509,34617,3049,13810,break,break,NN,break
10088817XD,23,17,List 17,doorknob,509,34617,3049,13810,install,install,JJ,install
10088817XD,24,17,List 17,memorabilia,491,108492,81810,107301,sale,sale,NN,sale
10088817XD,24,17,List 17,memorabilia,491,108492,81810,107301,observe,observe,NN,observe
10088817XD,24,17,List 17,memorabilia,491,108492,81810,107301,study,study,NN,study
10088817XD,24,17,List 17,memorabilia,491,108492,81810,107301,put,put,VBD,put
10088817XD,24,17,List 17,memorabilia,491,108492,81810,107301,museum,museum,RB,museum
10088817XD,25,17,List 17,mincemeat,505,46936,12512,46225,eat,eat,NN,eat
10088817XD,25,17,List 17,mincemeat,505,46936,12512,46225,cook,cook,NN,cook
10088817XD,25,17,List 17,mincemeat,505,46936,12512,46225,buy,buy,VB,buy
10088817XD,25,17,List 17,mincemeat,505,46936,12512,46225,sale,sale,NN,sale
10088817XD,25,17,List 17,mincemeat,505,46936,12512,46225,hunt,hunt,NN,hunt
10088817XD,26,17,List 17,wastebasket,485,24771,3816,23111,throw,throw,VB,throw
10088817XD,26,17,List 17,wastebasket,485,24771,3816,23111,away,away,RB,away
10088817XD,26,17,List 17,wastebasket,485,24771,3816,23111,weigh,weigh,JJ,weigh
10088817XD,26,17,List 17,wastebasket,485,24771,3816,23111,note,note,NN,note
10088817XD,27,17,List 17,groom,483,27084,11832,25692,shave,shave,VBP,shave
10088817XD,27,17,List 17,groom,483,27084,11832,25692,marry,marry,VBN,marry
10088817XD,27,17,List 17,groom,483,27084,11832,25692,clean,clean,JJ,clean
10088817XD,27,17,List 17,groom,483,27084,11832,25692,love,love,NN,love
10088817XD,28,17,List 17,parka,482,45225,9844,43943,wear,wear,NN,wear
10088817XD,28,17,List 17,parka,482,45225,9844,43943,wash,wash,JJ,wash
10088817XD,28,17,List 17,parka,482,45225,9844,43943,dry,dry,JJ,dry
10088817XD,28,17,List 17,parka,482,45225,9844,43943,give,give,VB,give
10088817XD,28,17,List 17,parka,482,45225,9844,43943,away,away,RP,away
10088817XD,28,17,List 17,parka,482,45225,9844,43943,keep,keep,VB,keep
10088817XD,28,17,List 17,parka,482,45225,9844,43943,roll,roll,JJ,roll
10088817XD,28,17,List 17,parka,482,45225,9844,43943,step,step,NN,step
10088817XD,29,17,List 17,jacket,494,66084,2896,42832,wear,wear,VBP,wear
10088817XD,29,17,List 17,jacket,494,66084,2896,42832,tear,tear,JJ,tear
10088817XD,29,17,List 17,jacket,494,66084,2896,42832,wash,wash,NN,wash
10088817XD,29,17,List 17,jacket,494,66084,2896,42832,grow,grow,NN,grow
10088817XD,29,17,List 17,jacket,494,66084,2896,42832,pass,pass,NN,pas
10088817XD,30,17,List 17,caddy,490,52418,25048,46076,store,store,NN,store
10088817XD,30,17,List 17,caddy,490,52418,25048,46076,stuff,stuff,NN,stuff
10088817XD,30,17,List 17,caddy,490,52418,25048,46076,spill,spill,NN,spill
10088817XD,30,17,List 17,caddy,490,52418,25048,46076,stuff,stuff,NN,stuff
10088817XD,30,17,List 17,caddy,490,52418,25048,46076,can,can,MD,can
10088817XD,30,17,List 17,caddy,490,52418,25048,46076,break,break,VB,break
10088817XD,30,17,List 17,caddy,490,52418,25048,46076,can,can,MD,can
10088817XD,30,17,List 17,caddy,490,52418,25048,46076,tear,tear,VB,tear
10088817XD,31,17,List 17,fingerboard,507,31085,14978,29918,play,play,VB,play
10088817XD,31,17,List 17,fingerboard,507,31085,14978,29918,throw,throw,VB,throw
10088817XD,31,17,List 17,fingerboard,507,31085,14978,29918,away,away,RB,away
10088817XD,31,17,List 17,fingerboard,507,31085,14978,29918,lose,lose,JJ,lose
10088817XD,32,17,List 17,rum,492,23401,2070,22012,drink,drink,NN,drink
10088817XD,32,17,List 17,rum,492,23401,2070,22012,throw,throw,NN,throw
10088817XD,32,17,List 17,rum,492,23401,2070,22012,spill,spill,NN,spill
10088817XD,32,17,List 17,rum,492,23401,2070,22012,throw,throw,VB,throw
10088817XD,32,17,List 17,rum,492,23401,2070,22012,away,away,RP,away
10088817XD,33,17,List 17,washerwoman,511,47055,24933,44901,wash,wash,JJ,wash
10088817XD,33,17,List 17,washerwoman,511,47055,24933,44901,dry,dry,JJ,dry
10088817XD,33,17,List 17,washerwoman,511,47055,24933,44901,work,work,NN,work
10088817XD,33,17,List 17,washerwoman,511,47055,24933,44901,love,love,NN,love
10088817XD,33,17,List 17,washerwoman,511,47055,24933,44901,pay,pay,NN,pay
10088817XD,34,17,List 17,sleigh,508,30751,3167,29557,ride,ride,VBP,ride
10088817XD,34,17,List 17,sleigh,508,30751,3167,29557,fall,fall,RB,fall
10088817XD,34,17,List 17,sleigh,508,30751,3167,29557,lose,lose,JJ,lose
10088817XD,34,17,List 17,sleigh,508,30751,3167,29557,break,break,NN,break
10088817XD,34,17,List 17,sleigh,508,30751,3167,29557,buy,buy,VB,buy
10088817XD,35,17,List 17,chapel,498,20988,3174,17551,burn,burn,IN,burn
10088817XD,35,17,List 17,chapel,498,20988,3174,17551,build,build,JJ,build
10088817XD,35,17,List 17,chapel,498,20988,3174,17551,clean,clean,JJ,clean
10088817XD,35,17,List 17,chapel,498,20988,3174,17551,dirty,dirty,NN,dirty
10088817XD,36,17,List 17,leech,499,12032,2607,10442,kill,kill,NN,kill
10088817XD,36,17,List 17,leech,499,12032,2607,10442,release,release,NN,release
10088817XD,36,17,List 17,leech,499,12032,2607,10442,study,study,NN,study
10088817XD,37,17,List 17,kitten,493,20617,2836,17635,love,love,NN,love
10088817XD,37,17,List 17,kitten,493,20617,2836,17635,save,save,VBP,save
10088817XD,37,17,List 17,kitten,493,20617,2836,17635,buy,buy,VBN,buy
10088817XD,37,17,List 17,kitten,493,20617,2836,17635,hug,hug,JJ,hug
10088817XD,38,17,List 17,gingersnap,489,54124,18757,52482,eat,eat,NN,eat
10088817XD,38,17,List 17,gingersnap,489,54124,18757,52482,bake,bake,VB,bake
10088817XD,38,17,List 17,gingersnap,489,54124,18757,52482,sale,sale,NN,sale
10088817XD,38,17,List 17,gingersnap,489,54124,18757,52482,receive,receive,JJ,receive
10088817XD,39,17,List 17,spice,510,16186,5562,14424,cook,cook,NN,cook
10088817XD,39,17,List 17,spice,510,16186,5562,14424,drop,drop,NN,drop
10088817XD,39,17,List 17,spice,510,16186,5562,14424,lose,lose,VB,lose
10088817XD,39,17,List 17,spice,510,16186,5562,14424,spill,spill,NN,spill
10088817XD,40,17,List 17,nutshell,501,93540,38817,44803,eat,eat,VB,eat
10088817XD,40,17,List 17,nutshell,501,93540,38817,44803,find,find,NNS,find
10088817XD,40,17,List 17,nutshell,501,93540,38817,44803,sell,sell,VB,sell
10088817XD,40,17,List 17,nutshell,501,93540,38817,44803,cook,cook,RB,cook
10089475KD,11,12,List 37,mustard,1105,14975,3882,12043,burger,burger,NN,burger
10089475KD,11,12,List 37,mustard,1105,14975,3882,12043,egg,egg,NN,egg
10089475KD,11,12,List 37,mustard,1105,14975,3882,12043,salad,salad,NN,salad
10089475KD,12,12,List 37,kneecap,1093,21600,4424,15590,kneel,kneel,VB,kneel
10089475KD,12,12,List 37,kneecap,1093,21600,4424,15590,football,football,NN,football
10089475KD,12,12,List 37,kneecap,1093,21600,4424,15590,rugby,rugby,NN,rugby
10089475KD,12,12,List 37,kneecap,1093,21600,4424,15590,prayer,prayer,NN,prayer
10089475KD,13,12,List 37,jet,1085,27946,3504,27466,travel,travel,NN,travel
10089475KD,13,12,List 37,jet,1085,27946,3504,27466,fun,fun,NN,fun
10089475KD,13,12,List 37,jet,1085,27946,3504,27466,convenience,convenience,NN,convenience
10089475KD,13,12,List 37,jet,1085,27946,3504,27466,war,war,NN,war
10089475KD,13,12,List 37,jet,1085,27946,3504,27466,emergency,emergency,NN,emergency
10089475KD,14,12,List 37,gear,1084,19795,3656,18673,dive,dive,JJ,dive
10089475KD,14,12,List 37,gear,1084,19795,3656,18673,work,work,NN,work
10089475KD,14,12,List 37,gear,1084,19795,3656,18673,dress,dress,NN,dress
10089475KD,14,12,List 37,gear,1084,19795,3656,18673,protection,protection,NN,protection
10089475KD,15,12,List 37,clover,1090,28474,22339,27979,repair,repair,NN,repair
10089475KD,15,12,List 37,clover,1090,28474,22339,27979,soil,soil,NN,soil
10089475KD,15,12,List 37,clover,1090,28474,22339,27979,erosion,erosion,NN,erosion
10089475KD,16,12,List 37,chair,1111,14565,1482,13898,sit,sit,NN,sit
10089475KD,16,12,List 37,chair,1111,14565,1482,13898,clean,clean,JJ,clean
10089475KD,16,12,List 37,chair,1111,14565,1482,13898,sleep,sleep,JJ,sleep
10089475KD,17,12,List 37,lamplight,1096,17350,2659,15311,see,see,NN,see
10089475KD,17,12,List 37,lamplight,1096,17350,2659,15311,read,read,JJ,read
10089475KD,17,12,List 37,lamplight,1096,17350,2659,15311,write,write,VB,write
10089475KD,17,12,List 37,lamplight,1096,17350,2659,15311,tell,tell,JJ,tell
10089475KD,17,12,List 37,lamplight,1096,17350,2659,15311,stories,stories,NNS,story
10089475KD,18,12,List 37,tummy,1106,18418,1960,17893,eat,eat,VBP,eat
10089475KD,18,12,List 37,tummy,1106,18418,1960,17893,store,store,NN,store
10089475KD,18,12,List 37,tummy,1106,18418,1960,17893,food,food,NN,food
10089475KD,18,12,List 37,tummy,1106,18418,1960,17893,fight,fight,NN,fight
10089475KD,18,12,List 37,tummy,1106,18418,1960,17893,rubs,rubs,NN,rub
10089475KD,18,12,List 37,tummy,1106,18418,1960,17893,carry,carry,VBP,carry
10089475KD,18,12,List 37,tummy,1106,18418,1960,17893,baby,baby,NN,baby
10089475KD,19,12,List 37,scorecard,1091,8535,3956,7459,keep,keep,VB,keep
10089475KD,19,12,List 37,scorecard,1091,8535,3956,7459,track,track,NN,track
10089475KD,20,12,List 37,lid,1108,10522,1787,9203,cover,cover,NN,cover
10089475KD,20,12,List 37,lid,1108,10522,1787,9203,store,store,NN,store
10089475KD,20,12,List 37,lid,1108,10522,1787,9203,food,food,NN,food
10089475KD,21,12,List 37,handle,1087,23576,1869,19660,stability,stability,NN,stability
10089475KD,21,12,List 37,handle,1087,23576,1869,19660,close,close,RB,close
10089475KD,21,12,List 37,handle,1087,23576,1869,19660,open,open,JJ,open
10089475KD,22,12,List 37,toffee,1092,45151,31048,44461,dates,dates,NNS,date
10089475KD,22,12,List 37,toffee,1092,45151,31048,44461,raise,raise,VBP,raise
10089475KD,22,12,List 37,toffee,1092,45151,31048,44461,sugar,sugar,NN,sugar
10089475KD,22,12,List 37,toffee,1092,45151,31048,44461,levels,levels,NNS,level
10089475KD,22,12,List 37,toffee,1092,45151,31048,44461,snack,snack,VBP,snack
10089475KD,23,12,List 37,greenery,1104,4541,2919,4085,health,health,NN,health
10089475KD,25,12,List 37,dressing,1099,20396,2153,19993,salad,salad,JJ,salad
10089475KD,25,12,List 37,dressing,1099,20396,2153,19993,nuggests,nuggets,NNS,nugget
10089475KD,25,12,List 37,dressing,1099,20396,2153,19993,steak,steak,VBP,steak
10089475KD,25,12,List 37,dressing,1099,20396,2153,19993,chicken,chicken,JJ,chicken
10089475KD,25,12,List 37,dressing,1099,20396,2153,19993,burgers,burgers,NNS,burger
10089475KD,26,12,List 37,critter,1088,27933,22266,27470,pet,pet,VBP,pet
10089475KD,26,12,List 37,critter,1088,27933,22266,27470,scare,scare,JJ,scare
10089475KD,26,12,List 37,critter,1088,27933,22266,27470,someone,someone,NN,someone
10089475KD,27,12,List 37,shirttail,1094,4992,2469,4669,know,know,VBP,know
10089475KD,28,12,List 37,vase,1082,21785,1428,20717,hold,hold,VBP,hold
10089475KD,28,12,List 37,vase,1082,21785,1428,20717,flowers,flowers,NNS,flower
10089475KD,28,12,List 37,vase,1082,21785,1428,20717,hold,hold,VBP,hold
10089475KD,28,12,List 37,vase,1082,21785,1428,20717,fish,fish,JJ,fish
10089475KD,28,12,List 37,vase,1082,21785,1428,20717,store,store,NN,store
10089475KD,28,12,List 37,vase,1082,21785,1428,20717,arrangements,arrangements,NNS,arrangement
10089475KD,28,12,List 37,vase,1082,21785,1428,20717,store,store,VBP,store
10089475KD,28,12,List 37,vase,1082,21785,1428,20717,money,money,NN,money
10089475KD,29,12,List 37,glue,1107,14827,3435,14175,work,work,NN,work
10089475KD,29,12,List 37,glue,1107,14827,3435,14175,school,school,NN,school
10089475KD,29,12,List 37,glue,1107,14827,3435,14175,painting,painting,VBG,paint
10089475KD,30,12,List 37,stereo,1103,12876,1657,7674,listen,listen,JJ,listen
10089475KD,30,12,List 37,stereo,1103,12876,1657,7674,see,see,NN,see
10089475KD,31,12,List 37,twig,1110,6582,2079,6261,know,know,VBP,know
10089475KD,32,12,List 37,tub,1100,9325,1485,8912,bath,bath,NN,bath
10089475KD,32,12,List 37,tub,1100,9325,1485,8912,wash,wash,JJ,wash
10089475KD,32,12,List 37,tub,1100,9325,1485,8912,clean,clean,JJ,clean
10089475KD,33,12,List 37,forklift,1095,12439,1411,11881,lift,lift,NN,lift
10089475KD,33,12,List 37,forklift,1095,12439,1411,11881,heavy,heavy,JJ,heavy
10089475KD,33,12,List 37,forklift,1095,12439,1411,11881,object,object,JJ,object
10089475KD,33,12,List 37,forklift,1095,12439,1411,11881,work,work,NN,work
10089475KD,33,12,List 37,forklift,1095,12439,1411,11881,warehouse,warehouse,RB,warehouse
10089475KD,34,12,List 37,rosary,1083,8432,2593,8058,religious,religious,JJ,religious
10089475KD,34,12,List 37,rosary,1083,8432,2593,8058,purposes,purposes,NNS,purpose
10089475KD,35,12,List 37,jeweler,1101,9460,2086,8435,buy,buy,VBP,buy
10089475KD,35,12,List 37,jeweler,1101,9460,2086,8435,jewelry,jewelry,NN,jewelry
10089475KD,36,12,List 37,lotion,1098,11325,1388,10776,moisturize,moisturize,NN,moisturize
10089475KD,36,12,List 37,lotion,1098,11325,1388,10776,skin,skin,JJ,skin
10089475KD,37,12,List 37,auto,1097,19842,1303,19463,drive,drive,NN,drive
10089475KD,37,12,List 37,auto,1097,19842,1303,19463,teach,teach,NN,teach
10089475KD,37,12,List 37,auto,1097,19842,1303,19463,sleep,sleep,JJ,sleep
10089475KD,37,12,List 37,auto,1097,19842,1303,19463,convenience,convenience,NN,convenience
10089475KD,38,12,List 37,pistachio,1102,7472,2300,6916,snacks,snacks,NNS,snack
10089475KD,39,12,List 37,elephant,1109,5542,2287,5196,zoo,zoo,VBP,zoo
10089475KD,40,12,List 37,rag,1086,13437,1892,13151,clean,clean,JJ,clean
10089475KD,40,12,List 37,rag,1086,13437,1892,13151,wash,wash,NN,wash
10089475KD,40,12,List 37,rag,1086,13437,1892,13151,discard,discard,NN,discard
1970697_amp,11,2,List 52,saddlebag,1555,18592,7199,17467,hold,hold,VBP,hold
1970697_amp,11,2,List 52,saddlebag,1555,18592,7199,17467,items,items,NNS,item
1970697_amp,11,2,List 52,saddlebag,1555,18592,7199,17467,put,put,VBD,put
1970697_amp,11,2,List 52,saddlebag,1555,18592,7199,17467,saddle,saddle,JJ,saddle
1970697_amp,12,2,List 52,cab,1553,11688,4531,10550,hold,hold,NN,hold
1970697_amp,12,2,List 52,cab,1553,11688,4531,10550,people,people,NNS,people
1970697_amp,12,2,List 52,cab,1553,11688,4531,10550,drive,drive,VBP,drive
1970697_amp,13,2,List 52,casket,1539,7419,3043,6200,hold,hold,JJ,hold
1970697_amp,13,2,List 52,casket,1539,7419,3043,6200,people,people,NNS,people
1970697_amp,14,2,List 52,cooler,1537,16977,1769,15215,hold,hold,VBP,hold
1970697_amp,14,2,List 52,cooler,1537,16977,1769,15215,ice,ice,JJ,ice
1970697_amp,14,2,List 52,cooler,1537,16977,1769,15215,keep,keep,JJ,keep
1970697_amp,14,2,List 52,cooler,1537,16977,1769,15215,drinks,drinks,NNS,drink
1970697_amp,14,2,List 52,cooler,1537,16977,1769,15215,cold,cold,JJ,cold
1970697_amp,15,2,List 52,bike,1535,17306,5298,16233,get,get,VBP,get
1970697_amp,15,2,List 52,bike,1535,17306,5298,16233,people,people,NNS,people
1970697_amp,15,2,List 52,bike,1535,17306,5298,16233,places,places,NNS,place
1970697_amp,15,2,List 52,bike,1535,17306,5298,16233,exercise,exercise,VBP,exercise
1970697_amp,16,2,List 52,bluefish,1544,8352,3961,7282,eat,eat,NN,eat
1970697_amp,16,2,List 52,bluefish,1544,8352,3961,7282,swim,swim,NN,swim
1970697_amp,17,2,List 52,motorcyclist,1540,8103,2319,6940,get,get,VBP,get
1970697_amp,17,2,List 52,motorcyclist,1540,8103,2319,6940,people,people,NNS,people
1970697_amp,17,2,List 52,motorcyclist,1540,8103,2319,6940,places,places,NNS,place
1970697_amp,18,2,List 52,bookkeeper,1548,19632,8015,18660,keep,keep,VBP,keep
1970697_amp,18,2,List 52,bookkeeper,1548,19632,8015,18660,books,books,NNS,book
1970697_amp,18,2,List 52,bookkeeper,1548,19632,8015,18660,clean,clean,JJ,clean
1970697_amp,18,2,List 52,bookkeeper,1548,19632,8015,18660,give,give,VBP,give
1970697_amp,18,2,List 52,bookkeeper,1548,19632,8015,18660,books,books,NNS,book
1970697_amp,19,2,List 52,copilot,1534,12367,2416,11378,help,help,VB,help
1970697_amp,19,2,List 52,copilot,1534,12367,2416,11378,pilot,pilot,NN,pilot
1970697_amp,19,2,List 52,copilot,1534,12367,2416,11378,help,help,NN,help
1970697_amp,19,2,List 52,copilot,1534,12367,2416,11378,fly,fly,VB,fly
1970697_amp,20,2,List 52,ax,1542,16685,2849,15085,chop,chop,NN,chop
1970697_amp,20,2,List 52,ax,1542,16685,2849,15085,wood,wood,NN,wood
1970697_amp,20,2,List 52,ax,1542,16685,2849,15085,chop,chop,NN,chop
1970697_amp,20,2,List 52,ax,1542,16685,2849,15085,sticks,sticks,NNS,stick
1970697_amp,21,2,List 52,container,1536,14903,2983,13751,hold,hold,VBP,hold
1970697_amp,21,2,List 52,container,1536,14903,2983,13751,food,food,NN,food
1970697_amp,21,2,List 52,container,1536,14903,2983,13751,hold,hold,VBP,hold
1970697_amp,21,2,List 52,container,1536,14903,2983,13751,liquid,liquid,JJ,liquid
1970697_amp,22,2,List 52,seamstress,1538,14670,3988,13419,make,make,VBP,make
1970697_amp,22,2,List 52,seamstress,1538,14670,3988,13419,clothes,clothes,NNS,clothes
1970697_amp,22,2,List 52,seamstress,1538,14670,3988,13419,fix,fix,JJ,fix
1970697_amp,22,2,List 52,seamstress,1538,14670,3988,13419,clothes,clothes,NNS,clothes
1970697_amp,23,2,List 52,badge,1550,14975,9133,13718,show,show,VBP,show
1970697_amp,23,2,List 52,badge,1550,14975,9133,13718,name,name,JJ,name
1970697_amp,24,2,List 52,olive,1545,5578,3268,4234,food,food,NN,food
1970697_amp,25,2,List 52,bandage,1557,33803,20773,32514,stop,stop,NN,stop
1970697_amp,25,2,List 52,bandage,1557,33803,20773,32514,bleeding,bleeding,NN,bleeding
1970697_amp,25,2,List 52,bandage,1557,33803,20773,32514,help,help,NN,help
1970697_amp,25,2,List 52,bandage,1557,33803,20773,32514,infection,infection,NN,infection
1970697_amp,26,2,List 52,rifle,1541,11891,2052,10764,shoot,shoot,NN,shoot
1970697_amp,26,2,List 52,rifle,1541,11891,2052,10764,hold,hold,VBP,hold
1970697_amp,26,2,List 52,rifle,1541,11891,2052,10764,bullets,bullets,NNS,bullet
1970697_amp,27,2,List 52,grave,1549,17163,5973,15961,hold,hold,VBP,hold
1970697_amp,27,2,List 52,grave,1549,17163,5973,15961,dead,dead,JJ,dead
1970697_amp,27,2,List 52,grave,1549,17163,5973,15961,hold,hold,VBP,hold
1970697_amp,27,2,List 52,grave,1549,17163,5973,15961,casket,casket,NN,casket
1970697_amp,28,2,List 52,ceramics,1546,11866,7391,10393,decorations,decorations,NNS,decoration
1970697_amp,29,2,List 52,apparel,1551,4546,2267,3013,wear,wear,VBP,wear
1970697_amp,30,2,List 52,knuckles,1554,21299,6322,9136,punch,punch,JJ,punch
1970697_amp,31,2,List 52,dollhouse,1547,12989,2141,11916,play,play,NN,play
1970697_amp,31,2,List 52,dollhouse,1547,12989,2141,11916,dolls,dolls,NNS,doll
1970697_amp,31,2,List 52,dollhouse,1547,12989,2141,11916,decorate,decorate,VBP,decorate
1970697_amp,32,2,List 52,mallard,1543,8070,3174,6930,fly,fly,JJ,fly
1970697_amp,32,2,List 52,mallard,1543,8070,3174,6930,pet,pet,NN,pet
1970697_amp,34,2,List 52,mace,1552,10657,5967,9282,spray,spray,NN,spray
1970697_amp,34,2,List 52,mace,1552,10657,5967,9282,face,face,NN,face
1970697_amp,35,2,List 52,clove,1561,9801,3251,8846,lucky,lucky,JJ,lucky
1970697_amp,35,2,List 52,clove,1561,9801,3251,8846,grow,grow,NN,grow
1970697_amp,36,2,List 52,veranda,1558,11596,5725,10366,sail,sail,NN,sail
1970697_amp,37,2,List 52,shampoo,1560,7705,1866,6401,wash,wash,NN,wash
1970697_amp,37,2,List 52,shampoo,1560,7705,1866,6401,clean,clean,JJ,clean
1970697_amp,38,2,List 52,pillow,1532,9974,4600,8963,sleep,sleep,NN,sleep
1970697_amp,38,2,List 52,pillow,1532,9974,4600,8963,comfort,comfort,NN,comfort
1970697_amp,39,2,List 52,castle,1559,10544,5595,8294,home,home,NN,home
1970697_amp,40,2,List 52,festival,1533,13180,7286,9818,party,party,NN,party
j.carter13@icloud.com,11,18,List 93,greens,2790,12054,2090,9905,grow,grow,NN,grow
j.carter13@icloud.com,11,18,List 93,greens,2790,12054,2090,9905,cook,cook,NN,cook
j.carter13@icloud.com,11,18,List 93,greens,2790,12054,2090,9905,eat,eat,NN,eat
j.carter13@icloud.com,11,18,List 93,greens,2790,12054,2090,9905,plant,plant,NN,plant
j.carter13@icloud.com,12,18,List 93,pup,2776,6462,4165,4692,pet,pet,NN,pet
j.carter13@icloud.com,13,18,List 93,wheat,2770,16537,2139,14149,grow,grow,NN,grow
j.carter13@icloud.com,13,18,List 93,wheat,2770,16537,2139,14149,plant,plant,NN,plant
j.carter13@icloud.com,13,18,List 93,wheat,2770,16537,2139,14149,eat,eat,NN,eat
j.carter13@icloud.com,13,18,List 93,wheat,2770,16537,2139,14149,harvest,harvest,NN,harvest
j.carter13@icloud.com,14,18,List 93,tomato,2789,23656,2519,21398,salad,salad,NN,salad
j.carter13@icloud.com,14,18,List 93,tomato,2789,23656,2519,21398,vegetable,vegetable,JJ,vegetable
j.carter13@icloud.com,14,18,List 93,tomato,2789,23656,2519,21398,eat,eat,NN,eat
j.carter13@icloud.com,14,18,List 93,tomato,2789,23656,2519,21398,grow,grow,NN,grow
j.carter13@icloud.com,17,18,List 93,cola,2786,10116,2266,8269,drink,drink,VBP,drink
j.carter13@icloud.com,17,18,List 93,cola,2786,10116,2266,8269,stain,stain,NN,stain
j.carter13@icloud.com,17,18,List 93,cola,2786,10116,2266,8269,remover,remover,NN,remover
j.carter13@icloud.com,18,18,List 93,gentleman,2769,11477,2578,9140,guy,guy,NN,guy
j.carter13@icloud.com,18,18,List 93,gentleman,2769,11477,2578,9140,respectful,respectful,JJ,respectful
j.carter13@icloud.com,19,18,List 93,towel,2763,17378,3207,16152,dry,dry,JJ,dry
j.carter13@icloud.com,19,18,List 93,towel,2763,17378,3207,16152,clean,clean,JJ,clean
j.carter13@icloud.com,19,18,List 93,towel,2763,17378,3207,16152,decoration,decoration,NN,decoration
j.carter13@icloud.com,20,18,List 93,sea,2778,14691,2078,9022,swim,swim,NN,swim
j.carter13@icloud.com,20,18,List 93,sea,2778,14691,2078,9022,boat,boat,NN,boat
j.carter13@icloud.com,21,18,List 93,outfielder,2787,5019,2697,3679,catch,catch,VBP,catch
j.carter13@icloud.com,22,18,List 93,swimsuit,2783,11253,2380,10087,beach,beach,NN,beach
j.carter13@icloud.com,22,18,List 93,swimsuit,2783,11253,2380,10087,photoshoot,photoshoot,NN,photoshoot
j.carter13@icloud.com,22,18,List 93,swimsuit,2783,11253,2380,10087,pool,pool,NN,pool
j.carter13@icloud.com,24,18,List 93,aircraftsman,2781,12791,3762,10023,pilot,pilot,NN,pilot
j.carter13@icloud.com,24,18,List 93,aircraftsman,2781,12791,3762,10023,plane,plane,NN,plane
j.carter13@icloud.com,25,18,List 93,rice,2775,12435,2490,10957,grain,grain,NN,grain
j.carter13@icloud.com,25,18,List 93,rice,2775,12435,2490,10957,grow,grow,JJ,grow
j.carter13@icloud.com,25,18,List 93,rice,2775,12435,2490,10957,eat,eat,NN,eat
j.carter13@icloud.com,25,18,List 93,rice,2775,12435,2490,10957,wedding,wedding,VBG,wed
j.carter13@icloud.com,26,18,List 93,ingredient,2765,18156,2895,13559,cook,cook,NN,cook
j.carter13@icloud.com,26,18,List 93,ingredient,2765,18156,2895,13559,science,science,NN,science
j.carter13@icloud.com,26,18,List 93,ingredient,2765,18156,2895,13559,project,project,NN,project
j.carter13@icloud.com,27,18,List 93,camel,2791,14850,2621,13501,ride,ride,NN,ride
j.carter13@icloud.com,27,18,List 93,camel,2791,14850,2621,13501,desert,desert,NN,desert
j.carter13@icloud.com,28,18,List 93,coachman,2767,9552,6347,7032,yell,yell,NNP,yell
j.carter13@icloud.com,30,18,List 93,loudspeaker,2764,23163,5134,20403,spokesman,spokesman,NN,spokesman
j.carter13@icloud.com,30,18,List 93,loudspeaker,2764,23163,5134,20403,entertainer,entertainer,VBD,entertainer
j.carter13@icloud.com,30,18,List 93,loudspeaker,2764,23163,5134,20403,church,church,NN,church
j.carter13@icloud.com,31,18,List 93,pulp,2773,8002,2999,5942,orange,orange,NN,orange
j.carter13@icloud.com,31,18,List 93,pulp,2773,8002,2999,5942,juice,juice,NN,juice
j.carter13@icloud.com,32,18,List 93,temple,2774,18379,2865,16485,church,church,NN,church
j.carter13@icloud.com,32,18,List 93,temple,2774,18379,2865,16485,building,building,NN,building
j.carter13@icloud.com,33,18,List 93,protester,2782,16845,2448,15367,crowds,crowds,NN,crowd
j.carter13@icloud.com,34,18,List 93,hill,2784,9247,2283,8009,high,high,JJ,high
j.carter13@icloud.com,34,18,List 93,hill,2784,9247,2283,8009,climb,climb,NN,climb
j.carter13@icloud.com,35,18,List 93,handbrake,2785,8263,2340,5943,stop,stop,NN,stop
j.carter13@icloud.com,35,18,List 93,handbrake,2785,8263,2340,5943,bike,bike,NN,bike
j.carter13@icloud.com,36,18,List 93,mother,2777,16882,2533,13998,caregiver,caregiver,NN,caregiver
j.carter13@icloud.com,36,18,List 93,mother,2777,16882,2533,13998,caretaker,caretaker,NN,caretaker
j.carter13@icloud.com,36,18,List 93,mother,2777,16882,2533,13998,babies,babies,NNS,baby
j.carter13@icloud.com,39,18,List 93,bullfighter,2762,11599,4047,10430,rough,rough,VBP,rough
j.carter13@icloud.com,39,18,List 93,bullfighter,2762,11599,4047,10430,loud,loud,JJ,loud
j.carter13@icloud.com,39,18,List 93,bullfighter,2762,11599,4047,10430,crazy,crazy,NN,crazy
j.carter13@icloud.com,40,18,List 93,cucumber,2766,20981,2260,19556,vegetable,vegetable,JJ,vegetable
j.carter13@icloud.com,40,18,List 93,cucumber,2766,20981,2260,19556,salad,salad,JJ,salad
j.carter13@icloud.com,40,18,List 93,cucumber,2766,20981,2260,19556,dark,dark,JJ,dark
j.carter13@icloud.com,40,18,List 93,cucumber,2766,20981,2260,19556,spots,spots,NNS,spot
j.carter13@icloud.com,40,18,List 93,cucumber,2766,20981,2260,19556,eyes,eyes,NNS,eye
slade.wilksSw,11,13,List 63,hardwood,1877,28114,2120,25754,burn,burn,VBP,burn
slade.wilksSw,11,13,List 63,hardwood,1877,28114,2120,25754,hardwood,hardwood,NN,hardwood
slade.wilksSw,11,13,List 63,hardwood,1877,28114,2120,25754,trees,trees,NNS,tree
slade.wilksSw,11,13,List 63,hardwood,1877,28114,2120,25754,climb,climb,VBP,climb
slade.wilksSw,11,13,List 63,hardwood,1877,28114,2120,25754,hardwood,hardwood,NN,hardwood
slade.wilksSw,12,13,List 63,dough,1888,29392,1809,28230,cookie,cookie,NN,cookie
slade.wilksSw,12,13,List 63,dough,1888,29392,1809,28230,dough,dough,IN,dough
slade.wilksSw,12,13,List 63,dough,1888,29392,1809,28230,bake,bake,NN,bake
slade.wilksSw,12,13,List 63,dough,1888,29392,1809,28230,dough,dough,NNS,dough
slade.wilksSw,12,13,List 63,dough,1888,29392,1809,28230,make,make,VBP,make
slade.wilksSw,12,13,List 63,dough,1888,29392,1809,28230,fresh,fresh,JJ,fresh
slade.wilksSw,12,13,List 63,dough,1888,29392,1809,28230,bread,bread,NN,bread
slade.wilksSw,12,13,List 63,dough,1888,29392,1809,28230,make,make,VBP,make
slade.wilksSw,12,13,List 63,dough,1888,29392,1809,28230,dough,dough,NN,dough
slade.wilksSw,13,13,List 63,storybook,1885,23586,3158,22386,storybook,storybook,NN,storybook
slade.wilksSw,13,13,List 63,storybook,1885,23586,3158,22386,life,life,NN,life
slade.wilksSw,13,13,List 63,storybook,1885,23586,3158,22386,open,open,JJ,open
slade.wilksSw,13,13,List 63,storybook,1885,23586,3158,22386,storybook,storybook,NN,storybook
slade.wilksSw,13,13,List 63,storybook,1885,23586,3158,22386,close,close,JJ,close
slade.wilksSw,13,13,List 63,storybook,1885,23586,3158,22386,storybook,storybook,NN,storybook
slade.wilksSw,14,13,List 63,headpiece,1878,32949,6247,31729,headpiece,headpiece,NN,headpiece
slade.wilksSw,14,13,List 63,headpiece,1878,32949,6247,31729,listen,listen,JJ,listen
slade.wilksSw,14,13,List 63,headpiece,1878,32949,6247,31729,music,music,NN,music
slade.wilksSw,14,13,List 63,headpiece,1878,32949,6247,31729,headpiece,headpiece,NN,headpiece
slade.wilksSw,14,13,List 63,headpiece,1878,32949,6247,31729,wear,wear,VBP,wear
slade.wilksSw,14,13,List 63,headpiece,1878,32949,6247,31729,drop,drop,NN,drop
slade.wilksSw,14,13,List 63,headpiece,1878,32949,6247,31729,headpiece,headpiece,NN,headpiece
slade.wilksSw,15,13,List 63,wench,1872,34786,1587,32336,wench,wench,JJ,wench
slade.wilksSw,15,13,List 63,wench,1872,34786,1587,32336,pull,pull,NN,pull
slade.wilksSw,15,13,List 63,wench,1872,34786,1587,32336,deer,deer,NN,deer
slade.wilksSw,15,13,List 63,wench,1872,34786,1587,32336,wench,wench,NN,wench
slade.wilksSw,15,13,List 63,wench,1872,34786,1587,32336,pull,pull,JJ,pull
slade.wilksSw,15,13,List 63,wench,1872,34786,1587,32336,stuck,stuck,NN,stuck
slade.wilksSw,15,13,List 63,wench,1872,34786,1587,32336,vehicle,vehicle,NN,vehicle
slade.wilksSw,16,13,List 63,sheepdog,1866,27763,1905,26451,pet,pet,NN,pet
slade.wilksSw,16,13,List 63,sheepdog,1866,27763,1905,26451,sheepdog,sheepdog,VBZ,sheepdog
slade.wilksSw,16,13,List 63,sheepdog,1866,27763,1905,26451,heard,heard,JJ,heard
slade.wilksSw,16,13,List 63,sheepdog,1866,27763,1905,26451,cows,cows,NNS,cow
slade.wilksSw,16,13,List 63,sheepdog,1866,27763,1905,26451,sheepdog,sheepdog,VBP,sheepdog
slade.wilksSw,16,13,List 63,sheepdog,1866,27763,1905,26451,feed,feed,NN,feed
slade.wilksSw,16,13,List 63,sheepdog,1866,27763,1905,26451,sheepdog,sheepdog,NN,sheepdog
slade.wilksSw,17,13,List 63,trainee,1884,25107,13315,23798,somelearn,some learn,NN,some learn
slade.wilksSw,17,13,List 63,trainee,1884,25107,13315,23798,learning,learning,VBG,learn
slade.wilksSw,17,13,List 63,trainee,1884,25107,13315,23798,task,task,NN,task
slade.wilksSw,18,13,List 63,noodle,1875,30051,1518,28818,spaghette,spaghetti,NNS,spaghetti
slade.wilksSw,18,13,List 63,noodle,1875,30051,1518,28818,noodles,noodles,VBZ,noodles
slade.wilksSw,18,13,List 63,noodle,1875,30051,1518,28818,chicken,chicken,JJ,chicken
slade.wilksSw,18,13,List 63,noodle,1875,30051,1518,28818,noodles,noodles,NNS,noodle
slade.wilksSw,18,13,List 63,noodle,1875,30051,1518,28818,noodles,noodles,NNS,noodle
slade.wilksSw,18,13,List 63,noodle,1875,30051,1518,28818,rice,rice,VBP,rice
slade.wilksSw,19,13,List 63,margarine,1881,15924,2034,14736,margarine,margarine,NN,margarine
slade.wilksSw,19,13,List 63,margarine,1881,15924,2034,14736,put,put,VBN,put
slade.wilksSw,19,13,List 63,margarine,1881,15924,2034,14736,steak,steak,JJ,steak
slade.wilksSw,19,13,List 63,margarine,1881,15924,2034,14736,margarine,margarine,NN,margarine
slade.wilksSw,19,13,List 63,margarine,1881,15924,2034,14736,put,put,VBD,put
slade.wilksSw,19,13,List 63,margarine,1881,15924,2034,14736,chicken,chicken,RP,chicken
slade.wilksSw,20,13,List 63,him,1880,50056,38240,43965,going,going,VBG,go
slade.wilksSw,20,13,List 63,him,1880,50056,38240,43965,see,see,NN,see
slade.wilksSw,21,13,List 63,calculator,1879,28564,1887,27244,calculator,calculator,NN,calculator
slade.wilksSw,21,13,List 63,calculator,1879,28564,1887,27244,math,math,NN,math
slade.wilksSw,21,13,List 63,calculator,1879,28564,1887,27244,calculator,calculator,NN,calculator
slade.wilksSw,21,13,List 63,calculator,1879,28564,1887,27244,science,science,NN,science
slade.wilksSw,21,13,List 63,calculator,1879,28564,1887,27244,add,add,VBP,add
slade.wilksSw,21,13,List 63,calculator,1879,28564,1887,27244,subtract,subtract,JJ,subtract
slade.wilksSw,21,13,List 63,calculator,1879,28564,1887,27244,calculator,calculator,NN,calculator
slade.wilksSw,22,13,List 63,pilot,1889,19560,3852,18944,pilot,pilot,NN,pilot
slade.wilksSw,22,13,List 63,pilot,1889,19560,3852,18944,kind,kind,NN,kind
slade.wilksSw,22,13,List 63,pilot,1889,19560,3852,18944,car,car,NN,car
slade.wilksSw,22,13,List 63,pilot,1889,19560,3852,18944,pilot,pilot,NN,pilot
slade.wilksSw,22,13,List 63,pilot,1889,19560,3852,18944,plane,plane,NN,plane
slade.wilksSw,23,13,List 63,hamper,1870,17261,1699,16106,clothes,clothes,NNS,clothes
slade.wilksSw,23,13,List 63,hamper,1870,17261,1699,16106,hamper,hamper,VBP,hamper
slade.wilksSw,23,13,List 63,hamper,1870,17261,1699,16106,something,something,NN,something
slade.wilksSw,23,13,List 63,hamper,1870,17261,1699,16106,hold,hold,NN,hold
slade.wilksSw,23,13,List 63,hamper,1870,17261,1699,16106,lot,lot,NN,lot
slade.wilksSw,23,13,List 63,hamper,1870,17261,1699,16106,items,items,NNS,item
slade.wilksSw,24,13,List 63,dandelion,1874,45375,38941,44308,know,know,VBP,know
slade.wilksSw,25,13,List 63,fiancee,1873,45384,13378,44550,someone,someone,NN,someone
slade.wilksSw,25,13,List 63,fiancee,1873,45384,13378,44550,calls,calls,VBZ,call
slade.wilksSw,25,13,List 63,fiancee,1873,45384,13378,44550,significant,significant,JJ,significant
slade.wilksSw,25,13,List 63,fiancee,1873,45384,13378,44550,engaged,engaged,VBD,engage
slade.wilksSw,25,13,List 63,fiancee,1873,45384,13378,44550,married,married,JJ,married
slade.wilksSw,25,13,List 63,fiancee,1873,45384,13378,44550,hyet,yet,RB,yet
slade.wilksSw,26,13,List 63,flag,1887,48368,2432,47264,flag,flag,VBP,flag
slade.wilksSw,26,13,List 63,flag,1887,48368,2432,47264,thrown,thrown,JJ,thrown
slade.wilksSw,26,13,List 63,flag,1887,48368,2432,47264,football,football,NN,football
slade.wilksSw,26,13,List 63,flag,1887,48368,2432,47264,flag,flag,NN,flag
slade.wilksSw,26,13,List 63,flag,1887,48368,2432,47264,salute,salute,NN,salute
slade.wilksSw,27,13,List 63,vomit,1868,28174,2674,26850,throwup,throwup,NN,throwup
slade.wilksSw,27,13,List 63,vomit,1868,28174,2674,26850,vomit,vomit,NN,vomit
slade.wilksSw,27,13,List 63,vomit,1868,28174,2674,26850,release,release,NN,release
slade.wilksSw,27,13,List 63,vomit,1868,28174,2674,26850,something,something,NN,something
slade.wilksSw,27,13,List 63,vomit,1868,28174,2674,26850,bothering,bothering,VBG,bother
slade.wilksSw,27,13,List 63,vomit,1868,28174,2674,26850,stomach,stomach,NN,stomach
slade.wilksSw,28,13,List 63,headlight,1869,17824,2561,16737,headlight,headlight,NN,headlight
slade.wilksSw,28,13,List 63,headlight,1869,17824,2561,16737,cars,cars,NNS,car
