Username,ID,ExperimentName,Session,Trial,Date,TimeDif,"Condition Number","Stimuli File","Order File","Condition Description","Condition Notes",Stimuli*Cue,Stimuli*Answer,Stimuli*Shuffle,"Stimuli*Stimuli Notes",Stimuli*Value,Stimuli*Rand,Procedure*Item,"Procedure*Trial Type","Procedure*Max Time","Procedure*Min Time",Procedure*Text,"Procedure*Procedure Notes",Procedure*Shuffle,Response*RT,Response*Response,Response*Accuracy,Response*RTfirst,Response*RTlast,Response*strictAcc,Response*lenientAcc,Response*focus,Response*JOL,Response*Focus
5d696d1c55742f001af29220,tf0857vqbq,"Affordance Norms_Prolific",1,1,2023-07-27T20:54:23+00:00,14.285416126251,1,"updated stim.csv",Version1.csv,"Version 1","List 1",,,,,,,0,Instruct,-,10,"In this section, you will be presented with a series of objects. Please name as many possible uses for this object as you can think of by typing them in the box below each object.",,Instruct1,13880,,,-1,-1,,,,,1
5d696d1c55742f001af29220,tf0857vqbq,"Affordance Norms_Prolific",1,2,2023-07-27T20:55:36+00:00,73.194428920746,1,"updated stim.csv",Version1.csv,"Version 1","List 1",,,,,,,0,Instruct,-,10,"Please keep in mind that a single object will have more than one use. For example, a ball can be thrown or can be bounced or even stepped on. When listing multiple uses for one object, please separate each use with a comma (i.e., thrown, bounced, stepped on)",,Instruct2,72365,,,-1,-1,,,,,0.089
5d696d1c55742f001af29220,tf0857vqbq,"Affordance Norms_Prolific",1,3,2023-07-27T20:55:38+00:00,2.3941779136658,1,"updated stim.csv",Version1.csv,"Version 1","List 1",,,,,,,0,Instruct,-,-,"Before starting the experiment, you will complete a short practice sesstion. Press ENTER when you are ready to begin.",,Instruct3,1858,,,-1,-1,,,,,1
5d696d1c55742f001af29220,tf0857vqbq,"Affordance Norms_Prolific",1,4,2023-07-27T20:55:57+00:00,19.033421993256,1,"updated stim.csv",Version1.csv,"Version 1","List 1",glove,,631,5.217391304,2788,0.288599309,632,BOI,-,-,"Please name all of the ways you could use this object. Keep in mind that one object can have many uses. Separate your responses with a comma.",,n,18478,,,4727,14398,,,,"to keep your hands warm, to protect your hands",1
5d696d1c55742f001af29220,tf0857vqbq,"Affordance Norms_Prolific",1,5,2023-07-27T20:56:16+00:00,19.041913986206,1,"updated stim.csv",Version1.csv,"Version 1","List 1",spaghetti,,634,4.608695652,2807,0.295026168,635,BOI,-,-,"Please name all of the ways you could use this object. Keep in mind that one object can have many uses. Separate your responses with a comma.",,n,18596,,,5599,17786,,,,"to cook a nice meal, to use instead of a match",1
5d696d1c55742f001af29220,tf0857vqbq,"Affordance Norms_Prolific",1,6,2023-07-27T20:56:34+00:00,17.527898073196,1,"updated stim.csv",Version1.csv,"Version 1","List 1",paperwork,,632,4.28,439,0.557499565,633,BOI,-,-,"Please name all of the ways you could use this object. Keep in mind that one object can have many uses. Separate your responses with a comma.",,n,17089,,,11541,16808,,,,"to keep track of important information",1
5d696d1c55742f001af29220,tf0857vqbq,"Affordance Norms_Prolific",1,7,2023-07-27T20:56:58+00:00,24.533097982407,1,"updated stim.csv",Version1.csv,"Version 1","List 1",shortening,,633,4.961538462,2303,0.081957919,634,BOI,-,-,"Please name all of the ways you could use this object. Keep in mind that one object can have many uses. Separate your responses with a comma.",,n,24122,,,3324,21255,,,,"to abbreviate a word, for convenience ",1
5d696d1c55742f001af29220,tf0857vqbq,"Affordance Norms_Prolific",1,8,2023-07-27T20:57:09+00:00,10.072521924973,1,"updated stim.csv",Version1.csv,"Version 1","List 1",grain,,635,4.708333333,1700,0.685106443,636,BOI,-,-,"Please name all of the ways you could use this object. Keep in mind that one object can have many uses. Separate your responses with a comma.",,n,9653,,,2892,9236,,,,"to make flour",1
5d696d1c55742f001af29220,tf0857vqbq,"Affordance Norms_Prolific",1,9,2023-07-27T20:57:11+00:00,2.0465660095215,1,"updated stim.csv",Version1.csv,"Version 1","List 1",,,,,,,0,Instruct,-,-,"You have completed this section. Press ENTER to continue",,"Instruct 5",1594,,,-1,-1,,,,,1
5d696d1c55742f001af29220,tf0857vqbq,"Affordance Norms_Prolific",1,10,2023-07-27T20:57:12+00:00,1.884624004364,1,"updated stim.csv",Version1.csv,"Version 1","List 1",,,,,,,0,Instruct,-,-,"You will now start the full experiment. Press ENTER when you are ready to begin.",,,1467,,,-1,-1,,,,,1
5d696d1c55742f001af29220,tf0857vqbq,"Affordance Norms_Prolific",1,11,2023-07-27T20:57:28+00:00,15.369512081146,1,"updated stim.csv",Version1.csv,"Version 1","List 1",packet,,26,4.727272727,2510,0.797812576,27,BOI,-,-,"Please name all of the ways you could use this object. Keep in mind that one object can have many uses. Separate your responses with a comma.",,y,14962,,,1591,14173,,,,"to store something, to keep something safe, to carry an object in",1
5d696d1c55742f001af29220,tf0857vqbq,"Affordance Norms_Prolific",1,12,2023-07-27T20:57:47+00:00,19.037724971771,1,"updated stim.csv",Version1.csv,"Version 1","List 1",stirrup,,27,5.434782609,1877,0.096670334,28,BOI,-,-,"Please name all of the ways you could use this object. Keep in mind that one object can have many uses. Separate your responses with a comma.",,y,18590,,,1475,8822,,,,"to mount onto a horse, to pull yourself up",0.559
5d696d1c55742f001af29220,tf0857vqbq,"Affordance Norms_Prolific",1,13,2023-07-27T20:58:01+00:00,13.68141913414,1,"updated stim.csv",Version1.csv,"Version 1","List 1",boy,,10,6.25,323,0.73335018,11,BOI,-,-,"Please name all of the ways you could use this object. Keep in mind that one object can have many uses. Separate your responses with a comma.",,y,11569,,,4945,11185,,,,"to have as a friend, to have a relationship with",1
5d696d1c55742f001af29220,tf0857vqbq,"Affordance Norms_Prolific",1,14,2023-07-27T20:58:35+00:00,34.412763834,1,"updated stim.csv",Version1.csv,"Version 1","List 1",fauna,,25,4.333333333,252,0.347548191,26,BOI,-,-,"Please name all of the ways you could use this object. Keep in mind that one object can have many uses. Separate your responses with a comma.",,y,33960,,,20096,33546,,,,"food, to make clothing with, to use in medicine",1
5d696d1c55742f001af29220,tf0857vqbq,"Affordance Norms_Prolific",1,15,2023-07-27T20:59:00+00:00,25.110722064972,1,"updated stim.csv",Version1.csv,"Version 1","List 1",waistcoat,,19,5.227272727,1241,0.629851612,20,BOI,-,-,"Please name all of the ways you could use this object. Keep in mind that one object can have many uses. Separate your responses with a comma.",,y,24152,,,16648,23840,,,,"to wear in a formal occassion",1
5d696d1c55742f001af29220,tf0857vqbq,"Affordance Norms_Prolific",1,16,2023-07-27T20:59:12+00:00,12.29448390007,1,"updated stim.csv",Version1.csv,"Version 1","List 1",aunt,,21,4.4,243,0.879020377,22,BOI,-,-,"Please name all of the ways you could use this object. Keep in mind that one object can have many uses. Separate your responses with a comma.",,y,11792,,,8057,11460,,,,"to talk to, spend time with",1
5d696d1c55742f001af29220,tf0857vqbq,"Affordance Norms_Prolific",1,17,2023-07-27T20:59:42+00:00,30.056629180908,1,"updated stim.csv",Version1.csv,"Version 1","List 1",upholstery,,28,5.142857143,2618,0.332046282,29,BOI,-,-,"Please name all of the ways you could use this object. Keep in mind that one object can have many uses. Separate your responses with a comma.",,y,29491,,,21870,28480,,,,"to cover a piece of furniture ",1
5d696d1c55742f001af29220,tf0857vqbq,"Affordance Norms_Prolific",1,18,2023-07-27T20:59:59+00:00,16.271203994751,1,"updated stim.csv",Version1.csv,"Version 1","List 1",musket,,14,4.958333333,2722,0.368202979,15,BOI,-,-,"Please name all of the ways you could use this object. Keep in mind that one object can have many uses. Separate your responses with a comma.",,y,15808,,,12752,15530,,,,"to shoot something",1
5d696d1c55742f001af29220,tf0857vqbq,"Affordance Norms_Prolific",1,19,2023-07-27T21:00:23+00:00,24.061070919037,1,"updated stim.csv",Version1.csv,"Version 1","List 1",capacitor,,3,5.76,1666,0.330502966,4,BOI,-,-,"Please name all of the ways you could use this object. Keep in mind that one object can have many uses. Separate your responses with a comma.",,y,23627,,,20630,23259,,,,"to store energy",1
5d696d1c55742f001af29220,tf0857vqbq,"Affordance Norms_Prolific",1,20,2023-07-27T21:00:28+00:00,5.485790014267,1,"updated stim.csv",Version1.csv,"Version 1","List 1",kiln,,7,6.230769231,308,0.981109369,8,BOI,-,-,"Please name all of the ways you could use this object. Keep in mind that one object can have many uses. Separate your responses with a comma.",,y,4934,,,1300,4672,,,,"for pottery",1
5d696d1c55742f001af29220,tf0857vqbq,"Affordance Norms_Prolific",1,21,2023-07-27T21:00:47+00:00,18.744983911514,1,"updated stim.csv",Version1.csv,"Version 1","List 1",munitions,,9,4.875,2448,0.423270691,10,BOI,-,-,"Please name all of the ways you could use this object. Keep in mind that one object can have many uses. Separate your responses with a comma.",,y,18309,,,14230,18068,,,,"for military defence",1
5d696d1c55742f001af29220,tf0857vqbq,"Affordance Norms_Prolific",1,22,2023-07-27T21:01:10+00:00,22.921620130539,1,"updated stim.csv",Version1.csv,"Version 1","List 1",straightedge,,15,4.666666667,1168,0.129741388,16,BOI,-,-,"Please name all of the ways you could use this object. Keep in mind that one object can have many uses. Separate your responses with a comma.",,y,22363,,,12651,22075,,,,"to check how straight something is, to draw a straight line",1
5d696d1c55742f001af29220,tf0857vqbq,"Affordance Norms_Prolific",1,23,2023-07-27T21:01:32+00:00,21.687365055084,1,"updated stim.csv",Version1.csv,"Version 1","List 1",receptacle,,5,5.833333333,1647,0.48521541,6,BOI,-,-,"Please name all of the ways you could use this object. Keep in mind that one object can have many uses. Separate your responses with a comma.",,y,21182,,,18234,20811,,,,"to power a device",1
5d696d1c55742f001af29220,tf0857vqbq,"Affordance Norms_Prolific",1,24,2023-07-27T21:01:39+00:00,7.6959948539734,1,"updated stim.csv",Version1.csv,"Version 1","List 1",tapioca,,18,4.666666667,1815,0.413937663,19,BOI,-,-,"Please name all of the ways you could use this object. Keep in mind that one object can have many uses. Separate your responses with a comma.",,y,5298,,,3768,4433,,,,"to eat",1
5d696d1c55742f001af29220,tf0857vqbq,"Affordance Norms_Prolific",1,25,2023-07-27T21:01:47+00:00,7.765114068985,1,"updated stim.csv",Version1.csv,"Version 1","List 1",juror,,17,5.481481481,1600,0.476399064,18,BOI,-,-,"Please name all of the ways you could use this object. Keep in mind that one object can have many uses. Separate your responses with a comma.",,y,7118,,,2939,6621,,,,"to make a decision in a case",1
5d696d1c55742f001af29220,tf0857vqbq,"Affordance Norms_Prolific",1,26,2023-07-27T21:01:55+00:00,8.0981159210205,1,"updated stim.csv",Version1.csv,"Version 1","List 1",crossbar,,8,5.454545455,1935,0.125396232,9,BOI,-,-,"Please name all of the ways you could use this object. Keep in mind that one object can have many uses. Separate your responses with a comma.",,y,7684,,,4206,7408,,,,"for playing sports",1
5d696d1c55742f001af29220,tf0857vqbq,"Affordance Norms_Prolific",1,27,2023-07-27T21:02:22+00:00,27.265997171402,1,"updated stim.csv",Version1.csv,"Version 1","List 1",spool,,30,5.64,2491,0.148115672,31,BOI,-,-,"Please name all of the ways you could use this object. Keep in mind that one object can have many uses. Separate your responses with a comma.",,y,26776,,,22823,25793,,,,"to hold thread",1
5d696d1c55742f001af29220,tf0857vqbq,"Affordance Norms_Prolific",1,28,2023-07-27T21:02:28+00:00,6.0497479438782,1,"updated stim.csv",Version1.csv,"Version 1","List 1",dipstick,,22,4.826086957,1618,0.113902737,23,BOI,-,-,"Please name all of the ways you could use this object. Keep in mind that one object can have many uses. Separate your responses with a comma.",,y,5568,,,1570,4708,,,,"to check oil levels ",1
5d696d1c55742f001af29220,tf0857vqbq,"Affordance Norms_Prolific",1,29,2023-07-27T21:02:37+00:00,8.9553990364075,1,"updated stim.csv",Version1.csv,"Version 1","List 1",cashmere,,23,4.84,1448,0.448711971,24,BOI,-,-,"Please name all of the ways you could use this object. Keep in mind that one object can have many uses. Separate your responses with a comma.",,y,8529,,,1159,8116,,,,"to make a clothes",1
5d696d1c55742f001af29220,tf0857vqbq,"Affordance Norms_Prolific",1,30,2023-07-27T21:02:49+00:00,11.839315891266,1,"updated stim.csv",Version1.csv,"Version 1","List 1",hookah,,2,6.416666667,2301,0.945985105,3,BOI,-,-,"Please name all of the ways you could use this object. Keep in mind that one object can have many uses. Separate your responses with a comma.",,y,11383,,,10291,11176,,,,"to smoke",1
5d696d1c55742f001af29220,tf0857vqbq,"Affordance Norms_Prolific",1,31,2023-07-27T21:03:06+00:00,17.054439067841,1,"updated stim.csv",Version1.csv,"Version 1","List 1",sod,,6,4.375,1389,0.172930083,7,BOI,-,-,"Please name all of the ways you could use this object. Keep in mind that one object can have many uses. Separate your responses with a comma.",,y,16565,,,8970,16238,,,,"to play sports, for gardening",1
5d696d1c55742f001af29220,tf0857vqbq,"Affordance Norms_Prolific",1,32,2023-07-27T21:03:26+00:00,19.749845027924,1,"updated stim.csv",Version1.csv,"Version 1","List 1",gasket,,4,5.416666667,1464,0.391267155,5,BOI,-,-,"Please name all of the ways you could use this object. Keep in mind that one object can have many uses. Separate your responses with a comma.",,y,19270,,,16789,18962,,,,"to seal something",1
5d696d1c55742f001af29220,tf0857vqbq,"Affordance Norms_Prolific",1,33,2023-07-27T21:03:44+00:00,18.293661832809,1,"updated stim.csv",Version1.csv,"Version 1","List 1",medal,,13,4.444444444,1011,0.860315666,14,BOI,-,-,"Please name all of the ways you could use this object. Keep in mind that one object can have many uses. Separate your responses with a comma.",,y,17815,,,1483,17554,,,,"in a competition, to reward someone",1
5d696d1c55742f001af29220,tf0857vqbq,"Affordance Norms_Prolific",1,34,2023-07-27T21:03:58+00:00,13.754840135574,1,"updated stim.csv",Version1.csv,"Version 1","List 1",kumquat,,1,4.538461538,764,0.261476603,2,BOI,-,-,"Please name all of the ways you could use this object. Keep in mind that one object can have many uses. Separate your responses with a comma.",,y,13142,,,12176,12795,,,,"to eat",1
5d696d1c55742f001af29220,tf0857vqbq,"Affordance Norms_Prolific",1,35,2023-07-27T21:04:10+00:00,11.479249000549,1,"updated stim.csv",Version1.csv,"Version 1","List 1",decor,,24,5.347826087,469,0.48837589,25,BOI,-,-,"Please name all of the ways you could use this object. Keep in mind that one object can have many uses. Separate your responses with a comma.",,y,11041,,,3503,10738,,,,"to decorate a room, for interior design",1
5d696d1c55742f001af29220,tf0857vqbq,"Affordance Norms_Prolific",1,36,2023-07-27T21:04:15+00:00,4.9791378974915,1,"updated stim.csv",Version1.csv,"Version 1","List 1",tar,,11,5.92,2708,0.629763414,12,BOI,-,-,"Please name all of the ways you could use this object. Keep in mind that one object can have many uses. Separate your responses with a comma.",,y,4554,,,1531,4401,,,,"for a road",1
5d696d1c55742f001af29220,tf0857vqbq,"Affordance Norms_Prolific",1,37,2023-07-27T21:04:32+00:00,17.342394113541,1,"updated stim.csv",Version1.csv,"Version 1","List 1",hailstone,,16,5.565217391,1319,0.287274537,17,BOI,-,-,"Please name all of the ways you could use this object. Keep in mind that one object can have many uses. Separate your responses with a comma.",,y,16814,,,13965,16460,,,,"replenish water ",1
5d696d1c55742f001af29220,tf0857vqbq,"Affordance Norms_Prolific",1,38,2023-07-27T21:04:50+00:00,18.302019834518,1,"updated stim.csv",Version1.csv,"Version 1","List 1",jaguar,,12,5.777777778,2235,0.168486135,13,BOI,-,-,"Please name all of the ways you could use this object. Keep in mind that one object can have many uses. Separate your responses with a comma.",,y,17738,,,13809,17369,,,,"protect ecosystem",1
5d696d1c55742f001af29220,tf0857vqbq,"Affordance Norms_Prolific",1,39,2023-07-27T21:05:03+00:00,12.360263109207,1,"updated stim.csv",Version1.csv,"Version 1","List 1",asshole,,29,5.88,1967,0.018459114,30,BOI,-,-,"Please name all of the ways you could use this object. Keep in mind that one object can have many uses. Separate your responses with a comma.",,y,11774,,,4235,8504,,,,"excretion ",1
5d696d1c55742f001af29220,tf0857vqbq,"Affordance Norms_Prolific",1,40,2023-07-27T21:05:14+00:00,11.019227981567,1,"updated stim.csv",Version1.csv,"Version 1","List 1",gourd,,20,5.458333333,2953,0.249710528,21,BOI,-,-,"Please name all of the ways you could use this object. Keep in mind that one object can have many uses. Separate your responses with a comma.",,y,10330,,,7599,10098,,,,"to eat, for cooking",1
5d696d1c55742f001af29220,tf0857vqbq,"Affordance Norms_Prolific",1,41,2023-07-27T21:05:16+00:00,2.0959351062775,1,"updated stim.csv",Version1.csv,"Version 1","List 1",,,,,,,0,Instruct,,,"You will now be asked a few questions about your experience today.",,"Instruct 4",1662,,,-1,-1,,,,,1
