Username,ID,ExperimentName,Session,Trial,Date,TimeDif,"Condition Number","Stimuli File","Order File","Condition Description","Condition Notes",Stimuli*Cue,Stimuli*Answer,Stimuli*Shuffle,"Stimuli*Stimuli Notes",Stimuli*Value,Stimuli*Rand,Procedure*Item,"Procedure*Trial Type","Procedure*Max Time","Procedure*Min Time",Procedure*Text,"Procedure*Procedure Notes",Procedure*Shuffle,Response*RT,Response*Response,Response*Accuracy,Response*RTfirst,Response*RTlast,Response*strictAcc,Response*lenientAcc,Response*focus,Response*JOL,Response*Focus
w500781JC,4cxcp6s77y,"BOI Norms",1,1,2021-11-15T18:43:56+00:00,12.033180952072,1,"updated stim.csv",Version26.csv,"Version 26","List 26",,,,,,,0,Instruct,-,10,"In this section, you will be presented with a series of objects. Please name as many possible uses for this object as you can think of by typing them in the box below each object.",,Instruct1,11834,,,-1,-1,,,,,1
w500781JC,4cxcp6s77y,"BOI Norms",1,2,2021-11-15T18:44:08+00:00,11.405408143997,1,"updated stim.csv",Version26.csv,"Version 26","List 26",,,,,,,0,Instruct,-,10,"Please keep in mind that a single object will have more than one use. For example, a ball can be thrown or can be bounced or even stepped on. When listing multiple uses for one object, please separate each use with a comma (i.e., thrown, bounced, stepped on)",,Instruct2,11216,,,-1,-1,,,,,1
w500781JC,4cxcp6s77y,"BOI Norms",1,3,2021-11-15T18:44:09+00:00,1.1633789539337,1,"updated stim.csv",Version26.csv,"Version 26","List 26",,,,,,,0,Instruct,-,-,"Before starting the experiment, you will complete a short practice sesstion. Press ENTER when you are ready to begin.",,Instruct3,969,,,-1,-1,,,,,1
w500781JC,4cxcp6s77y,"BOI Norms",1,4,2021-11-15T18:44:38+00:00,28.801587104797,1,"updated stim.csv",Version26.csv,"Version 26","List 26",shortening,,3002,4.92,2358,0.604328482,3003,BOI,-,-,"Please name all of the ways you could use this object. Keep in mind that one object can have many uses. Separate your responses with a comma.",,n,28373,,,14375,25545,,,,"hair, clothes, paper, ",1
w500781JC,4cxcp6s77y,"BOI Norms",1,5,2021-11-15T18:44:48+00:00,9.8308389186859,1,"updated stim.csv",Version26.csv,"Version 26","List 26",spaghetti,,3003,6,2461,0.090379998,3004,BOI,-,-,"Please name all of the ways you could use this object. Keep in mind that one object can have many uses. Separate your responses with a comma.",,n,9612,,,2187,8859,,,,"eat, cook, throw, noodles",1
w500781JC,4cxcp6s77y,"BOI Norms",1,6,2021-11-15T18:44:54+00:00,6.7218198776245,1,"updated stim.csv",Version26.csv,"Version 26","List 26",grain,,3004,5.217391304,1143,0.226863762,3005,BOI,-,-,"Please name all of the ways you could use this object. Keep in mind that one object can have many uses. Separate your responses with a comma.",,n,6496,,,1904,5564,,,,"rice, sand",1
w500781JC,4cxcp6s77y,"BOI Norms",1,7,2021-11-15T18:44:59+00:00,4.8280160427094,1,"updated stim.csv",Version26.csv,"Version 26","List 26",saucer,,3005,5.777777778,2249,0.304808074,3006,BOI,-,-,"Please name all of the ways you could use this object. Keep in mind that one object can have many uses. Separate your responses with a comma.",,n,4632,,,2011,2833,,,,cooking,1
w500781JC,4cxcp6s77y,"BOI Norms",1,8,2021-11-15T18:45:09+00:00,10.036292076111,1,"updated stim.csv",Version26.csv,"Version 26","List 26",paperwork,,3001,5.625,1866,0.124284162,3002,BOI,-,-,"Please name all of the ways you could use this object. Keep in mind that one object can have many uses. Separate your responses with a comma.",,n,9800,,,2087,8390,,,,"work, school, write, throw away ",1
w500781JC,4cxcp6s77y,"BOI Norms",1,9,2021-11-15T18:45:11+00:00,2.0021748542786,1,"updated stim.csv",Version26.csv,"Version 26","List 26",,,,,,,0,Instruct,-,-,"You have completed this section. Press ENTER to continue",,"Instruct 5",1777,,,-1,-1,,,,,1
w500781JC,4cxcp6s77y,"BOI Norms",1,10,2021-11-15T18:45:13+00:00,2.0956401824951,1,"updated stim.csv",Version26.csv,"Version 26","List 26",,,,,,,0,Instruct,-,-,"You will now start the full experiment. Press ENTER when you are ready to begin.",,,1909,,,-1,-1,,,,,1
w500781JC,4cxcp6s77y,"BOI Norms",1,11,2021-11-15T18:45:33+00:00,19.557140827179,1,"updated stim.csv",Version26.csv,"Version 26","List 26",snot,,761,5.32,2429,0.389267815,762,BOI,-,-,"Please name all of the ways you could use this object. Keep in mind that one object can have many uses. Separate your responses with a comma.",,y,19351,,,1612,18071,,,,"sniff, snort, blow your nose",1
w500781JC,4cxcp6s77y,"BOI Norms",1,12,2021-11-15T18:45:46+00:00,12.80309510231,1,"updated stim.csv",Version26.csv,"Version 26","List 26",marble,,776,5.48,1602,0.149255427,777,BOI,-,-,"Please name all of the ways you could use this object. Keep in mind that one object can have many uses. Separate your responses with a comma.",,y,12559,,,1632,11753,,,,"throw, play, hit another marble",1
w500781JC,4cxcp6s77y,"BOI Norms",1,13,2021-11-15T18:45:54+00:00,8.197329044342,1,"updated stim.csv",Version26.csv,"Version 26","List 26",revolver,,775,5.555555556,2161,0.026141084,776,BOI,-,-,"Please name all of the ways you could use this object. Keep in mind that one object can have many uses. Separate your responses with a comma.",,y,7929,,,1208,6428,,,,"shoot, play fortnite",1
w500781JC,4cxcp6s77y,"BOI Norms",1,14,2021-11-15T18:45:59+00:00,5.5044269561768,1,"updated stim.csv",Version26.csv,"Version 26","List 26",beverage,,771,6.208333333,206,0.924119879,772,BOI,-,-,"Please name all of the ways you could use this object. Keep in mind that one object can have many uses. Separate your responses with a comma.",,y,5303,,,966,4481,,,,"drink, sip, pour out",1
w500781JC,4cxcp6s77y,"BOI Norms",1,15,2021-11-15T18:46:06+00:00,7.1133999824524,1,"updated stim.csv",Version26.csv,"Version 26","List 26",rucksack,,755,5.041666667,2203,0.599599448,756,BOI,-,-,"Please name all of the ways you could use this object. Keep in mind that one object can have many uses. Separate your responses with a comma.",,y,6919,,,1924,5523,,,,"i have no idea what this is",1
w500781JC,4cxcp6s77y,"BOI Norms",1,16,2021-11-15T18:46:14+00:00,7.1837739944458,1,"updated stim.csv",Version26.csv,"Version 26","List 26",roast,,759,4.821428571,2179,0.992823998,760,BOI,-,-,"Please name all of the ways you could use this object. Keep in mind that one object can have many uses. Separate your responses with a comma.",,y,7000,,,1110,5506,,,,"cook, eat, slow cook, ",1
w500781JC,4cxcp6s77y,"BOI Norms",1,17,2021-11-15T18:46:20+00:00,6.1172819137573,1,"updated stim.csv",Version26.csv,"Version 26","List 26",slug,,751,4.434782609,2418,0.458803777,752,BOI,-,-,"Please name all of the ways you could use this object. Keep in mind that one object can have many uses. Separate your responses with a comma.",,y,5888,,,2839,4196,,,,"pick it up ",1
w500781JC,4cxcp6s77y,"BOI Norms",1,18,2021-11-15T18:46:29+00:00,9.3289241790771,1,"updated stim.csv",Version26.csv,"Version 26","List 26",prisoner,,753,4.307692308,2067,0.439283769,754,BOI,-,-,"Please name all of the ways you could use this object. Keep in mind that one object can have many uses. Separate your responses with a comma.",,y,9141,,,1931,7941,,,,"imprison them, talk to them",1
w500781JC,4cxcp6s77y,"BOI Norms",1,19,2021-11-15T18:46:37+00:00,7.8994610309601,1,"updated stim.csv",Version26.csv,"Version 26","List 26",steelworker,,778,4.44,2518,0.368072678,779,BOI,-,-,"Please name all of the ways you could use this object. Keep in mind that one object can have many uses. Separate your responses with a comma.",,y,7672,,,4839,6741,,,,"idk its a person",1
w500781JC,4cxcp6s77y,"BOI Norms",1,20,2021-11-15T18:46:50+00:00,13.13138794899,1,"updated stim.csv",Version26.csv,"Version 26","List 26",weapon,,763,5.52173913,2914,0.471053028,764,BOI,-,-,"Please name all of the ways you could use this object. Keep in mind that one object can have many uses. Separate your responses with a comma.",,y,12934,,,931,12006,,,,"shoot, hunt, use",1
w500781JC,4cxcp6s77y,"BOI Norms",1,21,2021-11-15T18:46:56+00:00,6.1462459564209,1,"updated stim.csv",Version26.csv,"Version 26","List 26",mistletoe,,774,4.592592593,1668,0.623253959,775,BOI,-,-,"Please name all of the ways you could use this object. Keep in mind that one object can have many uses. Separate your responses with a comma.",,y,5901,,,1465,4249,,,,"kiss, decorate",1
w500781JC,4cxcp6s77y,"BOI Norms",1,22,2021-11-15T18:47:05+00:00,8.9602959156036,1,"updated stim.csv",Version26.csv,"Version 26","List 26",mat,,772,5.814814815,1619,0.401188237,773,BOI,-,-,"Please name all of the ways you could use this object. Keep in mind that one object can have many uses. Separate your responses with a comma.",,y,8761,,,1892,7925,,,,"decorations, keep dirt off",1
w500781JC,4cxcp6s77y,"BOI Norms",1,23,2021-11-15T18:47:11+00:00,6.0881161689758,1,"updated stim.csv",Version26.csv,"Version 26","List 26",thumbscrew,,760,5.173913043,2689,0.65329656,761,BOI,-,-,"Please name all of the ways you could use this object. Keep in mind that one object can have many uses. Separate your responses with a comma.",,y,5849,,,1203,4572,,,,"idk what this is",1
w500781JC,4cxcp6s77y,"BOI Norms",1,24,2021-11-15T18:47:20+00:00,8.5269999504089,1,"updated stim.csv",Version26.csv,"Version 26","List 26",insect,,777,5.125,1357,0.664903134,778,BOI,-,-,"Please name all of the ways you could use this object. Keep in mind that one object can have many uses. Separate your responses with a comma.",,y,8325,,,5452,6944,,,,"squoosh, ",1
w500781JC,4cxcp6s77y,"BOI Norms",1,25,2021-11-15T18:47:24+00:00,3.9996428489685,1,"updated stim.csv",Version26.csv,"Version 26","List 26",paratrooper,,767,4.291666667,1872,0.246368149,768,BOI,-,-,"Please name all of the ways you could use this object. Keep in mind that one object can have many uses. Separate your responses with a comma.",,y,3806,,,2329,2840,,,,wave,1
w500781JC,4cxcp6s77y,"BOI Norms",1,26,2021-11-15T18:47:28+00:00,4.4313981533051,1,"updated stim.csv",Version26.csv,"Version 26","List 26",lamb,,769,4.444444444,1453,0.69971583,770,BOI,-,-,"Please name all of the ways you could use this object. Keep in mind that one object can have many uses. Separate your responses with a comma.",,y,4244,,,2618,3237,,,,farm,1
w500781JC,4cxcp6s77y,"BOI Norms",1,27,2021-11-15T18:47:34+00:00,5.2591350078583,1,"updated stim.csv",Version26.csv,"Version 26","List 26",hatchet,,779,5.791666667,1261,0.128633882,780,BOI,-,-,"Please name all of the ways you could use this object. Keep in mind that one object can have many uses. Separate your responses with a comma.",,y,5071,,,1289,4092,,,,"throw, cut",1
w500781JC,4cxcp6s77y,"BOI Norms",1,28,2021-11-15T18:47:38+00:00,4.335921049118,1,"updated stim.csv",Version26.csv,"Version 26","List 26",pincushion,,757,5.260869565,1969,0.781665288,758,BOI,-,-,"Please name all of the ways you could use this object. Keep in mind that one object can have many uses. Separate your responses with a comma.",,y,4111,,,2702,3010,,,,what,1
w500781JC,4cxcp6s77y,"BOI Norms",1,29,2021-11-15T18:47:45+00:00,7.2617738246918,1,"updated stim.csv",Version26.csv,"Version 26","List 26",pal,,765,4.333333333,1852,0.866100355,766,BOI,-,-,"Please name all of the ways you could use this object. Keep in mind that one object can have many uses. Separate your responses with a comma.",,y,6761,,,1755,5573,,,,"hi five",1
w500781JC,4cxcp6s77y,"BOI Norms",1,30,2021-11-15T18:47:55+00:00,9.4795670509338,1,"updated stim.csv",Version26.csv,"Version 26","List 26",sauce,,754,5.130434783,2247,0.513278326,755,BOI,-,-,"Please name all of the ways you could use this object. Keep in mind that one object can have many uses. Separate your responses with a comma.",,y,9233,,,1810,7352,,,,"put on food, eat, marinate, ",1
w500781JC,4cxcp6s77y,"BOI Norms",1,31,2021-11-15T18:47:59+00:00,4.1891760826111,1,"updated stim.csv",Version26.csv,"Version 26","List 26",merchantman,,773,4.5,1649,0.903328675,774,BOI,-,-,"Please name all of the ways you could use this object. Keep in mind that one object can have many uses. Separate your responses with a comma.",,y,3968,,,2414,3057,,,,"talk to",1
w500781JC,4cxcp6s77y,"BOI Norms",1,32,2021-11-15T18:48:02+00:00,2.709636926651,1,"updated stim.csv",Version26.csv,"Version 26","List 26",caretaker,,770,5.071428571,433,0.100607423,771,BOI,-,-,"Please name all of the ways you could use this object. Keep in mind that one object can have many uses. Separate your responses with a comma.",,y,2508,,,1222,1851,,,,"talk to",1
w500781JC,4cxcp6s77y,"BOI Norms",1,33,2021-11-15T18:48:09+00:00,7.6788020133972,1,"updated stim.csv",Version26.csv,"Version 26","List 26",magazine,,752,6.166666667,1569,0.345576136,753,BOI,-,-,"Please name all of the ways you could use this object. Keep in mind that one object can have many uses. Separate your responses with a comma.",,y,7474,,,937,6499,,,,"read, write, critiqe",1
w500781JC,4cxcp6s77y,"BOI Norms",1,34,2021-11-15T18:48:16+00:00,7.2712419033051,1,"updated stim.csv",Version26.csv,"Version 26","List 26",poster,,764,5.583333333,2043,0.767346801,765,BOI,-,-,"Please name all of the ways you could use this object. Keep in mind that one object can have many uses. Separate your responses with a comma.",,y,7038,,,1221,5819,,,,"look at, hang up",1
w500781JC,4cxcp6s77y,"BOI Norms",1,35,2021-11-15T18:48:24+00:00,7.7937960624695,1,"updated stim.csv",Version26.csv,"Version 26","List 26",citrus,,762,4.6,544,0.540841609,763,BOI,-,-,"Please name all of the ways you could use this object. Keep in mind that one object can have many uses. Separate your responses with a comma.",,y,7375,,,1596,6473,,,,"eat, drink",1
w500781JC,4cxcp6s77y,"BOI Norms",1,36,2021-11-15T18:48:32+00:00,7.3553130626678,1,"updated stim.csv",Version26.csv,"Version 26","List 26",head,,780,5.48,1263,0.453747939,781,BOI,-,-,"Please name all of the ways you could use this object. Keep in mind that one object can have many uses. Separate your responses with a comma.",,y,7119,,,1721,5600,,,,"nod, ",1
w500781JC,4cxcp6s77y,"BOI Norms",1,37,2021-11-15T18:48:34+00:00,2.6653120517731,1,"updated stim.csv",Version26.csv,"Version 26","List 26",crepe,,756,5.416666667,692,0.461819539,757,BOI,-,-,"Please name all of the ways you could use this object. Keep in mind that one object can have many uses. Separate your responses with a comma.",,y,2475,,,1504,1823,,,,what,1
w500781JC,4cxcp6s77y,"BOI Norms",1,38,2021-11-15T18:48:46+00:00,12.057907819748,1,"updated stim.csv",Version26.csv,"Version 26","List 26",powder,,758,5.416666667,2054,0.401284528,759,BOI,-,-,"Please name all of the ways you could use this object. Keep in mind that one object can have many uses. Separate your responses with a comma.",,y,11833,,,3359,10633,,,,"throw up at a football game, help a baby",1
w500781JC,4cxcp6s77y,"BOI Norms",1,39,2021-11-15T18:48:50+00:00,4.0778610706329,1,"updated stim.csv",Version26.csv,"Version 26","List 26",tracksuit,,766,5.653846154,2752,0.23464912,767,BOI,-,-,"Please name all of the ways you could use this object. Keep in mind that one object can have many uses. Separate your responses with a comma.",,y,3874,,,2900,3213,,,,wear,1
w500781JC,4cxcp6s77y,"BOI Norms",1,40,2021-11-15T18:48:57+00:00,6.7576150894165,1,"updated stim.csv",Version26.csv,"Version 26","List 26",wallet,,768,6.136363636,2888,0.225303707,769,BOI,-,-,"Please name all of the ways you could use this object. Keep in mind that one object can have many uses. Separate your responses with a comma.",,y,6587,,,1941,3947,,,,"store money",1
w500781JC,4cxcp6s77y,"BOI Norms",1,41,2021-11-15T18:48:59+00:00,2.1252429485321,1,"updated stim.csv",Version26.csv,"Version 26","List 26",,,,,,,0,Instruct,,,"You will now be asked a few questions about your experience today.",,"Instruct 4",1929,,,-1,-1,,,,,1
