Username,ID,ExperimentName,Session,Trial,Date,TimeDif,"Condition Number","Stimuli File","Order File","Condition Description","Condition Notes",Stimuli*Cue,Stimuli*Answer,Stimuli*Shuffle,"Stimuli*Stimuli Notes",Stimuli*Value,Procedure*Item,"Procedure*Trial Type","Procedure*Max Time","Procedure*Min Time",Procedure*Text,"Procedure*Procedure Notes",Procedure*Shuffle,Response*RT,Response*Response,Response*Accuracy,Response*RTfirst,Response*RTlast,Response*strictAcc,Response*lenientAcc,Response*focus,Response*JOL,Response*Focus
w10061360_ja,d0yrcpm4mb,"BOI Norms",1,1,2021-02-20T23:27:25-08:00,12.905736923218,7,"updated stim.csv",Version32.csv,"Version 32","List 32",,,,,,0,Instruct,-,10,"In this section, you will be presented with a series of objects. Please name as many possible uses for this object as you can think of by typing them in the box below each object.",,Instruct1,12741,,,-1,-1,,,,,1
w10061360_ja,d0yrcpm4mb,"BOI Norms",1,2,2021-02-20T23:27:37-08:00,11.563930034637,7,"updated stim.csv",Version32.csv,"Version 32","List 32",,,,,,0,Instruct,-,10,"Please keep in mind that a single object will have more than one use. For example, a ball can be thrown or can be bounced or even stepped on. When listing multiple uses for one object, please separate each use with a comma (i.e., thrown, bounced, stepped on)",,Instruct2,11307,,,-1,-1,,,,,1
w10061360_ja,d0yrcpm4mb,"BOI Norms",1,3,2021-02-20T23:27:40-08:00,3.7088479995728,7,"updated stim.csv",Version32.csv,"Version 32","List 32",,,,,,0,Instruct,-,-,"Before starting the experiment, you will complete a short practice sesstion. Press ENTER when you are ready to begin.",,Instruct3,3491,,,-1,-1,,,,,1
w10061360_ja,d0yrcpm4mb,"BOI Norms",1,4,2021-02-20T23:28:01-08:00,20.638703107834,7,"updated stim.csv",Version32.csv,"Version 32","List 32",saucer,,3005,5.777777778,2249,3006,BOI,-,-,"Please name all of the ways you could use this object. Keep in mind that one object can have many uses. Separate your responses with a comma.",,n,20381,,,10782,16801,,,,"hold, shake, sprinkle",1
w10061360_ja,d0yrcpm4mb,"BOI Norms",1,5,2021-02-20T23:28:19-08:00,18.241698980331,7,"updated stim.csv",Version32.csv,"Version 32","List 32",grain,,3004,5.217391304,1143,3005,BOI,-,-,"Please name all of the ways you could use this object. Keep in mind that one object can have many uses. Separate your responses with a comma.",,n,17963,,,6605,11277,,,,"plant, season",1
w10061360_ja,d0yrcpm4mb,"BOI Norms",1,6,2021-02-20T23:28:30-08:00,10.609964847565,7,"updated stim.csv",Version32.csv,"Version 32","List 32",spaghetti,,3003,6,2461,3004,BOI,-,-,"Please name all of the ways you could use this object. Keep in mind that one object can have many uses. Separate your responses with a comma.",,n,10398,,,2884,8799,,,,"eaten, cooked, stored",1
w10061360_ja,d0yrcpm4mb,"BOI Norms",1,7,2021-02-20T23:28:47-08:00,16.624679088593,7,"updated stim.csv",Version32.csv,"Version 32","List 32",paperwork,,3001,5.625,1866,3002,BOI,-,-,"Please name all of the ways you could use this object. Keep in mind that one object can have many uses. Separate your responses with a comma.",,n,16395,,,2168,14536,,,,"filed, shredded, submitted",1
w10061360_ja,d0yrcpm4mb,"BOI Norms",1,8,2021-02-20T23:29:07-08:00,20.234128952026,7,"updated stim.csv",Version32.csv,"Version 32","List 32",shortening,,3002,4.92,2358,3003,BOI,-,-,"Please name all of the ways you could use this object. Keep in mind that one object can have many uses. Separate your responses with a comma.",,n,19991,,,8646,17494,,,,"elevate, decrease",1
w10061360_ja,d0yrcpm4mb,"BOI Norms",1,9,2021-02-20T23:29:09-08:00,2.3835079669952,7,"updated stim.csv",Version32.csv,"Version 32","List 32",,,,,,0,Instruct,-,-,"You have completed this section. Press ENTER to continue",,"Instruct 5",2169,,,-1,-1,,,,,1
w10061360_ja,d0yrcpm4mb,"BOI Norms",1,10,2021-02-20T23:29:19-08:00,10.114322185516,7,"updated stim.csv",Version32.csv,"Version 32","List 32",,,,,,0,Instruct,-,-,"You will now start the full experiment. Press ENTER when you are ready to begin.",,,9894,,,-1,-1,,,,,1
w10061360_ja,d0yrcpm4mb,"BOI Norms",1,11,2021-02-20T23:29:44-08:00,25.163821935654,7,"updated stim.csv",Version32.csv,"Version 32","List 32",bead,,951,5.545454545,178,952,BOI,-,-,"Please name all of the ways you could use this object. Keep in mind that one object can have many uses. Separate your responses with a comma.",,y,24929,,,7315,23388,,,,"design, create, arrange",1
w10061360_ja,d0yrcpm4mb,"BOI Norms",1,12,2021-02-20T23:30:00-08:00,15.540625095367,7,"updated stim.csv",Version32.csv,"Version 32","List 32",trousers,,948,6.185185185,2783,949,BOI,-,-,"Please name all of the ways you could use this object. Keep in mind that one object can have many uses. Separate your responses with a comma.",,y,15316,,,8237,9769,,,,conceal,1
w10061360_ja,d0yrcpm4mb,"BOI Norms",1,13,2021-02-20T23:30:25-08:00,24.782143831253,7,"updated stim.csv",Version32.csv,"Version 32","List 32",skillet,,949,5.409090909,2398,950,BOI,-,-,"Please name all of the ways you could use this object. Keep in mind that one object can have many uses. Separate your responses with a comma.",,y,24554,,,1617,15761,,,,"cook, heat",1
w10061360_ja,d0yrcpm4mb,"BOI Norms",1,14,2021-02-20T23:30:34-08:00,8.9548771381378,7,"updated stim.csv",Version32.csv,"Version 32","List 32",tinplate,,934,4.869565217,2704,935,BOI,-,-,"Please name all of the ways you could use this object. Keep in mind that one object can have many uses. Separate your responses with a comma.",,y,8703,,,3990,7307,,,,"hold, serve",1
w10061360_ja,d0yrcpm4mb,"BOI Norms",1,15,2021-02-20T23:30:46-08:00,12.754675865173,7,"updated stim.csv",Version32.csv,"Version 32","List 32",tin,,941,4.727272727,2701,942,BOI,-,-,"Please name all of the ways you could use this object. Keep in mind that one object can have many uses. Separate your responses with a comma.",,y,12546,,,7702,8261,,,,mold,1
w10061360_ja,d0yrcpm4mb,"BOI Norms",1,16,2021-02-20T23:31:14-08:00,27.271929979324,7,"updated stim.csv",Version32.csv,"Version 32","List 32",glassblower,,946,4.52173913,1111,947,BOI,-,-,"Please name all of the ways you could use this object. Keep in mind that one object can have many uses. Separate your responses with a comma.",,y,27042,,,20191,25567,,,,inflating,1
w10061360_ja,d0yrcpm4mb,"BOI Norms",1,17,2021-02-20T23:31:27-08:00,13.693258047104,7,"updated stim.csv",Version32.csv,"Version 32","List 32",sidewalk,,959,5.291666667,2377,960,BOI,-,-,"Please name all of the ways you could use this object. Keep in mind that one object can have many uses. Separate your responses with a comma.",,y,13462,,,1617,11948,,,,"walk on, pathway",1
w10061360_ja,d0yrcpm4mb,"BOI Norms",1,18,2021-02-20T23:31:45-08:00,17.450654983521,7,"updated stim.csv",Version32.csv,"Version 32","List 32",machinery,,954,5.416666667,1568,955,BOI,-,-,"Please name all of the ways you could use this object. Keep in mind that one object can have many uses. Separate your responses with a comma.",,y,17234,,,3146,15556,,,,"create, fix, mold",1
w10061360_ja,d0yrcpm4mb,"BOI Norms",1,19,2021-02-20T23:32:04-08:00,18.750566005707,7,"updated stim.csv",Version32.csv,"Version 32","List 32",balm,,952,4.583333333,134,953,BOI,-,-,"Please name all of the ways you could use this object. Keep in mind that one object can have many uses. Separate your responses with a comma.",,y,18544,,,2330,4973,,,,moisturize,1
w10061360_ja,d0yrcpm4mb,"BOI Norms",1,20,2021-02-20T23:32:12-08:00,8.7382049560547,7,"updated stim.csv",Version32.csv,"Version 32","List 32",dollar,,944,6.24,815,945,BOI,-,-,"Please name all of the ways you could use this object. Keep in mind that one object can have many uses. Separate your responses with a comma.",,y,8502,,,2053,7231,,,,"spend, save, invest",1
w10061360_ja,d0yrcpm4mb,"BOI Norms",1,21,2021-02-20T23:32:26-08:00,14.10073018074,7,"updated stim.csv",Version32.csv,"Version 32","List 32",costume,,935,6.28,657,936,BOI,-,-,"Please name all of the ways you could use this object. Keep in mind that one object can have many uses. Separate your responses with a comma.",,y,13876,,,3156,12375,,,,"conceal, hide, dress up",1
w10061360_ja,d0yrcpm4mb,"BOI Norms",1,22,2021-02-20T23:32:35-08:00,8.7457599639893,7,"updated stim.csv",Version32.csv,"Version 32","List 32",rotisserie,,956,4.791666667,2198,957,BOI,-,-,"Please name all of the ways you could use this object. Keep in mind that one object can have many uses. Separate your responses with a comma.",,y,8507,,,1632,7163,,,,"eat, cook, bake",1
w10061360_ja,d0yrcpm4mb,"BOI Norms",1,23,2021-02-20T23:33:05-08:00,29.475612878799,7,"updated stim.csv",Version32.csv,"Version 32","List 32",pumice,,938,4.857142857,2095,939,BOI,-,-,"Please name all of the ways you could use this object. Keep in mind that one object can have many uses. Separate your responses with a comma.",,y,29220,,,25550,27588,,,,"not applicable",1
w10061360_ja,d0yrcpm4mb,"BOI Norms",1,24,2021-02-20T23:33:33-08:00,27.952723026276,7,"updated stim.csv",Version32.csv,"Version 32","List 32",dessert,,958,5.695652174,781,959,BOI,-,-,"Please name all of the ways you could use this object. Keep in mind that one object can have many uses. Separate your responses with a comma.",,y,27692,,,1656,20002,,,,"eat, sweeten",1
w10061360_ja,d0yrcpm4mb,"BOI Norms",1,25,2021-02-20T23:33:57-08:00,24.063749074936,7,"updated stim.csv",Version32.csv,"Version 32","List 32",stretcher,,947,5.08,2567,948,BOI,-,-,"Please name all of the ways you could use this object. Keep in mind that one object can have many uses. Separate your responses with a comma.",,y,23838,,,2617,21147,,,,"expand, lay on in emergency cases",1
w10061360_ja,d0yrcpm4mb,"BOI Norms",1,26,2021-02-20T23:34:17-08:00,20.661146879196,7,"updated stim.csv",Version32.csv,"Version 32","List 32",ash,,937,4.333333333,81,938,BOI,-,-,"Please name all of the ways you could use this object. Keep in mind that one object can have many uses. Separate your responses with a comma.",,y,20414,,,17938,18504,,,,throw,1
w10061360_ja,d0yrcpm4mb,"BOI Norms",1,27,2021-02-20T23:34:46-08:00,28.853821992874,7,"updated stim.csv",Version32.csv,"Version 32","List 32",pocketknife,,932,5.692307692,2015,933,BOI,-,-,"Please name all of the ways you could use this object. Keep in mind that one object can have many uses. Separate your responses with a comma.",,y,28618,,,3470,26862,,,,"self defense, open items, stab",1
w10061360_ja,d0yrcpm4mb,"BOI Norms",1,28,2021-02-20T23:35:10-08:00,23.636996984482,7,"updated stim.csv",Version32.csv,"Version 32","List 32",songbook,,955,5.76,2452,956,BOI,-,-,"Please name all of the ways you could use this object. Keep in mind that one object can have many uses. Separate your responses with a comma.",,y,23401,,,7335,21687,,,,"verses, musical notes, lyrics",1
w10061360_ja,d0yrcpm4mb,"BOI Norms",1,29,2021-02-20T23:35:15-08:00,5.5567581653595,7,"updated stim.csv",Version32.csv,"Version 32","List 32",fan,,939,5.72,945,940,BOI,-,-,"Please name all of the ways you could use this object. Keep in mind that one object can have many uses. Separate your responses with a comma.",,y,5324,,,2294,3473,,,,"to cool",1
w10061360_ja,d0yrcpm4mb,"BOI Norms",1,30,2021-02-20T23:36:02-08:00,46.458585977554,7,"updated stim.csv",Version32.csv,"Version 32","List 32",pimple,,957,5.72,1966,958,BOI,-,-,"Please name all of the ways you could use this object. Keep in mind that one object can have many uses. Separate your responses with a comma.",,y,46251,,,18067,43653,,,,cleanse,1
w10061360_ja,d0yrcpm4mb,"BOI Norms",1,31,2021-02-20T23:36:16-08:00,14.276114940643,7,"updated stim.csv",Version32.csv,"Version 32","List 32",artifact,,942,4.416666667,79,943,BOI,-,-,"Please name all of the ways you could use this object. Keep in mind that one object can have many uses. Separate your responses with a comma.",,y,14065,,,3183,8868,,,,"store, display",1
w10061360_ja,d0yrcpm4mb,"BOI Norms",1,32,2021-02-20T23:36:28-08:00,12.286592960358,7,"updated stim.csv",Version32.csv,"Version 32","List 32",sprinter,,936,4.565217391,2490,937,BOI,-,-,"Please name all of the ways you could use this object. Keep in mind that one object can have many uses. Separate your responses with a comma.",,y,12044,,,5360,8342,,,,"speed walk",1
w10061360_ja,d0yrcpm4mb,"BOI Norms",1,33,2021-02-20T23:36:57-08:00,28.747620105743,7,"updated stim.csv",Version32.csv,"Version 32","List 32",bible,,931,5.826086957,208,932,BOI,-,-,"Please name all of the ways you could use this object. Keep in mind that one object can have many uses. Separate your responses with a comma.",,y,28531,,,1464,25290,,,,"study, knowledge, creator reference, at church",1
w10061360_ja,d0yrcpm4mb,"BOI Norms",1,34,2021-02-20T23:37:09-08:00,12.050310850143,7,"updated stim.csv",Version32.csv,"Version 32","List 32",seed,,943,5.185185185,2308,944,BOI,-,-,"Please name all of the ways you could use this object. Keep in mind that one object can have many uses. Separate your responses with a comma.",,y,11818,,,1482,10445,,,,"plant, eat, grow",1
w10061360_ja,d0yrcpm4mb,"BOI Norms",1,35,2021-02-20T23:37:27-08:00,18.141637086868,7,"updated stim.csv",Version32.csv,"Version 32","List 32",cloverleaf,,945,4.565217391,575,946,BOI,-,-,"Please name all of the ways you could use this object. Keep in mind that one object can have many uses. Separate your responses with a comma.",,y,16487,,,12640,14974,,,,seasoning,1
w10061360_ja,d0yrcpm4mb,"BOI Norms",1,36,2021-02-20T23:37:35-08:00,7.9591240882874,7,"updated stim.csv",Version32.csv,"Version 32","List 32",summerhouse,,953,5,2584,954,BOI,-,-,"Please name all of the ways you could use this object. Keep in mind that one object can have many uses. Separate your responses with a comma.",,y,7734,,,2278,6338,,,,"vacation, live in",1
w10061360_ja,d0yrcpm4mb,"BOI Norms",1,37,2021-02-20T23:37:55-08:00,20.18284201622,7,"updated stim.csv",Version32.csv,"Version 32","List 32",lodging,,933,4.620689655,1540,934,BOI,-,-,"Please name all of the ways you could use this object. Keep in mind that one object can have many uses. Separate your responses with a comma.",,y,19905,,,15264,18299,,,,"live in, visit",1
w10061360_ja,d0yrcpm4mb,"BOI Norms",1,38,2021-02-20T23:38:03-08:00,7.346962928772,7,"updated stim.csv",Version32.csv,"Version 32","List 32",hairnet,,940,5.458333333,1214,941,BOI,-,-,"Please name all of the ways you could use this object. Keep in mind that one object can have many uses. Separate your responses with a comma.",,y,7094,,,2208,3332,,,,cover,1
w10061360_ja,d0yrcpm4mb,"BOI Norms",1,39,2021-02-20T23:38:12-08:00,9.5438249111176,7,"updated stim.csv",Version32.csv,"Version 32","List 32",stairwell,,950,5.038461538,2502,951,BOI,-,-,"Please name all of the ways you could use this object. Keep in mind that one object can have many uses. Separate your responses with a comma.",,y,9328,,,1850,8049,,,,"climb on, pathway",1
w10061360_ja,d0yrcpm4mb,"BOI Norms",1,40,2021-02-20T23:38:25-08:00,12.679996013641,7,"updated stim.csv",Version32.csv,"Version 32","List 32",powerboat,,960,5.782608696,2056,961,BOI,-,-,"Please name all of the ways you could use this object. Keep in mind that one object can have many uses. Separate your responses with a comma.",,y,12440,,,2210,6813,,,,"travel in over sea",1
w10061360_ja,d0yrcpm4mb,"BOI Norms",1,41,2021-02-20T23:38:28-08:00,2.9477410316467,7,"updated stim.csv",Version32.csv,"Version 32","List 32",,,,,,0,Instruct,,,"You will now be asked a few questions about your experience today.",,"Instruct 4",2719,,,-1,-1,,,,,1
