Username,ID,ExperimentName,Session,Trial,Date,TimeDif,"Condition Number","Stimuli File","Order File","Condition Description","Condition Notes",Stimuli*Cue,Stimuli*Answer,Stimuli*Shuffle,"Stimuli*Stimuli Notes",Stimuli*Value,Procedure*Item,"Procedure*Trial Type","Procedure*Max Time","Procedure*Min Time",Procedure*Text,"Procedure*Procedure Notes",Procedure*Shuffle,Response*RT,Response*Response,Response*Accuracy,Response*RTfirst,Response*RTlast,Response*strictAcc,Response*lenientAcc,Response*focus,Response*JOL,Response*Focus
w10104941_mrp,ngu0k5tpan,"BOI Norms",1,1,2020-11-01T15:37:32-08:00,12.43359708786,20,"updated stim.csv",Version95.csv,"Version 95","List 95",,,,,,0,Instruct,-,10,"In this section, you will be presented with a series of objects. Please name as many possible uses for this object as you can think of by typing them in the box below each object.",,Instruct1,11853,,,-1,-1,,,,,1
w10104941_mrp,ngu0k5tpan,"BOI Norms",1,2,2020-11-01T15:37:44-08:00,12.146232843399,20,"updated stim.csv",Version95.csv,"Version 95","List 95",,,,,,0,Instruct,-,10,"Please keep in mind that a single object will have more than one use. For example, a ball can be thrown or can be bounced or even stepped on. When listing multiple uses for one object, please separate each use with a comma (i.e., thrown, bounced, stepped on)",,Instruct2,11681,,,-1,-1,,,,,1
w10104941_mrp,ngu0k5tpan,"BOI Norms",1,3,2020-11-01T15:37:48-08:00,4.2549631595612,20,"updated stim.csv",Version95.csv,"Version 95","List 95",,,,,,0,Instruct,-,-,"Before starting the experiment, you will complete a short practice sesstion. Press ENTER when you are ready to begin.",,Instruct3,3841,,,-1,-1,,,,,1
w10104941_mrp,ngu0k5tpan,"BOI Norms",1,4,2020-11-01T15:38:12-08:00,23.868386983871,20,"updated stim.csv",Version95.csv,"Version 95","List 95",shortening,,3002,4.92,2358,3003,BOI,-,-,"Please name all of the ways you could use this object. Keep in mind that one object can have many uses. Separate your responses with a comma.",,n,23381,,,4722,11698,,,,"cooking, changing length",1
w10104941_mrp,ngu0k5tpan,"BOI Norms",1,5,2020-11-01T15:38:38-08:00,26.228622913361,20,"updated stim.csv",Version95.csv,"Version 95","List 95",paperwork,,3001,5.625,1866,3002,BOI,-,-,"Please name all of the ways you could use this object. Keep in mind that one object can have many uses. Separate your responses with a comma.",,n,25763,,,3455,23710,,,,"files, records, schoolwork, registration, bills",1
w10104941_mrp,ngu0k5tpan,"BOI Norms",1,6,2020-11-01T15:39:16-08:00,37.421984910965,20,"updated stim.csv",Version95.csv,"Version 95","List 95",spaghetti,,3003,6,2461,3004,BOI,-,-,"Please name all of the ways you could use this object. Keep in mind that one object can have many uses. Separate your responses with a comma.",,n,36970,,,3062,32916,,,,"eating, cooking, buying, feeding, tasting",1
w10104941_mrp,ngu0k5tpan,"BOI Norms",1,7,2020-11-01T15:40:32-08:00,76.586457967758,20,"updated stim.csv",Version95.csv,"Version 95","List 95",saucer,,3005,5.777777778,2249,3006,BOI,-,-,"Please name all of the ways you could use this object. Keep in mind that one object can have many uses. Separate your responses with a comma.",,n,76118,,,8197,75543,,,,"holding a cup, eating off of, dropping, display, holding a snack, breaking",1
w10104941_mrp,ngu0k5tpan,"BOI Norms",1,8,2020-11-01T15:41:57-08:00,84.70182299614,20,"updated stim.csv",Version95.csv,"Version 95","List 95",grain,,3004,5.217391304,1143,3005,BOI,-,-,"Please name all of the ways you could use this object. Keep in mind that one object can have many uses. Separate your responses with a comma.",,n,84262,,,6333,57772,,,,"cooking, baking, feeding animals, seeding, growing, harvesting",1
w10104941_mrp,ngu0k5tpan,"BOI Norms",1,9,2020-11-01T15:41:59-08:00,1.8712861537933,20,"updated stim.csv",Version95.csv,"Version 95","List 95",,,,,,0,Instruct,-,-,"You have completed this section. Press ENTER to continue",,"Instruct 5",1438,,,-1,-1,,,,,1
w10104941_mrp,ngu0k5tpan,"BOI Norms",1,10,2020-11-01T15:42:07-08:00,8.5845370292664,20,"updated stim.csv",Version95.csv,"Version 95","List 95",,,,,,0,Instruct,-,-,"You will now start the full experiment. Press ENTER when you are ready to begin.",,,8165,,,-1,-1,,,,,1
w10104941_mrp,ngu0k5tpan,"BOI Norms",1,11,2020-11-01T15:42:21-08:00,14.111573934555,20,"updated stim.csv",Version95.csv,"Version 95","List 95",munitions,,2836,4.80952381,1720,2837,BOI,-,-,"Please name all of the ways you could use this object. Keep in mind that one object can have many uses. Separate your responses with a comma.",,y,13683,,,-1,-1,,,,,1
w10104941_mrp,ngu0k5tpan,"BOI Norms",1,12,2020-11-01T15:43:33-08:00,71.557449102402,20,"updated stim.csv",Version95.csv,"Version 95","List 95",jurist,,2837,4.380952381,1397,2838,BOI,-,-,"Please name all of the ways you could use this object. Keep in mind that one object can have many uses. Separate your responses with a comma.",,y,71084,,,32146,70437,,,,"determine law, give facts in court, sit in court proceedings",1
w10104941_mrp,ngu0k5tpan,"BOI Norms",1,13,2020-11-01T15:44:56-08:00,83.397979974747,20,"updated stim.csv",Version95.csv,"Version 95","List 95",pony,,2829,5.375,2030,2830,BOI,-,-,"Please name all of the ways you could use this object. Keep in mind that one object can have many uses. Separate your responses with a comma.",,y,82923,,,4369,76890,,,,"ride, feed, train, brush, play, show, exercise",1
w10104941_mrp,ngu0k5tpan,"BOI Norms",1,14,2020-11-01T15:45:37-08:00,40.357590913773,20,"updated stim.csv",Version95.csv,"Version 95","List 95",farm,,2834,5.035714286,946,2835,BOI,-,-,"Please name all of the ways you could use this object. Keep in mind that one object can have many uses. Separate your responses with a comma.",,y,39925,,,4601,38553,,,,"harvest crops, raise animals, feed families, grow crops, plant seeds, own land, train animals",1
w10104941_mrp,ngu0k5tpan,"BOI Norms",1,15,2020-11-01T15:46:33-08:00,56.705720901489,20,"updated stim.csv",Version95.csv,"Version 95","List 95",cashier,,2845,4.888888889,449,2846,BOI,-,-,"Please name all of the ways you could use this object. Keep in mind that one object can have many uses. Separate your responses with a comma.",,y,56184,,,4849,46505,,,,"receive money, give change, sell items, give receipts",1
w10104941_mrp,ngu0k5tpan,"BOI Norms",1,16,2020-11-01T15:47:22-08:00,48.132705211639,20,"updated stim.csv",Version95.csv,"Version 95","List 95",pajamas,,2839,6.222222222,1851,2840,BOI,-,-,"Please name all of the ways you could use this object. Keep in mind that one object can have many uses. Separate your responses with a comma.",,y,47638,,,1833,45994,,,,"sleep in, wash, put on, take off, throw, sit in",1
w10104941_mrp,ngu0k5tpan,"BOI Norms",1,17,2020-11-01T15:48:17-08:00,55.747706890106,20,"updated stim.csv",Version95.csv,"Version 95","List 95",cross,,2825,5,703,2826,BOI,-,-,"Please name all of the ways you could use this object. Keep in mind that one object can have many uses. Separate your responses with a comma.",,y,55260,,,16628,54384,,,,"symbol of religion, decoration, keep out sign, crucifix ",1
w10104941_mrp,ngu0k5tpan,"BOI Norms",1,18,2020-11-01T15:49:30-08:00,73.044219970703,20,"updated stim.csv",Version95.csv,"Version 95","List 95",bullfrog,,2846,4.884615385,355,2847,BOI,-,-,"Please name all of the ways you could use this object. Keep in mind that one object can have many uses. Separate your responses with a comma.",,y,72538,,,3081,63918,,,,"pet, feed, catch, lure, release, hold, eat, drop, use as bait",1
w10104941_mrp,ngu0k5tpan,"BOI Norms",1,19,2020-11-01T15:50:49-08:00,78.918179035187,20,"updated stim.csv",Version95.csv,"Version 95","List 95",farmer,,2840,5.08,947,2841,BOI,-,-,"Please name all of the ways you could use this object. Keep in mind that one object can have many uses. Separate your responses with a comma.",,y,78443,,,3020,53426,,,,"plant seeds, grow crops, harvest crops, sell crops, purchase land, drive tractor, own farm animals",1
w10104941_mrp,ngu0k5tpan,"BOI Norms",1,20,2020-11-01T15:52:02-08:00,72.398241996765,20,"updated stim.csv",Version95.csv,"Version 95","List 95",machine,,2823,5.791666667,1567,2824,BOI,-,-,"Please name all of the ways you could use this object. Keep in mind that one object can have many uses. Separate your responses with a comma.",,y,71925,,,4166,47647,,,,"build, dig, destroy, break, work, transport, carry",1
w10104941_mrp,ngu0k5tpan,"BOI Norms",1,21,2020-11-01T15:52:48-08:00,45.992984056473,20,"updated stim.csv",Version95.csv,"Version 95","List 95",glider,,2824,4.5,1114,2825,BOI,-,-,"Please name all of the ways you could use this object. Keep in mind that one object can have many uses. Separate your responses with a comma.",,y,45489,,,5080,45231,,,,"glide, fall, break, tear, carry, entertain, fly",1
w10104941_mrp,ngu0k5tpan,"BOI Norms",1,22,2020-11-01T15:53:39-08:00,51.355815887451,20,"updated stim.csv",Version95.csv,"Version 95","List 95",petal,,2841,5.75,1933,2842,BOI,-,-,"Please name all of the ways you could use this object. Keep in mind that one object can have many uses. Separate your responses with a comma.",,y,50878,,,2019,33407,,,,"grow, die, fall, tear, be plucked, be eaten, stepped on",1
w10104941_mrp,ngu0k5tpan,"BOI Norms",1,23,2020-11-01T15:54:38-08:00,58.579084157944,20,"updated stim.csv",Version95.csv,"Version 95","List 95",nightshirt,,2849,6.291666667,1773,2850,BOI,-,-,"Please name all of the ways you could use this object. Keep in mind that one object can have many uses. Separate your responses with a comma.",,y,58113,,,6659,57149,,,,"wear, wash, throw, take off, put on, wear, tear, dye, embroider",1
w10104941_mrp,ngu0k5tpan,"BOI Norms",1,24,2020-11-01T15:55:28-08:00,50.025134801865,20,"updated stim.csv",Version95.csv,"Version 95","List 95",guillotine,,2847,4.52173913,1192,2848,BOI,-,-,"Please name all of the ways you could use this object. Keep in mind that one object can have many uses. Separate your responses with a comma.",,y,49550,,,2405,30218,,,,"kill, cut, fall, break, execute",1
w10104941_mrp,ngu0k5tpan,"BOI Norms",1,25,2020-11-01T15:56:56-08:00,88.435505151749,20,"updated stim.csv",Version95.csv,"Version 95","List 95",Taco,,2826,,3005,2827,BOI,-,-,"Please name all of the ways you could use this object. Keep in mind that one object can have many uses. Separate your responses with a comma.",,y,87964,,,2453,87641,,,,"be eaten, fall apart, toppings, cooked, dropped, bitten, thrown away, frozen, fried, given away, sold, bought",1
w10104941_mrp,ngu0k5tpan,"BOI Norms",1,26,2020-11-01T15:58:12-08:00,75.74510383606,20,"updated stim.csv",Version95.csv,"Version 95","List 95",guidebook,,2822,5.791666667,1191,2823,BOI,-,-,"Please name all of the ways you could use this object. Keep in mind that one object can have many uses. Separate your responses with a comma.",,y,75270,,,1704,73604,,,,"read, written, sold, bought, torn, throw, throw away, destroyed, printed, typed, thrown",1
w10104941_mrp,ngu0k5tpan,"BOI Norms",1,27,2020-11-01T16:00:07-08:00,115.58518218994,20,"updated stim.csv",Version95.csv,"Version 95","List 95",cone,,2838,4.608695652,625,2839,BOI,-,-,"Please name all of the ways you could use this object. Keep in mind that one object can have many uses. Separate your responses with a comma.",,y,115131,,,9498,112746,,,,"hold substance, move traffic, give warning, show danger, run over, broken",1
w10104941_mrp,ngu0k5tpan,"BOI Norms",1,28,2020-11-01T16:01:24-08:00,76.625351905823,20,"updated stim.csv",Version95.csv,"Version 95","List 95",cardboard,,2833,5.739130435,431,2834,BOI,-,-,"Please name all of the ways you could use this object. Keep in mind that one object can have many uses. Separate your responses with a comma.",,y,76047,,,1762,62659,,,,"written on, burned, torn, stepped on, broken, decorated, stepped on, destroyed, drawn on, sold, bought, signs",1
w10104941_mrp,ngu0k5tpan,"BOI Norms",1,29,2020-11-01T16:02:25-08:00,61.030080080032,20,"updated stim.csv",Version95.csv,"Version 95","List 95",politician,,2831,4.409090909,2024,2832,BOI,-,-,"Please name all of the ways you could use this object. Keep in mind that one object can have many uses. Separate your responses with a comma.",,y,60435,,,6000,55717,,,,"make laws, bring justice, lie, raise taxes, lower taxes, improve infrastructure",1
w10104941_mrp,ngu0k5tpan,"BOI Norms",1,30,2020-11-01T16:04:17-08:00,111.6086230278,20,"updated stim.csv",Version95.csv,"Version 95","List 95",corkscrew,,2835,6.04,643,2836,BOI,-,-,"Please name all of the ways you could use this object. Keep in mind that one object can have many uses. Separate your responses with a comma.",,y,111143,,,4601,85378,,,,"plug bottles, decoration, pulled out, thrown",1
w10104941_mrp,ngu0k5tpan,"BOI Norms",1,31,2020-11-01T16:05:40-08:00,83.720692873001,20,"updated stim.csv",Version95.csv,"Version 95","List 95",streets,,2842,4.769230769,2565,2843,BOI,-,-,"Please name all of the ways you could use this object. Keep in mind that one object can have many uses. Separate your responses with a comma.",,y,83271,,,4130,74947,,,,"walked on, driven on, built, destroyed, connect cities, paved, traveled, painted, repaired, damaged",1
w10104941_mrp,ngu0k5tpan,"BOI Norms",1,32,2020-11-01T16:06:22-08:00,41.670485973358,20,"updated stim.csv",Version95.csv,"Version 95","List 95",pitcher,,2843,5.259259259,1980,2844,BOI,-,-,"Please name all of the ways you could use this object. Keep in mind that one object can have many uses. Separate your responses with a comma.",,y,41175,,,5472,34688,,,,"filled, emptied, pour, carry liquid, dropped, broken, lifted, decoration",1
w10104941_mrp,ngu0k5tpan,"BOI Norms",1,33,2020-11-01T16:07:08-08:00,45.548189163208,20,"updated stim.csv",Version95.csv,"Version 95","List 95",dinnerware,,2850,5.916666667,796,2851,BOI,-,-,"Please name all of the ways you could use this object. Keep in mind that one object can have many uses. Separate your responses with a comma.",,y,45062,,,2022,44719,,,,"eaten off of, thrown, built, painted, cleaned, broken, display, sold, bought",1
w10104941_mrp,ngu0k5tpan,"BOI Norms",1,34,2020-11-01T16:08:29-08:00,81.818208932877,20,"updated stim.csv",Version95.csv,"Version 95","List 95",handgun,,2830,5.761904762,1236,2831,BOI,-,-,"Please name all of the ways you could use this object. Keep in mind that one object can have many uses. Separate your responses with a comma.",,y,80940,,,2262,46909,,,,"bought, sold, given, stolen, shot, jammed, cleaned, carried, dropped",1
w10104941_mrp,ngu0k5tpan,"BOI Norms",1,35,2020-11-01T16:09:31-08:00,61.083951950073,20,"updated stim.csv",Version95.csv,"Version 95","List 95",javelin,,2844,5.833333333,1375,2845,BOI,-,-,"Please name all of the ways you could use this object. Keep in mind that one object can have many uses. Separate your responses with a comma.",,y,60599,,,3481,59715,,,,"thrown, jabbed, built, display, reenactments",1
w10104941_mrp,ngu0k5tpan,"BOI Norms",1,36,2020-11-01T16:10:19-08:00,48.645668983459,20,"updated stim.csv",Version95.csv,"Version 95","List 95",custodian,,2827,4.481481481,735,2828,BOI,-,-,"Please name all of the ways you could use this object. Keep in mind that one object can have many uses. Separate your responses with a comma.",,y,48122,,,1796,46952,,,,"clean, paid, hired, fired, lock doors",1
w10104941_mrp,ngu0k5tpan,"BOI Norms",1,37,2020-11-01T16:11:36-08:00,77.03701210022,20,"updated stim.csv",Version95.csv,"Version 95","List 95",gadget,,2832,5.52,1069,2833,BOI,-,-,"Please name all of the ways you could use this object. Keep in mind that one object can have many uses. Separate your responses with a comma.",,y,76522,,,12473,31905,,,,"invented, built, sold, bought, fixed, improved, broken",1
w10104941_mrp,ngu0k5tpan,"BOI Norms",1,38,2020-11-01T16:13:06-08:00,90.003188848495,20,"updated stim.csv",Version95.csv,"Version 95","List 95",duffel,,2821,4.380952381,864,2822,BOI,-,-,"Please name all of the ways you could use this object. Keep in mind that one object can have many uses. Separate your responses with a comma.",,y,89488,,,12675,81035,,,,"filled with clothes, carry items, carried, bought, sold, made, designed",1
w10104941_mrp,ngu0k5tpan,"BOI Norms",1,39,2020-11-01T16:13:58-08:00,51.553930044174,20,"updated stim.csv",Version95.csv,"Version 95","List 95",nutmeg,,2848,4.608695652,1792,2849,BOI,-,-,"Please name all of the ways you could use this object. Keep in mind that one object can have many uses. Separate your responses with a comma.",,y,51030,,,2352,28745,,,,"cooking, baking, spices, bought sold, planted, harvested",1
w10104941_mrp,ngu0k5tpan,"BOI Norms",1,40,2020-11-01T16:15:02-08:00,64.127200126648,20,"updated stim.csv",Version95.csv,"Version 95","List 95",lemon,,2828,6.08,1489,2829,BOI,-,-,"Please name all of the ways you could use this object. Keep in mind that one object can have many uses. Separate your responses with a comma.",,y,63600,,,3200,62626,,,,"planted, grown, harvested, eaten, sold, bought, cooking, thrown away, thrown, dropped, stepped on, squished, juiced, chopped",1
w10104941_mrp,ngu0k5tpan,"BOI Norms",1,41,2020-11-01T16:15:04-08:00,2.2349228858948,20,"updated stim.csv",Version95.csv,"Version 95","List 95",,,,,,0,Instruct,,,"You will now be asked a few questions about your experience today.",,"Instruct 4",1778,,,-1,-1,,,,,1
