Username,ID,ExperimentName,Session,Trial,Date,TimeDif,"Condition Number","Stimuli File","Order File","Condition Description","Condition Notes",Stimuli*Cue,Stimuli*Answer,Stimuli*Shuffle,"Stimuli*Stimuli Notes",Stimuli*Value,Procedure*Item,"Procedure*Trial Type","Procedure*Max Time","Procedure*Min Time",Procedure*Text,"Procedure*Procedure Notes",Procedure*Shuffle,Response*RT,Response*Response,Response*Accuracy,Response*RTfirst,Response*RTlast,Response*strictAcc,Response*lenientAcc,Response*focus,Response*JOL,Response*Focus
10077702_ela,khxw88t8ma,"BOI Norms",1,1,2020-11-18T18:52:03-08:00,11.83042883873,25,"updated stim.csv",Version50.csv,"Version 50","List 50",,,,,,0,Instruct,-,10,"In this section, you will be presented with a series of objects. Please name as many possible uses for this object as you can think of by typing them in the box below each object.",,Instruct1,11634,,,-1,-1,,,,,1
10077702_ela,khxw88t8ma,"BOI Norms",1,2,2020-11-18T18:52:15-08:00,11.571782112122,25,"updated stim.csv",Version50.csv,"Version 50","List 50",,,,,,0,Instruct,-,10,"Please keep in mind that a single object will have more than one use. For example, a ball can be thrown or can be bounced or even stepped on. When listing multiple uses for one object, please separate each use with a comma (i.e., thrown, bounced, stepped on)",,Instruct2,11303,,,-1,-1,,,,,1
10077702_ela,khxw88t8ma,"BOI Norms",1,3,2020-11-18T18:52:22-08:00,7.4748978614807,25,"updated stim.csv",Version50.csv,"Version 50","List 50",,,,,,0,Instruct,-,-,"Before starting the experiment, you will complete a short practice sesstion. Press ENTER when you are ready to begin.",,Instruct3,7186,,,-1,-1,,,,,1
10077702_ela,khxw88t8ma,"BOI Norms",1,4,2020-11-18T18:52:54-08:00,31.875076055527,25,"updated stim.csv",Version50.csv,"Version 50","List 50",grain,,3004,5.217391304,1143,3005,BOI,-,-,"Please name all of the ways you could use this object. Keep in mind that one object can have many uses. Separate your responses with a comma.",,n,31604,,,8316,10767,,,,cooking,1
10077702_ela,khxw88t8ma,"BOI Norms",1,5,2020-11-18T18:53:28-08:00,33.420454978943,25,"updated stim.csv",Version50.csv,"Version 50","List 50",saucer,,3005,5.777777778,2249,3006,BOI,-,-,"Please name all of the ways you could use this object. Keep in mind that one object can have many uses. Separate your responses with a comma.",,n,33135,,,20043,32095,,,,"throwing, catching",1
10077702_ela,khxw88t8ma,"BOI Norms",1,6,2020-11-18T18:53:53-08:00,25.491280078888,25,"updated stim.csv",Version50.csv,"Version 50","List 50",paperwork,,3001,5.625,1866,3002,BOI,-,-,"Please name all of the ways you could use this object. Keep in mind that one object can have many uses. Separate your responses with a comma.",,n,25202,,,8474,24373,,,,"organization, filing, reading",1
10077702_ela,khxw88t8ma,"BOI Norms",1,7,2020-11-18T18:54:00-08:00,6.4241559505463,25,"updated stim.csv",Version50.csv,"Version 50","List 50",spaghetti,,3003,6,2461,3004,BOI,-,-,"Please name all of the ways you could use this object. Keep in mind that one object can have many uses. Separate your responses with a comma.",,n,6132,,,1197,5283,,,,"eating, cooking",1
10077702_ela,khxw88t8ma,"BOI Norms",1,8,2020-11-18T18:54:08-08:00,8.9232370853424,25,"updated stim.csv",Version50.csv,"Version 50","List 50",shortening,,3002,4.92,2358,3003,BOI,-,-,"Please name all of the ways you could use this object. Keep in mind that one object can have many uses. Separate your responses with a comma.",,n,8654,,,6068,6875,,,,baking,1
10077702_ela,khxw88t8ma,"BOI Norms",1,9,2020-11-18T18:54:11-08:00,2.1614530086517,25,"updated stim.csv",Version50.csv,"Version 50","List 50",,,,,,0,Instruct,-,-,"You have completed this section. Press ENTER to continue",,"Instruct 5",1884,,,-1,-1,,,,,1
10077702_ela,khxw88t8ma,"BOI Norms",1,10,2020-11-18T18:54:14-08:00,3.3023159503937,25,"updated stim.csv",Version50.csv,"Version 50","List 50",,,,,,0,Instruct,-,-,"You will now start the full experiment. Press ENTER when you are ready to begin.",,,3046,,,-1,-1,,,,,1
10077702_ela,khxw88t8ma,"BOI Norms",1,11,2020-11-18T18:54:23-08:00,8.7411720752716,25,"updated stim.csv",Version50.csv,"Version 50","List 50",pudding,,1496,5.958333333,2088,1497,BOI,-,-,"Please name all of the ways you could use this object. Keep in mind that one object can have many uses. Separate your responses with a comma.",,y,8479,,,3535,6290,,,,"eating, dessert",1
10077702_ela,khxw88t8ma,"BOI Norms",1,12,2020-11-18T18:54:43-08:00,20.389147996902,25,"updated stim.csv",Version50.csv,"Version 50","List 50",celery,,1484,6.086956522,471,1485,BOI,-,-,"Please name all of the ways you could use this object. Keep in mind that one object can have many uses. Separate your responses with a comma.",,y,20077,,,2164,19056,,,,"stuffing, eating, cooking",1
10077702_ela,khxw88t8ma,"BOI Norms",1,13,2020-11-18T18:55:03-08:00,20.210985898972,25,"updated stim.csv",Version50.csv,"Version 50","List 50",councilwoman,,1488,4.583333333,664,1489,BOI,-,-,"Please name all of the ways you could use this object. Keep in mind that one object can have many uses. Separate your responses with a comma.",,y,19913,,,2879,10615,,,,"debates, representation",1
10077702_ela,khxw88t8ma,"BOI Norms",1,14,2020-11-18T18:55:23-08:00,20.219629049301,25,"updated stim.csv",Version50.csv,"Version 50","List 50",geranium,,1471,4.695652174,1099,1472,BOI,-,-,"Please name all of the ways you could use this object. Keep in mind that one object can have many uses. Separate your responses with a comma.",,y,19936,,,2504,16840,,,,"planting, herbology, botany",1
10077702_ela,khxw88t8ma,"BOI Norms",1,15,2020-11-18T18:55:44-08:00,20.105246067047,25,"updated stim.csv",Version50.csv,"Version 50","List 50",pineapple,,1477,6.304347826,1971,1478,BOI,-,-,"Please name all of the ways you could use this object. Keep in mind that one object can have many uses. Separate your responses with a comma.",,y,19834,,,2024,18818,,,,"pina colada, cough remedy, smoothie, desserts",1
10077702_ela,khxw88t8ma,"BOI Norms",1,16,2020-11-18T18:55:58-08:00,14.278548002243,25,"updated stim.csv",Version50.csv,"Version 50","List 50",nanny,,1480,4.6,1734,1481,BOI,-,-,"Please name all of the ways you could use this object. Keep in mind that one object can have many uses. Separate your responses with a comma.",,y,13994,,,2407,12820,,,,"cleaning, protect kids, watch children",1
10077702_ela,khxw88t8ma,"BOI Norms",1,17,2020-11-18T18:56:12-08:00,14.106966972351,25,"updated stim.csv",Version50.csv,"Version 50","List 50",houseboy,,1500,4.583333333,1328,1501,BOI,-,-,"Please name all of the ways you could use this object. Keep in mind that one object can have many uses. Separate your responses with a comma.",,y,13822,,,2244,8445,,,,"cleaning, mowing the lawn",1
10077702_ela,khxw88t8ma,"BOI Norms",1,18,2020-11-18T18:56:32-08:00,20.33663392067,25,"updated stim.csv",Version50.csv,"Version 50","List 50",corset,,1493,5.44,653,1494,BOI,-,-,"Please name all of the ways you could use this object. Keep in mind that one object can have many uses. Separate your responses with a comma.",,y,20056,,,2406,18739,,,,"fashion, lingerie, waist training",1
10077702_ela,khxw88t8ma,"BOI Norms",1,19,2020-11-18T18:56:44-08:00,11.537883996964,25,"updated stim.csv",Version50.csv,"Version 50","List 50",necktie,,1482,6.043478261,1742,1483,BOI,-,-,"Please name all of the ways you could use this object. Keep in mind that one object can have many uses. Separate your responses with a comma.",,y,11261,,,2593,10129,,,,"weddings, prom, formals, photography",1
10077702_ela,khxw88t8ma,"BOI Norms",1,20,2020-11-18T18:56:56-08:00,11.921751022339,25,"updated stim.csv",Version50.csv,"Version 50","List 50",orange,,1489,5.08,1814,1490,BOI,-,-,"Please name all of the ways you could use this object. Keep in mind that one object can have many uses. Separate your responses with a comma.",,y,11622,,,1945,8815,,,,"juice, peeling",1
10077702_ela,khxw88t8ma,"BOI Norms",1,21,2020-11-18T18:57:00-08:00,4.5625720024109,25,"updated stim.csv",Version50.csv,"Version 50","List 50",shallot,,1479,5.380952381,2319,1480,BOI,-,-,"Please name all of the ways you could use this object. Keep in mind that one object can have many uses. Separate your responses with a comma.",,y,4281,,,2205,3219,,,,cooking,1
10077702_ela,khxw88t8ma,"BOI Norms",1,22,2020-11-18T18:57:15-08:00,14.482217073441,25,"updated stim.csv",Version50.csv,"Version 50","List 50",cliff,,1494,4.64,559,1495,BOI,-,-,"Please name all of the ways you could use this object. Keep in mind that one object can have many uses. Separate your responses with a comma.",,y,14213,,,3095,12151,,,,"diving, hiking, climbing",1
10077702_ela,khxw88t8ma,"BOI Norms",1,23,2020-11-18T18:57:26-08:00,10.867203950882,25,"updated stim.csv",Version50.csv,"Version 50","List 50",coin,,1485,6.4,595,1486,BOI,-,-,"Please name all of the ways you could use this object. Keep in mind that one object can have many uses. Separate your responses with a comma.",,y,10584,,,1592,9559,,,,"payments, wishes, bets",1
10077702_ela,khxw88t8ma,"BOI Norms",1,24,2020-11-18T18:57:36-08:00,10.245522975922,25,"updated stim.csv",Version50.csv,"Version 50","List 50",wildcat,,1474,4.583333333,2938,1475,BOI,-,-,"Please name all of the ways you could use this object. Keep in mind that one object can have many uses. Separate your responses with a comma.",,y,9974,,,7650,8643,,,,hunting,1
10077702_ela,khxw88t8ma,"BOI Norms",1,25,2020-11-18T18:57:58-08:00,22.099703073502,25,"updated stim.csv",Version50.csv,"Version 50","List 50",pullover,,1476,4.56,2093,1477,BOI,-,-,"Please name all of the ways you could use this object. Keep in mind that one object can have many uses. Separate your responses with a comma.",,y,21695,,,1829,19715,,,,"warmth, fashion, comfortability",1
10077702_ela,khxw88t8ma,"BOI Norms",1,26,2020-11-18T18:58:06-08:00,8.3132088184357,25,"updated stim.csv",Version50.csv,"Version 50","List 50",shavings,,1498,4.6,2325,1499,BOI,-,-,"Please name all of the ways you could use this object. Keep in mind that one object can have many uses. Separate your responses with a comma.",,y,8020,,,2959,5329,,,,sawdust,1
10077702_ela,khxw88t8ma,"BOI Norms",1,27,2020-11-18T18:58:13-08:00,6.6634771823883,25,"updated stim.csv",Version50.csv,"Version 50","List 50",cent,,1473,5.12,477,1474,BOI,-,-,"Please name all of the ways you could use this object. Keep in mind that one object can have many uses. Separate your responses with a comma.",,y,6392,,,2765,5355,,,,"payment, tip",1
10077702_ela,khxw88t8ma,"BOI Norms",1,28,2020-11-18T18:58:20-08:00,7.0190458297729,25,"updated stim.csv",Version50.csv,"Version 50","List 50",saddle,,1499,4.954545455,2212,1500,BOI,-,-,"Please name all of the ways you could use this object. Keep in mind that one object can have many uses. Separate your responses with a comma.",,y,6744,,,1439,4926,,,,"horseback riding",1
10077702_ela,khxw88t8ma,"BOI Norms",1,29,2020-11-18T18:58:33-08:00,12.600299119949,25,"updated stim.csv",Version50.csv,"Version 50","List 50",potato,,1483,5.6,2047,1484,BOI,-,-,"Please name all of the ways you could use this object. Keep in mind that one object can have many uses. Separate your responses with a comma.",,y,12325,,,1571,11534,,,,"cooking, frying, baking, eating",1
10077702_ela,khxw88t8ma,"BOI Norms",1,30,2020-11-18T18:58:43-08:00,9.9508080482483,25,"updated stim.csv",Version50.csv,"Version 50","List 50",Ladder,,1497,6.117567568,1447,1498,BOI,-,-,"Please name all of the ways you could use this object. Keep in mind that one object can have many uses. Separate your responses with a comma.",,y,9668,,,1621,8784,,,,"climbing, reaching, construction",1
10077702_ela,khxw88t8ma,"BOI Norms",1,31,2020-11-18T18:58:53-08:00,10.423141002655,25,"updated stim.csv",Version50.csv,"Version 50","List 50",drywall,,1481,5.208333333,858,1482,BOI,-,-,"Please name all of the ways you could use this object. Keep in mind that one object can have many uses. Separate your responses with a comma.",,y,10140,,,3691,9309,,,,"construction, repair, building",1
10077702_ela,khxw88t8ma,"BOI Norms",1,32,2020-11-18T18:59:04-08:00,11.249393939972,25,"updated stim.csv",Version50.csv,"Version 50","List 50",poultry,,1487,4.826086957,2053,1488,BOI,-,-,"Please name all of the ways you could use this object. Keep in mind that one object can have many uses. Separate your responses with a comma.",,y,10946,,,2563,9578,,,,"cooking, eating",1
10077702_ela,khxw88t8ma,"BOI Norms",1,33,2020-11-18T18:59:15-08:00,10.910778045654,25,"updated stim.csv",Version50.csv,"Version 50","List 50",muzzle,,1490,4.391304348,1730,1491,BOI,-,-,"Please name all of the ways you could use this object. Keep in mind that one object can have many uses. Separate your responses with a comma.",,y,10592,,,1959,4368,,,,restraint,1
10077702_ela,khxw88t8ma,"BOI Norms",1,34,2020-11-18T18:59:21-08:00,5.8464648723602,25,"updated stim.csv",Version50.csv,"Version 50","List 50",forehead,,1475,5.777777778,1045,1476,BOI,-,-,"Please name all of the ways you could use this object. Keep in mind that one object can have many uses. Separate your responses with a comma.",,y,5563,,,-1,-1,,,,,1
10077702_ela,khxw88t8ma,"BOI Norms",1,35,2020-11-18T18:59:28-08:00,6.6314511299133,25,"updated stim.csv",Version50.csv,"Version 50","List 50",sombrero,,1492,5.518518519,2449,1493,BOI,-,-,"Please name all of the ways you could use this object. Keep in mind that one object can have many uses. Separate your responses with a comma.",,y,6349,,,2074,5442,,,,"hat, decoration",1
10077702_ela,khxw88t8ma,"BOI Norms",1,36,2020-11-18T18:59:36-08:00,7.976863861084,25,"updated stim.csv",Version50.csv,"Version 50","List 50",merchant,,1478,4.5,1648,1479,BOI,-,-,"Please name all of the ways you could use this object. Keep in mind that one object can have many uses. Separate your responses with a comma.",,y,7685,,,2385,6259,,,,"seller, persuasion",1
10077702_ela,khxw88t8ma,"BOI Norms",1,37,2020-11-18T18:59:55-08:00,19.892515182495,25,"updated stim.csv",Version50.csv,"Version 50","List 50",metal,,1491,5.130434783,1650,1492,BOI,-,-,"Please name all of the ways you could use this object. Keep in mind that one object can have many uses. Separate your responses with a comma.",,y,19438,,,2025,18632,,,,"welding, building, construction, jewelry",1
10077702_ela,khxw88t8ma,"BOI Norms",1,38,2020-11-18T19:00:12-08:00,16.377613782883,25,"updated stim.csv",Version50.csv,"Version 50","List 50",needle,,1495,5.739130435,1745,1496,BOI,-,-,"Please name all of the ways you could use this object. Keep in mind that one object can have many uses. Separate your responses with a comma.",,y,16103,,,3477,14893,,,,"blood drawing, IV, medication",1
10077702_ela,khxw88t8ma,"BOI Norms",1,39,2020-11-18T19:00:19-08:00,7.2237160205841,25,"updated stim.csv",Version50.csv,"Version 50","List 50",grandson,,1486,5.785714286,1153,1487,BOI,-,-,"Please name all of the ways you could use this object. Keep in mind that one object can have many uses. Separate your responses with a comma.",,y,6913,,,-1,-1,,,,,1
10077702_ela,khxw88t8ma,"BOI Norms",1,40,2020-11-18T19:00:26-08:00,7.1990990638733,25,"updated stim.csv",Version50.csv,"Version 50","List 50",joystick,,1472,6.12,1392,1473,BOI,-,-,"Please name all of the ways you could use this object. Keep in mind that one object can have many uses. Separate your responses with a comma.",,y,6930,,,4449,6122,,,,"video games",1
10077702_ela,khxw88t8ma,"BOI Norms",1,41,2020-11-18T19:00:29-08:00,2.5857839584351,25,"updated stim.csv",Version50.csv,"Version 50","List 50",,,,,,0,Instruct,,,"You will now be asked a few questions about your experience today.",,"Instruct 4",2300,,,-1,-1,,,,,1
