Username,ID,ExperimentName,Session,Trial,Date,TimeDif,"Condition Number","Stimuli File","Order File","Condition Description","Condition Notes",Stimuli*Cue,Stimuli*Answer,Stimuli*Shuffle,"Stimuli*Stimuli Notes",Stimuli*Value,Procedure*Item,"Procedure*Trial Type","Procedure*Max Time","Procedure*Min Time",Procedure*Text,"Procedure*Procedure Notes",Procedure*Shuffle,Response*RT,Response*Response,Response*Accuracy,Response*RTfirst,Response*RTlast,Response*strictAcc,Response*lenientAcc,Response*focus,Response*JOL,Response*Focus
w963745_tjm,wgy8dq6guw,"BOI Norms",1,1,2020-11-20T18:12:07-08:00,11.425861120224,24,"updated stim.csv",Version74.csv,"Version 74","List 74",,,,,,0,Instruct,-,10,"In this section, you will be presented with a series of objects. Please name as many possible uses for this object as you can think of by typing them in the box below each object.",,Instruct1,11273,,,-1,-1,,,,,1
w963745_tjm,wgy8dq6guw,"BOI Norms",1,2,2020-11-20T18:12:19-08:00,11.496384859085,24,"updated stim.csv",Version74.csv,"Version 74","List 74",,,,,,0,Instruct,-,10,"Please keep in mind that a single object will have more than one use. For example, a ball can be thrown or can be bounced or even stepped on. When listing multiple uses for one object, please separate each use with a comma (i.e., thrown, bounced, stepped on)",,Instruct2,11325,,,-1,-1,,,,,0.804
w963745_tjm,wgy8dq6guw,"BOI Norms",1,3,2020-11-20T18:12:23-08:00,3.6061871051788,24,"updated stim.csv",Version74.csv,"Version 74","List 74",,,,,,0,Instruct,-,-,"Before starting the experiment, you will complete a short practice sesstion. Press ENTER when you are ready to begin.",,Instruct3,3440,,,-1,-1,,,,,1
w963745_tjm,wgy8dq6guw,"BOI Norms",1,4,2020-11-20T18:12:26-08:00,3.6003429889679,24,"updated stim.csv",Version74.csv,"Version 74","List 74",saucer,,3005,5.777777778,2249,3006,BOI,-,-,"Please name all of the ways you could use this object. Keep in mind that one object can have many uses. Separate your responses with a comma.",,n,3419,,,2019,2612,,,,"plate ",1
w963745_tjm,wgy8dq6guw,"BOI Norms",1,5,2020-11-20T18:12:38-08:00,12.350992918015,24,"updated stim.csv",Version74.csv,"Version 74","List 74",spaghetti,,3003,6,2461,3004,BOI,-,-,"Please name all of the ways you could use this object. Keep in mind that one object can have many uses. Separate your responses with a comma.",,n,12184,,,2497,9033,,,,"cook, eat",1
w963745_tjm,wgy8dq6guw,"BOI Norms",1,6,2020-11-20T18:12:49-08:00,10.725335121155,24,"updated stim.csv",Version74.csv,"Version 74","List 74",shortening,,3002,4.92,2358,3003,BOI,-,-,"Please name all of the ways you could use this object. Keep in mind that one object can have many uses. Separate your responses with a comma.",,n,10541,,,1898,9529,,,,"cook, eat, make bread and cakes",1
w963745_tjm,wgy8dq6guw,"BOI Norms",1,7,2020-11-20T18:13:11-08:00,22.077643871307,24,"updated stim.csv",Version74.csv,"Version 74","List 74",grain,,3004,5.217391304,1143,3005,BOI,-,-,"Please name all of the ways you could use this object. Keep in mind that one object can have many uses. Separate your responses with a comma.",,n,21884,,,1484,21654,,,,"flour, cake, rolls, corn meal, bagels ",1
w963745_tjm,wgy8dq6guw,"BOI Norms",1,8,2020-11-20T18:13:27-08:00,15.613979101181,24,"updated stim.csv",Version74.csv,"Version 74","List 74",paperwork,,3001,5.625,1866,3002,BOI,-,-,"Please name all of the ways you could use this object. Keep in mind that one object can have many uses. Separate your responses with a comma.",,n,15430,,,1686,15151,,,,"homework, college, school, high school, education ",1
w963745_tjm,wgy8dq6guw,"BOI Norms",1,9,2020-11-20T18:13:28-08:00,0.96172690391541,24,"updated stim.csv",Version74.csv,"Version 74","List 74",,,,,,0,Instruct,-,-,"You have completed this section. Press ENTER to continue",,"Instruct 5",796,,,-1,-1,,,,,1
w963745_tjm,wgy8dq6guw,"BOI Norms",1,10,2020-11-20T18:13:29-08:00,1.2407751083374,24,"updated stim.csv",Version74.csv,"Version 74","List 74",,,,,,0,Instruct,-,-,"You will now start the full experiment. Press ENTER when you are ready to begin.",,,1086,,,-1,-1,,,,,1
w963745_tjm,wgy8dq6guw,"BOI Norms",1,11,2020-11-20T18:13:48-08:00,19.26237487793,24,"updated stim.csv",Version74.csv,"Version 74","List 74",salamander,,2205,4.714285714,2219,2206,BOI,-,-,"Please name all of the ways you could use this object. Keep in mind that one object can have many uses. Separate your responses with a comma.",,y,19044,,,1809,15588,,,,"animal, pet, breed",1
w963745_tjm,wgy8dq6guw,"BOI Norms",1,12,2020-11-20T18:14:06-08:00,17.214390039444,24,"updated stim.csv",Version74.csv,"Version 74","List 74",engineer,,2202,5.379310345,909,2203,BOI,-,-,"Please name all of the ways you could use this object. Keep in mind that one object can have many uses. Separate your responses with a comma.",,y,16624,,,1867,15611,,,,"car, truck, airplane, train, transportation ",1
w963745_tjm,wgy8dq6guw,"BOI Norms",1,13,2020-11-20T18:14:27-08:00,21.919219017029,24,"updated stim.csv",Version74.csv,"Version 74","List 74",ruler,,2216,5.25,2205,2217,BOI,-,-,"Please name all of the ways you could use this object. Keep in mind that one object can have many uses. Separate your responses with a comma.",,y,21649,,,1223,21428,,,,"measure, homework, remodeling, baking, cooking ",1
w963745_tjm,wgy8dq6guw,"BOI Norms",1,14,2020-11-20T18:14:46-08:00,18.625298976898,24,"updated stim.csv",Version74.csv,"Version 74","List 74",tablecloth,,2212,5.347826087,2617,2213,BOI,-,-,"Please name all of the ways you could use this object. Keep in mind that one object can have many uses. Separate your responses with a comma.",,y,18424,,,1648,18199,,,,"cover stand or table ",1
w963745_tjm,wgy8dq6guw,"BOI Norms",1,15,2020-11-20T18:15:10-08:00,23.505119085312,24,"updated stim.csv",Version74.csv,"Version 74","List 74",rowboat,,2193,5.375,2199,2194,BOI,-,-,"Please name all of the ways you could use this object. Keep in mind that one object can have many uses. Separate your responses with a comma.",,y,23330,,,4145,22791,,,,"water, ocean, bog, swamp, sea, island, bayou",1
w963745_tjm,wgy8dq6guw,"BOI Norms",1,16,2020-11-20T18:15:32-08:00,22.461584091187,24,"updated stim.csv",Version74.csv,"Version 74","List 74",cheek,,2192,5.481481481,503,2193,BOI,-,-,"Please name all of the ways you could use this object. Keep in mind that one object can have many uses. Separate your responses with a comma.",,y,22273,,,4509,22072,,,,"kiss, pitch, slap, punch, smile, sad ",1
w963745_tjm,wgy8dq6guw,"BOI Norms",1,17,2020-11-20T18:15:52-08:00,19.747233867645,24,"updated stim.csv",Version74.csv,"Version 74","List 74",shank,,2204,4.565217391,2322,2205,BOI,-,-,"Please name all of the ways you could use this object. Keep in mind that one object can have many uses. Separate your responses with a comma.",,y,19555,,,2271,19316,,,,"cut, stab, dig ",1
w963745_tjm,wgy8dq6guw,"BOI Norms",1,18,2020-11-20T18:16:11-08:00,19.296061992645,24,"updated stim.csv",Version74.csv,"Version 74","List 74",lunchroom,,2200,4.565217391,1560,2201,BOI,-,-,"Please name all of the ways you could use this object. Keep in mind that one object can have many uses. Separate your responses with a comma.",,y,19117,,,1457,11084,,,,"eat, food, sitting",1
w963745_tjm,wgy8dq6guw,"BOI Norms",1,19,2020-11-20T18:16:59-08:00,48.223972082138,24,"updated stim.csv",Version74.csv,"Version 74","List 74",percolator,,2194,5.1,1925,2195,BOI,-,-,"Please name all of the ways you could use this object. Keep in mind that one object can have many uses. Separate your responses with a comma.",,y,37470,,,2997,36099,,,,"physics, chemistry, science, calculus, algebra, measure ",1
w963745_tjm,wgy8dq6guw,"BOI Norms",1,20,2020-11-20T18:17:16-08:00,16.155654907227,24,"updated stim.csv",Version74.csv,"Version 74","List 74",coaster,,2203,5.333333333,580,2204,BOI,-,-,"Please name all of the ways you could use this object. Keep in mind that one object can have many uses. Separate your responses with a comma.",,y,15963,,,4210,14346,,,,"sit glass on",1
w963745_tjm,wgy8dq6guw,"BOI Norms",1,21,2020-11-20T18:17:57-08:00,41.179039955139,24,"updated stim.csv",Version74.csv,"Version 74","List 74",abacus,,2196,4.666666667,1,2197,BOI,-,-,"Please name all of the ways you could use this object. Keep in mind that one object can have many uses. Separate your responses with a comma.",,y,41012,,,14640,40710,,,,"counting, math, homework, accounting, calculus, business, physics, chemistry ",1
w963745_tjm,wgy8dq6guw,"BOI Norms",1,22,2020-11-20T18:18:23-08:00,26.703910112381,24,"updated stim.csv",Version74.csv,"Version 74","List 74",eyewash,,2219,5.4,938,2220,BOI,-,-,"Please name all of the ways you could use this object. Keep in mind that one object can have many uses. Separate your responses with a comma.",,y,26533,,,3437,18825,,,,"eyes, lashes, cleaning, protecting, ",1
w963745_tjm,wgy8dq6guw,"BOI Norms",1,23,2020-11-20T18:18:32-08:00,8.4383828639984,24,"updated stim.csv",Version74.csv,"Version 74","List 74",props,,2220,5.260869565,2077,2221,BOI,-,-,"Please name all of the ways you could use this object. Keep in mind that one object can have many uses. Separate your responses with a comma.",,y,8256,,,3252,7736,,,,"jokes, support",1
w963745_tjm,wgy8dq6guw,"BOI Norms",1,24,2020-11-20T18:18:41-08:00,9.2753391265869,24,"updated stim.csv",Version74.csv,"Version 74","List 74",flaxseed,,2215,5.037037037,1005,2216,BOI,-,-,"Please name all of the ways you could use this object. Keep in mind that one object can have many uses. Separate your responses with a comma.",,y,9092,,,2124,8490,,,,"hair, cooking, baking, oiling",1
w963745_tjm,wgy8dq6guw,"BOI Norms",1,25,2020-11-20T18:18:57-08:00,16.178916931152,24,"updated stim.csv",Version74.csv,"Version 74","List 74",stepbrother,,2214,4.88,2523,2215,BOI,-,-,"Please name all of the ways you could use this object. Keep in mind that one object can have many uses. Separate your responses with a comma.",,y,16008,,,3257,15785,,,,"homework, games, football, basketball, soccer, mentor ",1
w963745_tjm,wgy8dq6guw,"BOI Norms",1,26,2020-11-20T18:19:13-08:00,15.749315977097,24,"updated stim.csv",Version74.csv,"Version 74","List 74",electrician,,2210,4.625,897,2211,BOI,-,-,"Please name all of the ways you could use this object. Keep in mind that one object can have many uses. Separate your responses with a comma.",,y,15555,,,1453,15123,,,,"lights, safety ",1
w963745_tjm,wgy8dq6guw,"BOI Norms",1,27,2020-11-20T18:19:34-08:00,21.385730028152,24,"updated stim.csv",Version74.csv,"Version 74","List 74",watchband,,2206,5.923076923,2906,2207,BOI,-,-,"Please name all of the ways you could use this object. Keep in mind that one object can have many uses. Separate your responses with a comma.",,y,21164,,,1417,18555,,,,"apple watch, wrist, time telling, phone call receiving ",1
w963745_tjm,wgy8dq6guw,"BOI Norms",1,28,2020-11-20T18:19:51-08:00,16.906799077988,24,"updated stim.csv",Version74.csv,"Version 74","List 74",medal,,2198,5.608695652,1634,2199,BOI,-,-,"Please name all of the ways you could use this object. Keep in mind that one object can have many uses. Separate your responses with a comma.",,y,16681,,,3152,15987,,,,"award, success, gold, accomplishment ",1
w963745_tjm,wgy8dq6guw,"BOI Norms",1,29,2020-11-20T18:20:03-08:00,11.689401865005,24,"updated stim.csv",Version74.csv,"Version 74","List 74",underclothing,,2199,6.36,2820,2200,BOI,-,-,"Please name all of the ways you could use this object. Keep in mind that one object can have many uses. Separate your responses with a comma.",,y,11428,,,1667,11274,,,,"underwear, draws, sleep wear, clothing ",1
w963745_tjm,wgy8dq6guw,"BOI Norms",1,30,2020-11-20T18:20:29-08:00,25.900382041931,24,"updated stim.csv",Version74.csv,"Version 74","List 74",tangerine,,2213,5.772727273,2630,2214,BOI,-,-,"Please name all of the ways you could use this object. Keep in mind that one object can have many uses. Separate your responses with a comma.",,y,25356,,,1232,24852,,,,"eat, orange, peel, sweet, cirus, cook ",1
w963745_tjm,wgy8dq6guw,"BOI Norms",1,31,2020-11-20T18:20:37-08:00,8.3282680511475,24,"updated stim.csv",Version74.csv,"Version 74","List 74",stem,,2195,4.666666667,2519,2196,BOI,-,-,"Please name all of the ways you could use this object. Keep in mind that one object can have many uses. Separate your responses with a comma.",,y,8147,,,4381,6919,,,,"plant, cook",1
w963745_tjm,wgy8dq6guw,"BOI Norms",1,32,2020-11-20T18:21:00-08:00,22.736620903015,24,"updated stim.csv",Version74.csv,"Version 74","List 74",worksheet,,2197,4.64,2973,2198,BOI,-,-,"Please name all of the ways you could use this object. Keep in mind that one object can have many uses. Separate your responses with a comma.",,y,22563,,,4833,21690,,,,"work, homework, excel, numbers table ",1
w963745_tjm,wgy8dq6guw,"BOI Norms",1,33,2020-11-20T18:21:03-08:00,2.9218389987946,24,"updated stim.csv",Version74.csv,"Version 74","List 74",duster,,2191,5.32,870,2192,BOI,-,-,"Please name all of the ways you could use this object. Keep in mind that one object can have many uses. Separate your responses with a comma.",,y,2754,,,1823,2624,,,,"cleaning ",1
w963745_tjm,wgy8dq6guw,"BOI Norms",1,34,2020-11-20T18:21:14-08:00,11.585638999939,24,"updated stim.csv",Version74.csv,"Version 74","List 74",stage,,2208,4.875,2497,2209,BOI,-,-,"Please name all of the ways you could use this object. Keep in mind that one object can have many uses. Separate your responses with a comma.",,y,11390,,,2540,7607,,,,"performing, singing, acting ",1
w963745_tjm,wgy8dq6guw,"BOI Norms",1,35,2020-11-20T18:21:26-08:00,11.445802211761,24,"updated stim.csv",Version74.csv,"Version 74","List 74",lunch,,2211,6.043478261,1559,2212,BOI,-,-,"Please name all of the ways you could use this object. Keep in mind that one object can have many uses. Separate your responses with a comma.",,y,11247,,,1005,5590,,,,"food, eat, snack",1
w963745_tjm,wgy8dq6guw,"BOI Norms",1,36,2020-11-20T18:21:38-08:00,12.226467847824,24,"updated stim.csv",Version74.csv,"Version 74","List 74",thumbtack,,2209,5.956521739,2690,2210,BOI,-,-,"Please name all of the ways you could use this object. Keep in mind that one object can have many uses. Separate your responses with a comma.",,y,11950,,,1998,11799,,,,"nail, hang picture, wall, frames ",1
w963745_tjm,wgy8dq6guw,"BOI Norms",1,37,2020-11-20T18:21:43-08:00,5.1591579914093,24,"updated stim.csv",Version74.csv,"Version 74","List 74",gasket,,2207,4.846153846,1084,2208,BOI,-,-,"Please name all of the ways you could use this object. Keep in mind that one object can have many uses. Separate your responses with a comma.",,y,4899,,,2377,4701,,,,"gas, exhaust ",1
w963745_tjm,wgy8dq6guw,"BOI Norms",1,38,2020-11-20T18:22:02-08:00,18.990360021591,24,"updated stim.csv",Version74.csv,"Version 74","List 74",trench,,2217,4.285714286,2773,2218,BOI,-,-,"Please name all of the ways you could use this object. Keep in mind that one object can have many uses. Separate your responses with a comma.",,y,18823,,,4206,18614,,,,"ditch, streets ",1
w963745_tjm,wgy8dq6guw,"BOI Norms",1,39,2020-11-20T18:22:12-08:00,9.873626947403,24,"updated stim.csv",Version74.csv,"Version 74","List 74",teacher,,2201,5.416666667,2643,2202,BOI,-,-,"Please name all of the ways you could use this object. Keep in mind that one object can have many uses. Separate your responses with a comma.",,y,9688,,,1694,9508,,,,"professor, homework, college, stressful ",1
w963745_tjm,wgy8dq6guw,"BOI Norms",1,40,2020-11-20T18:22:28-08:00,15.555462121964,24,"updated stim.csv",Version74.csv,"Version 74","List 74",parchment,,2218,4.681818182,1874,2219,BOI,-,-,"Please name all of the ways you could use this object. Keep in mind that one object can have many uses. Separate your responses with a comma.",,y,15368,,,1953,15170,,,,"jail, state prison, cooking, baking ",1
w963745_tjm,wgy8dq6guw,"BOI Norms",1,41,2020-11-20T18:22:29-08:00,0.98584389686584,24,"updated stim.csv",Version74.csv,"Version 74","List 74",,,,,,0,Instruct,,,"You will now be asked a few questions about your experience today.",,"Instruct 4",751,,,-1,-1,,,,,1
