Username,ID,ExperimentName,Session,Trial,Date,TimeDif,"Condition Number","Stimuli File","Order File","Condition Description","Condition Notes",Stimuli*Cue,Stimuli*Answer,Stimuli*Shuffle,"Stimuli*Stimuli Notes",Stimuli*Value,Procedure*Item,"Procedure*Trial Type","Procedure*Max Time","Procedure*Min Time",Procedure*Text,"Procedure*Procedure Notes",Procedure*Shuffle,Response*RT,Response*Response,Response*Accuracy,Response*RTfirst,Response*RTlast,Response*strictAcc,Response*lenientAcc,Response*focus,Response*JOL,Response*Focus
w10050492_ang,bmxe2shdxu,"BOI Norms",1,1,2021-09-20T16:52:33-07:00,11.350420951843,22,"updated stim.csv",Version97.csv,"Version 97","List 97",,,,,,0,Instruct,-,10,"In this section, you will be presented with a series of objects. Please name as many possible uses for this object as you can think of by typing them in the box below each object.",,Instruct1,11038,,,-1,-1,,,,,1
w10050492_ang,bmxe2shdxu,"BOI Norms",1,2,2021-09-20T16:52:49-07:00,15.440284013748,22,"updated stim.csv",Version97.csv,"Version 97","List 97",,,,,,0,Instruct,-,10,"Please keep in mind that a single object will have more than one use. For example, a ball can be thrown or can be bounced or even stepped on. When listing multiple uses for one object, please separate each use with a comma (i.e., thrown, bounced, stepped on)",,Instruct2,15095,,,-1,-1,,,,,1
w10050492_ang,bmxe2shdxu,"BOI Norms",1,3,2021-09-20T16:52:57-07:00,7.9781200885773,22,"updated stim.csv",Version97.csv,"Version 97","List 97",,,,,,0,Instruct,-,-,"Before starting the experiment, you will complete a short practice sesstion. Press ENTER when you are ready to begin.",,Instruct3,7610,,,-1,-1,,,,,1
w10050492_ang,bmxe2shdxu,"BOI Norms",1,4,2021-09-20T16:53:34-07:00,36.807687044144,22,"updated stim.csv",Version97.csv,"Version 97","List 97",paperwork,,3001,5.625,1866,3002,BOI,-,-,"Please name all of the ways you could use this object. Keep in mind that one object can have many uses. Separate your responses with a comma.",,n,34824,,,2912,33575,,,,"write, read, shred, organize, prepare, type, submit, scan, copy",1
w10050492_ang,bmxe2shdxu,"BOI Norms",1,5,2021-09-20T16:54:00-07:00,26.17947602272,22,"updated stim.csv",Version97.csv,"Version 97","List 97",shortening,,3002,4.92,2358,3003,BOI,-,-,"Please name all of the ways you could use this object. Keep in mind that one object can have many uses. Separate your responses with a comma.",,n,25811,,,11071,24175,,,,"cook, bake, grease",1
w10050492_ang,bmxe2shdxu,"BOI Norms",1,6,2021-09-20T16:54:33-07:00,33.384415864944,22,"updated stim.csv",Version97.csv,"Version 97","List 97",grain,,3004,5.217391304,1143,3005,BOI,-,-,"Please name all of the ways you could use this object. Keep in mind that one object can have many uses. Separate your responses with a comma.",,n,32967,,,3622,31107,,,,"cook, season, harvest, gather, eat",1
w10050492_ang,bmxe2shdxu,"BOI Norms",1,7,2021-09-20T16:55:04-07:00,31.044547080994,22,"updated stim.csv",Version97.csv,"Version 97","List 97",spaghetti,,3003,6,2461,3004,BOI,-,-,"Please name all of the ways you could use this object. Keep in mind that one object can have many uses. Separate your responses with a comma.",,n,30656,,,1665,28767,,,,"cook, eat, spill, burn, throw, prepare, give out",1
w10050492_ang,bmxe2shdxu,"BOI Norms",1,8,2021-09-20T16:55:40-07:00,35.319876909256,22,"updated stim.csv",Version97.csv,"Version 97","List 97",saucer,,3005,5.777777778,2249,3006,BOI,-,-,"Please name all of the ways you could use this object. Keep in mind that one object can have many uses. Separate your responses with a comma.",,n,34975,,,3789,32942,,,,"put cup on, throw, use, break, drop, spill",1
w10050492_ang,bmxe2shdxu,"BOI Norms",1,9,2021-09-20T16:55:42-07:00,2.2049269676208,22,"updated stim.csv",Version97.csv,"Version 97","List 97",,,,,,0,Instruct,-,-,"You have completed this section. Press ENTER to continue",,"Instruct 5",1901,,,-1,-1,,,,,1
w10050492_ang,bmxe2shdxu,"BOI Norms",1,10,2021-09-20T16:55:44-07:00,2.6973011493683,22,"updated stim.csv",Version97.csv,"Version 97","List 97",,,,,,0,Instruct,-,-,"You will now start the full experiment. Press ENTER when you are ready to begin.",,,2262,,,-1,-1,,,,,1
w10050492_ang,bmxe2shdxu,"BOI Norms",1,11,2021-09-20T16:56:16-07:00,31.642341852188,22,"updated stim.csv",Version97.csv,"Version 97","List 97",walrus,,2910,4.875,2891,2911,BOI,-,-,"Please name all of the ways you could use this object. Keep in mind that one object can have many uses. Separate your responses with a comma.",,y,31230,,,3047,29369,,,,"pet, watch, talk to, exhibit",1
w10050492_ang,bmxe2shdxu,"BOI Norms",1,12,2021-09-20T16:57:03-07:00,47.113228082657,22,"updated stim.csv",Version97.csv,"Version 97","List 97",hug,,2909,4.652173913,1335,2910,BOI,-,-,"Please name all of the ways you could use this object. Keep in mind that one object can have many uses. Separate your responses with a comma.",,y,46742,,,8050,45293,,,,"reciprocate, deny, give, initiate, offer, show gratitude",1
w10050492_ang,bmxe2shdxu,"BOI Norms",1,13,2021-09-20T16:57:42-07:00,38.297915935516,22,"updated stim.csv",Version97.csv,"Version 97","List 97",truck,,2882,6.041666667,2785,2883,BOI,-,-,"Please name all of the ways you could use this object. Keep in mind that one object can have many uses. Separate your responses with a comma.",,y,37884,,,1506,35994,,,,"drive, wreck, buy, sell, steal, rent, tow",1
w10050492_ang,bmxe2shdxu,"BOI Norms",1,14,2021-09-20T16:58:29-07:00,47.311323165894,22,"updated stim.csv",Version97.csv,"Version 97","List 97",peony,,2886,4.333333333,1919,2887,BOI,-,-,"Please name all of the ways you could use this object. Keep in mind that one object can have many uses. Separate your responses with a comma.",,y,46961,,,18395,45599,,,,"smell, pick, plant, decorate with, hang, water, sell, buy, look at, touch",1
w10050492_ang,bmxe2shdxu,"BOI Norms",1,15,2021-09-20T16:58:55-07:00,26.48916888237,22,"updated stim.csv",Version97.csv,"Version 97","List 97",keg,,2881,4.962962963,1404,2882,BOI,-,-,"Please name all of the ways you could use this object. Keep in mind that one object can have many uses. Separate your responses with a comma.",,y,26145,,,14663,24569,,,,"hold, buy, sell, drop, spill",1
w10050492_ang,bmxe2shdxu,"BOI Norms",1,16,2021-09-20T16:59:23-07:00,27.676899909973,22,"updated stim.csv",Version97.csv,"Version 97","List 97",mathematician,,2893,4.272727273,1624,2894,BOI,-,-,"Please name all of the ways you could use this object. Keep in mind that one object can have many uses. Separate your responses with a comma.",,y,27206,,,3460,25810,,,,"hire, fire, become, study to be, train, train under, learn from, talk to",1
w10050492_ang,bmxe2shdxu,"BOI Norms",1,17,2021-09-20T16:59:53-07:00,30.314429998398,22,"updated stim.csv",Version97.csv,"Version 97","List 97",toga,,2903,4.52173913,2718,2904,BOI,-,-,"Please name all of the ways you could use this object. Keep in mind that one object can have many uses. Separate your responses with a comma.",,y,29969,,,15490,28416,,,,"wear, sell, buy, display, touch, smell",1
w10050492_ang,bmxe2shdxu,"BOI Norms",1,18,2021-09-20T17:00:20-07:00,26.722123146057,22,"updated stim.csv",Version97.csv,"Version 97","List 97",grenade,,2902,5.2,1173,2903,BOI,-,-,"Please name all of the ways you could use this object. Keep in mind that one object can have many uses. Separate your responses with a comma.",,y,26372,,,1840,24286,,,,"throw, drop, make, set off",1
w10050492_ang,bmxe2shdxu,"BOI Norms",1,19,2021-09-20T17:00:50-07:00,30.312517881393,22,"updated stim.csv",Version97.csv,"Version 97","List 97",manure,,2898,4.708333333,1598,2899,BOI,-,-,"Please name all of the ways you could use this object. Keep in mind that one object can have many uses. Separate your responses with a comma.",,y,29936,,,2257,12772,,,,"clean, smell, fertilize",1
w10050492_ang,bmxe2shdxu,"BOI Norms",1,20,2021-09-20T17:01:19-07:00,28.568386077881,22,"updated stim.csv",Version97.csv,"Version 97","List 97",lesion,,2889,4.481481481,1494,2890,BOI,-,-,"Please name all of the ways you could use this object. Keep in mind that one object can have many uses. Separate your responses with a comma.",,y,28215,,,2856,19945,,,,"remove, study it, examine it",1
w10050492_ang,bmxe2shdxu,"BOI Norms",1,21,2021-09-20T17:01:53-07:00,33.575177907944,22,"updated stim.csv",Version97.csv,"Version 97","List 97",flypaper,,2906,5.037037037,1021,2907,BOI,-,-,"Please name all of the ways you could use this object. Keep in mind that one object can have many uses. Separate your responses with a comma.",,y,33165,,,20515,32093,,,,"hang, kill flies, remove, get stuck on",1
w10050492_ang,bmxe2shdxu,"BOI Norms",1,22,2021-09-20T17:02:16-07:00,23.87606215477,22,"updated stim.csv",Version97.csv,"Version 97","List 97",clips,,2892,4.52,563,2893,BOI,-,-,"Please name all of the ways you could use this object. Keep in mind that one object can have many uses. Separate your responses with a comma.",,y,23436,,,2536,22833,,,,"close bag, put hair up, hold paper together",1
w10050492_ang,bmxe2shdxu,"BOI Norms",1,23,2021-09-20T17:02:46-07:00,29.375431060791,22,"updated stim.csv",Version97.csv,"Version 97","List 97",concrete,,2897,5.166666667,619,2898,BOI,-,-,"Please name all of the ways you could use this object. Keep in mind that one object can have many uses. Separate your responses with a comma.",,y,29001,,,1974,28520,,,,"pave, create road, mix, lay out",1
w10050492_ang,bmxe2shdxu,"BOI Norms",1,24,2021-09-20T17:03:06-07:00,19.929083824158,22,"updated stim.csv",Version97.csv,"Version 97","List 97",birdbath,,2905,4.916666667,221,2906,BOI,-,-,"Please name all of the ways you could use this object. Keep in mind that one object can have many uses. Separate your responses with a comma.",,y,19568,,,2508,18329,,,,"build, put out, fill, watch",1
w10050492_ang,bmxe2shdxu,"BOI Norms",1,25,2021-09-20T17:03:28-07:00,22.270400047302,22,"updated stim.csv",Version97.csv,"Version 97","List 97",passerby,,2907,4.44,1881,2908,BOI,-,-,"Please name all of the ways you could use this object. Keep in mind that one object can have many uses. Separate your responses with a comma.",,y,21914,,,1883,21542,,,,"talk to, hit, glance at, smile at, ignore",1
w10050492_ang,bmxe2shdxu,"BOI Norms",1,26,2021-09-20T17:03:52-07:00,23.564517021179,22,"updated stim.csv",Version97.csv,"Version 97","List 97",airman,,2885,4.36,21,2886,BOI,-,-,"Please name all of the ways you could use this object. Keep in mind that one object can have many uses. Separate your responses with a comma.",,y,23084,,,15595,22545,,,,"help, talk to",1
w10050492_ang,bmxe2shdxu,"BOI Norms",1,27,2021-09-20T17:04:06-07:00,14.196134090424,22,"updated stim.csv",Version97.csv,"Version 97","List 97",saloonkeeper,,2884,4.541666667,2226,2885,BOI,-,-,"Please name all of the ways you could use this object. Keep in mind that one object can have many uses. Separate your responses with a comma.",,y,13816,,,3582,13220,,,,"talk to, work for, buy from",1
w10050492_ang,bmxe2shdxu,"BOI Norms",1,28,2021-09-20T17:04:20-07:00,13.951261997223,22,"updated stim.csv",Version97.csv,"Version 97","List 97",noodles,,2887,5.695652174,1777,2888,BOI,-,-,"Please name all of the ways you could use this object. Keep in mind that one object can have many uses. Separate your responses with a comma.",,y,13482,,,1306,12914,,,,"cook, eat, spill, burn, sell, buy",1
w10050492_ang,bmxe2shdxu,"BOI Norms",1,29,2021-09-20T17:04:43-07:00,23.133502006531,22,"updated stim.csv",Version97.csv,"Version 97","List 97",package,,2908,5.75,1837,2909,BOI,-,-,"Please name all of the ways you could use this object. Keep in mind that one object can have many uses. Separate your responses with a comma.",,y,22327,,,2672,19238,,,,"pack, sell, buy, deliver, drop, read, carry",1
w10050492_ang,bmxe2shdxu,"BOI Norms",1,30,2021-09-20T17:05:09-07:00,26.322713851929,22,"updated stim.csv",Version97.csv,"Version 97","List 97",athlete,,2899,4.916666667,92,2900,BOI,-,-,"Please name all of the ways you could use this object. Keep in mind that one object can have many uses. Separate your responses with a comma.",,y,25863,,,7540,24448,,,,"run, compete against, win awards",1
w10050492_ang,bmxe2shdxu,"BOI Norms",1,31,2021-09-20T17:05:33-07:00,23.769484996796,22,"updated stim.csv",Version97.csv,"Version 97","List 97",sunroof,,2888,4.814814815,2589,2889,BOI,-,-,"Please name all of the ways you could use this object. Keep in mind that one object can have many uses. Separate your responses with a comma.",,y,23400,,,2558,22081,,,,"see the sky, feel the heat, push back, close",1
w10050492_ang,bmxe2shdxu,"BOI Norms",1,32,2021-09-20T17:06:03-07:00,29.891634941101,22,"updated stim.csv",Version97.csv,"Version 97","List 97",calves,,2900,5,404,2901,BOI,-,-,"Please name all of the ways you could use this object. Keep in mind that one object can have many uses. Separate your responses with a comma.",,y,29467,,,3649,26465,,,,"walk, pet, nurture, massage",1
w10050492_ang,bmxe2shdxu,"BOI Norms",1,33,2021-09-20T17:06:20-07:00,17.100441217422,22,"updated stim.csv",Version97.csv,"Version 97","List 97",candy,,2901,6.4,412,2902,BOI,-,-,"Please name all of the ways you could use this object. Keep in mind that one object can have many uses. Separate your responses with a comma.",,y,16667,,,1223,15098,,,,"eat, buy, sell, steal, give, take, smell",1
w10050492_ang,bmxe2shdxu,"BOI Norms",1,34,2021-09-20T17:06:34-07:00,14.446295976639,22,"updated stim.csv",Version97.csv,"Version 97","List 97",bath,,2883,5.964285714,167,2884,BOI,-,-,"Please name all of the ways you could use this object. Keep in mind that one object can have many uses. Separate your responses with a comma.",,y,14016,,,1980,8651,,,,"take, give, run",1
w10050492_ang,bmxe2shdxu,"BOI Norms",1,35,2021-09-20T17:06:51-07:00,16.169595956802,22,"updated stim.csv",Version97.csv,"Version 97","List 97",handclap,,2891,4.434782609,1234,2892,BOI,-,-,"Please name all of the ways you could use this object. Keep in mind that one object can have many uses. Separate your responses with a comma.",,y,15754,,,3257,15144,,,,"make noise, get attention, make a beat",1
w10050492_ang,bmxe2shdxu,"BOI Norms",1,36,2021-09-20T17:07:04-07:00,13.417536020279,22,"updated stim.csv",Version97.csv,"Version 97","List 97",erection,,2894,5.4,919,2895,BOI,-,-,"Please name all of the ways you could use this object. Keep in mind that one object can have many uses. Separate your responses with a comma.",,y,12987,,,3204,5205,,,,sex,1
w10050492_ang,bmxe2shdxu,"BOI Norms",1,37,2021-09-20T17:07:36-07:00,32.56251001358,22,"updated stim.csv",Version97.csv,"Version 97","List 97",workroom,,2904,4.703703704,2972,2905,BOI,-,-,"Please name all of the ways you could use this object. Keep in mind that one object can have many uses. Separate your responses with a comma.",,y,32163,,,6377,31597,,,,"work, clean, write, read, finish paperwork",1
w10050492_ang,bmxe2shdxu,"BOI Norms",1,38,2021-09-20T17:07:49-07:00,12.695811986923,22,"updated stim.csv",Version97.csv,"Version 97","List 97",marigold,,2890,4.75,1605,2891,BOI,-,-,"Please name all of the ways you could use this object. Keep in mind that one object can have many uses. Separate your responses with a comma.",,y,12270,,,2117,11785,,,,"smell, pick, sell, display, buy",1
w10050492_ang,bmxe2shdxu,"BOI Norms",1,39,2021-09-20T17:08:00-07:00,10.649096012115,22,"updated stim.csv",Version97.csv,"Version 97","List 97",voter,,2895,4.75,2875,2896,BOI,-,-,"Please name all of the ways you could use this object. Keep in mind that one object can have many uses. Separate your responses with a comma.",,y,10296,,,2416,10105,,,,"vote, register",1
w10050492_ang,bmxe2shdxu,"BOI Norms",1,40,2021-09-20T17:08:15-07:00,15.054860830307,22,"updated stim.csv",Version97.csv,"Version 97","List 97",brush,,2896,6.043478261,337,2897,BOI,-,-,"Please name all of the ways you could use this object. Keep in mind that one object can have many uses. Separate your responses with a comma.",,y,14668,,,2547,13587,,,,"hair, clean, untangle",1
w10050492_ang,bmxe2shdxu,"BOI Norms",1,41,2021-09-20T17:08:17-07:00,2.3326652050018,22,"updated stim.csv",Version97.csv,"Version 97","List 97",,,,,,0,Instruct,,,"You will now be asked a few questions about your experience today.",,"Instruct 4",2050,,,-1,-1,,,,,1
