Username,ID,ExperimentName,Session,Trial,Date,TimeDif,"Condition Number","Stimuli File","Order File","Condition Description","Condition Notes",Stimuli*Cue,Stimuli*Answer,Stimuli*Shuffle,"Stimuli*Stimuli Notes",Stimuli*Value,Procedure*Item,"Procedure*Trial Type","Procedure*Max Time","Procedure*Min Time",Procedure*Text,"Procedure*Procedure Notes",Procedure*Shuffle,Response*RT,Response*Response,Response*Accuracy,Response*RTfirst,Response*RTlast,Response*strictAcc,Response*lenientAcc,Response*focus,Response*JOL,Response*Focus
w10033091_wpc,srzitw4bqh,"BOI Norms",1,1,2021-10-06T13:34:33-07:00,11.097586870193,25,"updated stim.csv",Version100.csv,"Version 100","List 100",,,,,,0,Instruct,-,10,"In this section, you will be presented with a series of objects. Please name as many possible uses for this object as you can think of by typing them in the box below each object.",,Instruct1,10638,,,-1,-1,,,,,1
w10033091_wpc,srzitw4bqh,"BOI Norms",1,2,2021-10-06T13:34:44-07:00,11.791079044342,25,"updated stim.csv",Version100.csv,"Version 100","List 100",,,,,,0,Instruct,-,10,"Please keep in mind that a single object will have more than one use. For example, a ball can be thrown or can be bounced or even stepped on. When listing multiple uses for one object, please separate each use with a comma (i.e., thrown, bounced, stepped on)",,Instruct2,11069,,,-1,-1,,,,,1
w10033091_wpc,srzitw4bqh,"BOI Norms",1,3,2021-10-06T13:34:48-07:00,3.1626069545746,25,"updated stim.csv",Version100.csv,"Version 100","List 100",,,,,,0,Instruct,-,-,"Before starting the experiment, you will complete a short practice sesstion. Press ENTER when you are ready to begin.",,Instruct3,2480,,,-1,-1,,,,,1
w10033091_wpc,srzitw4bqh,"BOI Norms",1,4,2021-10-06T13:35:09-07:00,21.717694997787,25,"updated stim.csv",Version100.csv,"Version 100","List 100",spaghetti,,3003,6,2461,3004,BOI,-,-,"Please name all of the ways you could use this object. Keep in mind that one object can have many uses. Separate your responses with a comma.",,n,21101,,,6919,19493,,,,"meatball, plates, forks, spoons, stove, sauce",1
w10033091_wpc,srzitw4bqh,"BOI Norms",1,5,2021-10-06T13:35:32-07:00,22.976108074188,25,"updated stim.csv",Version100.csv,"Version 100","List 100",grain,,3004,5.217391304,1143,3005,BOI,-,-,"Please name all of the ways you could use this object. Keep in mind that one object can have many uses. Separate your responses with a comma.",,n,22250,,,5207,16056,,,,"bread, food, rice, beagles, ",1
w10033091_wpc,srzitw4bqh,"BOI Norms",1,6,2021-10-06T13:35:50-07:00,17.576890945435,25,"updated stim.csv",Version100.csv,"Version 100","List 100",saucer,,3005,5.777777778,2249,3006,BOI,-,-,"Please name all of the ways you could use this object. Keep in mind that one object can have many uses. Separate your responses with a comma.",,n,16935,,,2763,15440,,,,"opener, sauce, stove",1
w10033091_wpc,srzitw4bqh,"BOI Norms",1,7,2021-10-06T13:36:05-07:00,15.531883001328,25,"updated stim.csv",Version100.csv,"Version 100","List 100",paperwork,,3001,5.625,1866,3002,BOI,-,-,"Please name all of the ways you could use this object. Keep in mind that one object can have many uses. Separate your responses with a comma.",,n,14812,,,2797,13432,,,,"workplace, pencil, pen, bosses",1
w10033091_wpc,srzitw4bqh,"BOI Norms",1,8,2021-10-06T13:36:20-07:00,14.445654153824,25,"updated stim.csv",Version100.csv,"Version 100","List 100",shortening,,3002,4.92,2358,3003,BOI,-,-,"Please name all of the ways you could use this object. Keep in mind that one object can have many uses. Separate your responses with a comma.",,n,13747,,,7620,12452,,,,"Brief, short, concise",1
w10033091_wpc,srzitw4bqh,"BOI Norms",1,9,2021-10-06T13:36:24-07:00,4.3175749778748,25,"updated stim.csv",Version100.csv,"Version 100","List 100",,,,,,0,Instruct,-,-,"You have completed this section. Press ENTER to continue",,"Instruct 5",3697,,,-1,-1,,,,,1
w10033091_wpc,srzitw4bqh,"BOI Norms",1,10,2021-10-06T13:36:27-07:00,2.6887648105621,25,"updated stim.csv",Version100.csv,"Version 100","List 100",,,,,,0,Instruct,-,-,"You will now start the full experiment. Press ENTER when you are ready to begin.",,,2029,,,-1,-1,,,,,1
w10033091_wpc,srzitw4bqh,"BOI Norms",1,11,2021-10-06T13:36:38-07:00,11.407996177673,25,"updated stim.csv",Version100.csv,"Version 100","List 100",wrist,,2993,6.291666667,2982,2994,BOI,-,-,"Please name all of the ways you could use this object. Keep in mind that one object can have many uses. Separate your responses with a comma.",,y,10667,,,2233,9049,,,,"touch, throw, pulse",1
w10033091_wpc,srzitw4bqh,"BOI Norms",1,12,2021-10-06T13:36:53-07:00,14.331769943237,25,"updated stim.csv",Version100.csv,"Version 100","List 100",glove,,3000,4.888888889,2880,3001,BOI,-,-,"Please name all of the ways you could use this object. Keep in mind that one object can have many uses. Separate your responses with a comma.",,y,13679,,,1294,11722,,,,"baseball, football, catching, winter",1
w10033091_wpc,srzitw4bqh,"BOI Norms",1,13,2021-10-06T13:37:23-07:00,30.030836105347,25,"updated stim.csv",Version100.csv,"Version 100","List 100",dish,,2981,5.8,802,2982,BOI,-,-,"Please name all of the ways you could use this object. Keep in mind that one object can have many uses. Separate your responses with a comma.",,y,29230,,,1487,27562,,,,"wash, rinse, dry, food, utensils, serve",1
w10033091_wpc,srzitw4bqh,"BOI Norms",1,14,2021-10-06T13:37:34-07:00,11.792760848999,25,"updated stim.csv",Version100.csv,"Version 100","List 100",knickers,,2977,5.5,1435,2978,BOI,-,-,"Please name all of the ways you could use this object. Keep in mind that one object can have many uses. Separate your responses with a comma.",,y,11125,,,7099,9467,,,,shoes,1
w10033091_wpc,srzitw4bqh,"BOI Norms",1,15,2021-10-06T13:37:43-07:00,9.0300009250641,25,"updated stim.csv",Version100.csv,"Version 100","List 100",hound,,2974,4.962962963,1324,2975,BOI,-,-,"Please name all of the ways you could use this object. Keep in mind that one object can have many uses. Separate your responses with a comma.",,y,8394,,,2159,5804,,,,"bus, dog",1
w10033091_wpc,srzitw4bqh,"BOI Norms",1,16,2021-10-06T13:37:58-07:00,14.865335226059,25,"updated stim.csv",Version100.csv,"Version 100","List 100",wallboard,,2978,4.64,2887,2979,BOI,-,-,"Please name all of the ways you could use this object. Keep in mind that one object can have many uses. Separate your responses with a comma.",,y,14249,,,2082,12568,,,,"posters, paintings",1
w10033091_wpc,srzitw4bqh,"BOI Norms",1,17,2021-10-06T13:38:12-07:00,13.181212902069,25,"updated stim.csv",Version100.csv,"Version 100","List 100",waist,,2997,6.458333333,1117,2998,BOI,-,-,"Please name all of the ways you could use this object. Keep in mind that one object can have many uses. Separate your responses with a comma.",,y,12645,,,3679,11448,,,,"measure, belt, pants",1
w10033091_wpc,srzitw4bqh,"BOI Norms",1,18,2021-10-06T13:38:17-07:00,5.6422500610352,25,"updated stim.csv",Version100.csv,"Version 100","List 100",limb,,2982,5.703703704,1511,2983,BOI,-,-,"Please name all of the ways you could use this object. Keep in mind that one object can have many uses. Separate your responses with a comma.",,y,4806,,,2800,3493,,,,arm,1
w10033091_wpc,srzitw4bqh,"BOI Norms",1,19,2021-10-06T13:38:36-07:00,18.836024999619,25,"updated stim.csv",Version100.csv,"Version 100","List 100",centipede,,2986,5.25,478,2987,BOI,-,-,"Please name all of the ways you could use this object. Keep in mind that one object can have many uses. Separate your responses with a comma.",,y,18115,,,13385,15168,,,,animal,0.963
w10033091_wpc,srzitw4bqh,"BOI Norms",1,20,2021-10-06T13:38:54-07:00,17.749146938324,25,"updated stim.csv",Version100.csv,"Version 100","List 100",badminton,,2999,4.92,120,3000,BOI,-,-,"Please name all of the ways you could use this object. Keep in mind that one object can have many uses. Separate your responses with a comma.",,y,16981,,,1801,15364,,,,"sport, racket, teams, players",1
w10033091_wpc,srzitw4bqh,"BOI Norms",1,21,2021-10-06T13:39:18-07:00,24.081662893295,25,"updated stim.csv",Version100.csv,"Version 100","List 100",pulley,,2973,5.208333333,2092,2974,BOI,-,-,"Please name all of the ways you could use this object. Keep in mind that one object can have many uses. Separate your responses with a comma.",,y,23151,,,14213,21616,,,,"change directions, move objects",0.907
w10033091_wpc,srzitw4bqh,"BOI Norms",1,22,2021-10-06T13:39:25-07:00,6.9383931159973,25,"updated stim.csv",Version100.csv,"Version 100","List 100",fieldstone,,2990,4.761904762,971,2991,BOI,-,-,"Please name all of the ways you could use this object. Keep in mind that one object can have many uses. Separate your responses with a comma.",,y,4738,,,-1,-1,,,,,1
w10033091_wpc,srzitw4bqh,"BOI Norms",1,23,2021-10-06T13:39:40-07:00,14.983358860016,25,"updated stim.csv",Version100.csv,"Version 100","List 100",breadboard,,2987,5.44,310,2988,BOI,-,-,"Please name all of the ways you could use this object. Keep in mind that one object can have many uses. Separate your responses with a comma.",,y,13465,,,3200,11411,,,,"cutting bread, making sandwiches",1
w10033091_wpc,srzitw4bqh,"BOI Norms",1,24,2021-10-06T13:39:48-07:00,8.5105900764465,25,"updated stim.csv",Version100.csv,"Version 100","List 100",respirator,,2995,4.923076923,2158,2996,BOI,-,-,"Please name all of the ways you could use this object. Keep in mind that one object can have many uses. Separate your responses with a comma.",,y,7933,,,4364,6682,,,,life-saver,1
w10033091_wpc,srzitw4bqh,"BOI Norms",1,25,2021-10-06T13:40:06-07:00,18.125472068787,25,"updated stim.csv",Version100.csv,"Version 100","List 100",Fern,,2976,5.005471956,964,2977,BOI,-,-,"Please name all of the ways you could use this object. Keep in mind that one object can have many uses. Separate your responses with a comma.",,y,17690,,,9122,16213,,,,"garden, decoration",0.947
w10033091_wpc,srzitw4bqh,"BOI Norms",1,26,2021-10-06T13:40:10-07:00,3.3660109043121,25,"updated stim.csv",Version100.csv,"Version 100","List 100",topaz,,2992,4.642857143,2735,2993,BOI,-,-,"Please name all of the ways you could use this object. Keep in mind that one object can have many uses. Separate your responses with a comma.",,y,2677,,,-1,-1,,,,,1
w10033091_wpc,srzitw4bqh,"BOI Norms",1,27,2021-10-06T13:40:42-07:00,32.622121095657,25,"updated stim.csv",Version100.csv,"Version 100","List 100",dye,,2972,4.52173913,873,2973,BOI,-,-,,,y,2677,,,-1,-1,,,,,1
w10033091_wpc,srzitw4bqh,"BOI Norms",1,28,2021-10-06T13:40:52-07:00,9.6318159103394,25,"updated stim.csv",Version100.csv,"Version 100","List 100",greenhouse,,2975,5.260869565,1171,2976,BOI,-,-,"Please name all of the ways you could use this object. Keep in mind that one object can have many uses. Separate your responses with a comma.",,y,8834,,,3537,6175,,,,gases,1
w10033091_wpc,srzitw4bqh,"BOI Norms",1,29,2021-10-06T13:41:08-07:00,16.09228515625,25,"updated stim.csv",Version100.csv,"Version 100","List 100",deck,,2988,5.541666667,763,2989,BOI,-,-,"Please name all of the ways you could use this object. Keep in mind that one object can have many uses. Separate your responses with a comma.",,y,15413,,,5019,14129,,,,"sightseeing, fishing, docking",1
w10033091_wpc,srzitw4bqh,"BOI Norms",1,30,2021-10-06T13:41:29-07:00,20.723277807236,25,"updated stim.csv",Version100.csv,"Version 100","List 100",marketeer,,2989,4.5,1608,2990,BOI,-,-,"Please name all of the ways you could use this object. Keep in mind that one object can have many uses. Separate your responses with a comma.",,y,19915,,,11384,18311,,,,"communicator, knowledgeable",0.941
w10033091_wpc,srzitw4bqh,"BOI Norms",1,31,2021-10-06T13:41:53-07:00,23.885673046112,25,"updated stim.csv",Version100.csv,"Version 100","List 100",guardrail,,2991,4.36,1186,2992,BOI,-,-,"Please name all of the ways you could use this object. Keep in mind that one object can have many uses. Separate your responses with a comma.",,y,23055,,,13113,21651,,,,"safety, curve, driving, road",0.936
w10033091_wpc,srzitw4bqh,"BOI Norms",1,32,2021-10-06T13:42:12-07:00,19.086745023727,25,"updated stim.csv",Version100.csv,"Version 100","List 100",debris,,2971,4.75,762,2972,BOI,-,-,"Please name all of the ways you could use this object. Keep in mind that one object can have many uses. Separate your responses with a comma.",,y,18347,,,1929,15523,,,,"trash, road, outside",1
w10033091_wpc,srzitw4bqh,"BOI Norms",1,33,2021-10-06T13:42:26-07:00,13.876116991043,25,"updated stim.csv",Version100.csv,"Version 100","List 100",brow,,2998,4.416666667,336,2999,BOI,-,-,"Please name all of the ways you could use this object. Keep in mind that one object can have many uses. Separate your responses with a comma.",,y,13408,,,10245,11725,,,,forehead,0.945
w10033091_wpc,srzitw4bqh,"BOI Norms",1,34,2021-10-06T13:42:38-07:00,12.31121301651,25,"updated stim.csv",Version100.csv,"Version 100","List 100",school,,2979,5.16,2269,2980,BOI,-,-,"Please name all of the ways you could use this object. Keep in mind that one object can have many uses. Separate your responses with a comma.",,y,11647,,,1832,9986,,,,"work, friends, lunch, reccess",1
w10033091_wpc,srzitw4bqh,"BOI Norms",1,35,2021-10-06T13:42:50-07:00,12.381649017334,25,"updated stim.csv",Version100.csv,"Version 100","List 100",trampoline,,2994,5.88,2759,2995,BOI,-,-,"Please name all of the ways you could use this object. Keep in mind that one object can have many uses. Separate your responses with a comma.",,y,11863,,,2592,11258,,,,"exercise, fun, happiness",1
w10033091_wpc,srzitw4bqh,"BOI Norms",1,36,2021-10-06T13:43:10-07:00,19.565015077591,25,"updated stim.csv",Version100.csv,"Version 100","List 100",earplugs,,2996,6.541666667,880,2997,BOI,-,-,"Please name all of the ways you could use this object. Keep in mind that one object can have many uses. Separate your responses with a comma.",,y,18886,,,3834,16072,,,,"concentrate, music, studying",1
w10033091_wpc,srzitw4bqh,"BOI Norms",1,37,2021-10-06T13:43:41-07:00,30.809612989426,25,"updated stim.csv",Version100.csv,"Version 100","List 100",bowling,,2980,5,293,2981,BOI,-,-,"Please name all of the ways you could use this object. Keep in mind that one object can have many uses. Separate your responses with a comma.",,y,30029,,,2297,28587,,,,"strike, lane, fun, turkey, alley",1
w10033091_wpc,srzitw4bqh,"BOI Norms",1,38,2021-10-06T13:43:54-07:00,13.377240896225,25,"updated stim.csv",Version100.csv,"Version 100","List 100",waffle,,2983,6.173913043,2878,2984,BOI,-,-,"Please name all of the ways you could use this object. Keep in mind that one object can have many uses. Separate your responses with a comma.",,y,12876,,,1923,11758,,,,"house, syrup, butter, fork, knife",1
w10033091_wpc,srzitw4bqh,"BOI Norms",1,39,2021-10-06T13:44:09-07:00,14.819818019867,25,"updated stim.csv",Version100.csv,"Version 100","List 100",blowgun,,2985,4.625,246,2986,BOI,-,-,"Please name all of the ways you could use this object. Keep in mind that one object can have many uses. Separate your responses with a comma.",,y,14076,,,11577,12493,,,,noise,0.88
w10033091_wpc,srzitw4bqh,"BOI Norms",1,40,2021-10-06T13:44:20-07:00,11.08247590065,25,"updated stim.csv",Version100.csv,"Version 100","List 100",tee,,2984,5.347826087,2656,2985,BOI,-,-,"Please name all of the ways you could use this object. Keep in mind that one object can have many uses. Separate your responses with a comma.",,y,10252,,,5069,7784,,,,"golf, pad",1
w10033091_wpc,srzitw4bqh,"BOI Norms",1,41,2021-10-06T13:44:25-07:00,4.5946300029755,25,"updated stim.csv",Version100.csv,"Version 100","List 100",,,,,,0,Instruct,,,"You will now be asked a few questions about your experience today.",,"Instruct 4",4007,,,-1,-1,,,,,1
