Username,ID,ExperimentName,Session,Trial,Date,TimeDif,"Condition Number","Stimuli File","Order File","Condition Description","Condition Notes",Stimuli*Cue,Stimuli*Answer,Stimuli*Shuffle,"Stimuli*Stimuli Notes",Stimuli*Value,Procedure*Item,"Procedure*Trial Type","Procedure*Max Time","Procedure*Min Time",Procedure*Text,"Procedure*Procedure Notes",Procedure*Shuffle,Response*RT,Response*Response,Response*Accuracy,Response*RTfirst,Response*RTlast,Response*strictAcc,Response*lenientAcc,Response*focus,Response*JOL,Response*Focus
w10088835_mad,kufdfyg19y,"BOI Norms",1,1,2021-03-05T20:56:07-08:00,11.922100067139,20,"updated stim.csv",Version45.csv,"Version 45","List 45",,,,,,0,Instruct,-,10,"In this section, you will be presented with a series of objects. Please name as many possible uses for this object as you can think of by typing them in the box below each object.",,Instruct1,11563,,,-1,-1,,,,,1
w10088835_mad,kufdfyg19y,"BOI Norms",1,2,2021-03-05T20:56:21-08:00,13.493663072586,20,"updated stim.csv",Version45.csv,"Version 45","List 45",,,,,,0,Instruct,-,10,"Please keep in mind that a single object will have more than one use. For example, a ball can be thrown or can be bounced or even stepped on. When listing multiple uses for one object, please separate each use with a comma (i.e., thrown, bounced, stepped on)",,Instruct2,13116,,,-1,-1,,,,,1
w10088835_mad,kufdfyg19y,"BOI Norms",1,3,2021-03-05T20:56:25-08:00,3.958655834198,20,"updated stim.csv",Version45.csv,"Version 45","List 45",,,,,,0,Instruct,-,-,"Before starting the experiment, you will complete a short practice sesstion. Press ENTER when you are ready to begin.",,Instruct3,3640,,,-1,-1,,,,,1
w10088835_mad,kufdfyg19y,"BOI Norms",1,4,2021-03-05T20:59:27-08:00,182.27933001518,20,"updated stim.csv",Version45.csv,"Version 45","List 45",paperwork,,3001,5.625,1866,3002,BOI,-,-,"Please name all of the ways you could use this object. Keep in mind that one object can have many uses. Separate your responses with a comma.",,n,181818,,,3187,179283,,,,"write on, crumple, burn, fold, tear, stack, deliver, scan, mail, hand to someone, throw in trash, put in a folder",1
w10088835_mad,kufdfyg19y,"BOI Norms",1,5,2021-03-05T21:01:27-08:00,120.24996805191,20,"updated stim.csv",Version45.csv,"Version 45","List 45",grain,,3004,5.217391304,1143,3005,BOI,-,-,"Please name all of the ways you could use this object. Keep in mind that one object can have many uses. Separate your responses with a comma.",,n,119653,,,3075,117633,,,,"plant, store, feed to animals, throw, sell, buy",1
w10088835_mad,kufdfyg19y,"BOI Norms",1,6,2021-03-05T21:02:54-08:00,86.466743946075,20,"updated stim.csv",Version45.csv,"Version 45","List 45",spaghetti,,3003,6,2461,3004,BOI,-,-,"Please name all of the ways you could use this object. Keep in mind that one object can have many uses. Separate your responses with a comma.",,n,85964,,,2796,67002,,,,"eat, make, throw at something, throw at someone, throw it away, make a mess",1
w10088835_mad,kufdfyg19y,"BOI Norms",1,7,2021-03-05T21:05:35-08:00,160.66663193703,20,"updated stim.csv",Version45.csv,"Version 45","List 45",saucer,,3005,5.777777778,2249,3006,BOI,-,-,"Please name all of the ways you could use this object. Keep in mind that one object can have many uses. Separate your responses with a comma.",,n,160175,,,31488,111053,,,,"place a teacup on, throw at something, throw at someone, a breakable frisbee, place small food items on, eat off it, clean it",1
w10088835_mad,kufdfyg19y,"BOI Norms",1,8,2021-03-05T21:07:50-08:00,135.66285514832,20,"updated stim.csv",Version45.csv,"Version 45","List 45",shortening,,3002,4.92,2358,3003,BOI,-,-,"Please name all of the ways you could use this object. Keep in mind that one object can have many uses. Separate your responses with a comma.",,n,135151,,,62155,125317,,,,"used in cooking, makes a mess",1
w10088835_mad,kufdfyg19y,"BOI Norms",1,9,2021-03-05T21:07:53-08:00,2.3748688697815,20,"updated stim.csv",Version45.csv,"Version 45","List 45",,,,,,0,Instruct,-,-,"You have completed this section. Press ENTER to continue",,"Instruct 5",1992,,,-1,-1,,,,,1
w10088835_mad,kufdfyg19y,"BOI Norms",1,10,2021-03-05T21:08:22-08:00,29.584933042526,20,"updated stim.csv",Version45.csv,"Version 45","List 45",,,,,,0,Instruct,-,-,"You will now start the full experiment. Press ENTER when you are ready to begin.",,,29319,,,-1,-1,,,,,1
w10088835_mad,kufdfyg19y,"BOI Norms",1,11,2021-03-05T21:09:58-08:00,95.587219953537,20,"updated stim.csv",Version45.csv,"Version 45","List 45",streetcar,,1345,4.791666667,2564,1346,BOI,-,-,"Please name all of the ways you could use this object. Keep in mind that one object can have many uses. Separate your responses with a comma.",,y,95100,,,2269,53453,,,,"race, fix, drive, wreck, cause havoc, annoy people with the engine",1
w10088835_mad,kufdfyg19y,"BOI Norms",1,12,2021-03-05T21:12:51-08:00,173.11849713326,20,"updated stim.csv",Version45.csv,"Version 45","List 45",vinaigrette,,1331,5.363636364,2860,1332,BOI,-,-,"Please name all of the ways you could use this object. Keep in mind that one object can have many uses. Separate your responses with a comma.",,y,172624,,,3586,27616,,,,"cook with it, use it as a sauce, throw it on something, throw it on someone",1
w10088835_mad,kufdfyg19y,"BOI Norms",1,13,2021-03-05T21:15:22-08:00,151.55683708191,20,"updated stim.csv",Version45.csv,"Version 45","List 45",palm,,1332,5.44,1854,1333,BOI,-,-,"Please name all of the ways you could use this object. Keep in mind that one object can have many uses. Separate your responses with a comma.",,y,151070,,,7041,69695,,,,"sit under it, shake it, kick it, climb it, cut it down, use the wood, burn it",1
w10088835_mad,kufdfyg19y,"BOI Norms",1,14,2021-03-05T21:17:40-08:00,137.59261083603,20,"updated stim.csv",Version45.csv,"Version 45","List 45",guest,,1336,4.857142857,1188,1337,BOI,-,-,"Please name all of the ways you could use this object. Keep in mind that one object can have many uses. Separate your responses with a comma.",,y,137023,,,5538,117311,,,,"greet, send them away, yell at them, speak politely, fight them, shake their hand, hug them, lock them in, converse",1
w10088835_mad,kufdfyg19y,"BOI Norms",1,15,2021-03-05T21:22:23-08:00,282.48938894272,20,"updated stim.csv",Version45.csv,"Version 45","List 45",darkroom,,1333,4.416666667,757,1334,BOI,-,-,"Please name all of the ways you could use this object. Keep in mind that one object can have many uses. Separate your responses with a comma.",,y,282033,,,4336,266482,,,,"develop photos, hide, play Marco Polo, deprive yourself of sight, enhance other senses, test different flashlight intensities",1
w10088835_mad,kufdfyg19y,"BOI Norms",1,16,2021-03-05T21:24:01-08:00,98.28017616272,20,"updated stim.csv",Version45.csv,"Version 45","List 45",vinyl,,1324,4.6,2863,1325,BOI,-,-,"Please name all of the ways you could use this object. Keep in mind that one object can have many uses. Separate your responses with a comma.",,y,97862,,,2807,94214,,,,"play it on a record, smash it, scratch it, melt it, call yourself a hipster",1
w10088835_mad,kufdfyg19y,"BOI Norms",1,17,2021-03-05T21:29:03-08:00,302.43546104431,20,"updated stim.csv",Version45.csv,"Version 45","List 45",scorpion,,1343,4.32,2280,1344,BOI,-,-,"Please name all of the ways you could use this object. Keep in mind that one object can have many uses. Separate your responses with a comma.",,y,301941,,,2646,182918,,,,"avoid it, eat it, fight it, keep it as a pet, feed it to another pet, terrify your enemies",1
w10088835_mad,kufdfyg19y,"BOI Norms",1,18,2021-03-05T21:31:33-08:00,149.88255190849,20,"updated stim.csv",Version45.csv,"Version 45","List 45",statue,,1322,4.777777778,2513,1323,BOI,-,-,"Please name all of the ways you could use this object. Keep in mind that one object can have many uses. Separate your responses with a comma.",,y,149358,,,2222,141037,,,,"admire, destroy, create, touch, taste if you're brave enough, sit on it",1
w10088835_mad,kufdfyg19y,"BOI Norms",1,19,2021-03-05T21:34:40-08:00,186.41113305092,20,"updated stim.csv",Version45.csv,"Version 45","List 45",teenager,,1329,5.08,2657,1330,BOI,-,-,"Please name all of the ways you could use this object. Keep in mind that one object can have many uses. Separate your responses with a comma.",,y,185923,,,6629,141700,,,,"ignore, fight, guilt free way of getting ice cream",1
w10088835_mad,kufdfyg19y,"BOI Norms",1,20,2021-03-05T21:38:14-08:00,214.81970691681,20,"updated stim.csv",Version45.csv,"Version 45","List 45",schoolgirl,,1347,4.625,2271,1348,BOI,-,-,"Please name all of the ways you could use this object. Keep in mind that one object can have many uses. Separate your responses with a comma.",,y,214247,,,45979,200025,,,,"teach, play games, talk to, listen to",1
w10088835_mad,kufdfyg19y,"BOI Norms",1,21,2021-03-05T21:39:29-08:00,74.858550071716,20,"updated stim.csv",Version45.csv,"Version 45","List 45",eel,,1328,4.653846154,891,1329,BOI,-,-,"Please name all of the ways you could use this object. Keep in mind that one object can have many uses. Separate your responses with a comma.",,y,74434,,,2594,60241,,,,"eat, keep as pet, touch them, get electric shock, fish them, breed them, farm them, release them back to water",1
w10088835_mad,kufdfyg19y,"BOI Norms",1,22,2021-03-05T21:44:02-08:00,272.70068597794,20,"updated stim.csv",Version45.csv,"Version 45","List 45",buttock,,1323,5.25,379,1324,BOI,-,-,"Please name all of the ways you could use this object. Keep in mind that one object can have many uses. Separate your responses with a comma.",,y,272182,,,30665,108165,,,,"sit on, slap, have surgery done",1
w10088835_mad,kufdfyg19y,"BOI Norms",1,23,2021-03-05T21:45:43-08:00,101.50589108467,20,"updated stim.csv",Version45.csv,"Version 45","List 45",hangnail,,1350,5.814814815,1246,1351,BOI,-,-,"Please name all of the ways you could use this object. Keep in mind that one object can have many uses. Separate your responses with a comma.",,y,101101,,,2638,95196,,,,"bite it off, use to scratch, pick at it, annoy others with it",1
w10088835_mad,kufdfyg19y,"BOI Norms",1,24,2021-03-05T21:47:10-08:00,86.179150819778,20,"updated stim.csv",Version45.csv,"Version 45","List 45",watchdog,,1337,4.333333333,2907,1338,BOI,-,-,"Please name all of the ways you could use this object. Keep in mind that one object can have many uses. Separate your responses with a comma.",,y,85769,,,3176,28296,,,,"protection, intimidate, attack, companionship",1
w10088835_mad,kufdfyg19y,"BOI Norms",1,25,2021-03-05T21:48:31-08:00,81.272868156433,20,"updated stim.csv",Version45.csv,"Version 45","List 45",sourdough,,1338,5.12,2455,1339,BOI,-,-,"Please name all of the ways you could use this object. Keep in mind that one object can have many uses. Separate your responses with a comma.",,y,80886,,,3415,79541,,,,"bake, eat, throw away, burn, throw at something, throw at someone",1
w10088835_mad,kufdfyg19y,"BOI Norms",1,26,2021-03-05T21:49:27-08:00,56.594883918762,20,"updated stim.csv",Version45.csv,"Version 45","List 45",sprinkler,,1349,4.962962963,2489,1350,BOI,-,-,"Please name all of the ways you could use this object. Keep in mind that one object can have many uses. Separate your responses with a comma.",,y,56258,,,2708,53938,,,,"water grass, run through, water plants, annoy neighbor's dog, cool off",1
w10088835_mad,kufdfyg19y,"BOI Norms",1,27,2021-03-05T21:51:28-08:00,120.91839599609,20,"updated stim.csv",Version45.csv,"Version 45","List 45",peanuts,,1335,6.12,1894,1336,BOI,-,-,"Please name all of the ways you could use this object. Keep in mind that one object can have many uses. Separate your responses with a comma.",,y,120254,,,2800,113054,,,,"eat, grow, shell them, throw at someone, throw at something, be allergic, use against allergic person",1
w10088835_mad,kufdfyg19y,"BOI Norms",1,28,2021-03-05T21:52:45-08:00,76.584290981293,20,"updated stim.csv",Version45.csv,"Version 45","List 45",feast,,1325,4.384615385,955,1326,BOI,-,-,"Please name all of the ways you could use this object. Keep in mind that one object can have many uses. Separate your responses with a comma.",,y,76145,,,2674,74817,,,,"consume, food fight, use for party",1
w10088835_mad,kufdfyg19y,"BOI Norms",1,29,2021-03-05T21:54:19-08:00,93.738925933838,20,"updated stim.csv",Version45.csv,"Version 45","List 45",intern,,1327,4.791666667,1364,1328,BOI,-,-,"Please name all of the ways you could use this object. Keep in mind that one object can have many uses. Separate your responses with a comma.",,y,93343,,,2945,22111,,,,"do simple work, never pay, put blame on",1
w10088835_mad,kufdfyg19y,"BOI Norms",1,30,2021-03-05T21:55:35-08:00,75.980586051941,20,"updated stim.csv",Version45.csv,"Version 45","List 45",swab,,1339,4.76,2601,1340,BOI,-,-,"Please name all of the ways you could use this object. Keep in mind that one object can have many uses. Separate your responses with a comma.",,y,75572,,,3462,14883,,,,"clean, get sample, break it",1
w10088835_mad,kufdfyg19y,"BOI Norms",1,31,2021-03-05T21:59:08-08:00,213.14206600189,20,"updated stim.csv",Version45.csv,"Version 45","List 45",cookbook,,1344,5.68,631,1345,BOI,-,-,"Please name all of the ways you could use this object. Keep in mind that one object can have many uses. Separate your responses with a comma.",,y,212653,,,2862,211869,,,,"burn, read, apply, throw",1
w10088835_mad,kufdfyg19y,"BOI Norms",1,32,2021-03-05T22:01:20-08:00,132.46889591217,20,"updated stim.csv",Version45.csv,"Version 45","List 45",goatskin,,1340,4.44,1124,1341,BOI,-,-,"Please name all of the ways you could use this object. Keep in mind that one object can have many uses. Separate your responses with a comma.",,y,131958,,,54392,102277,,,,"satanic ritual, clothing, blankets",1
w10088835_mad,kufdfyg19y,"BOI Norms",1,33,2021-03-05T22:02:17-08:00,56.463708162308,20,"updated stim.csv",Version45.csv,"Version 45","List 45",vinegar,,1330,5.291666667,2862,1331,BOI,-,-,"Please name all of the ways you could use this object. Keep in mind that one object can have many uses. Separate your responses with a comma.",,y,56086,,,6873,49606,,,,"cooking, cleaning, taste, smell",1
w10088835_mad,kufdfyg19y,"BOI Norms",1,34,2021-03-05T22:02:55-08:00,38.089427947998,20,"updated stim.csv",Version45.csv,"Version 45","List 45",curb,,1341,4.72,728,1342,BOI,-,-,"Please name all of the ways you could use this object. Keep in mind that one object can have many uses. Separate your responses with a comma.",,y,37716,,,2742,29988,,,,"sit, hit, run over, paint, destroy",1
w10088835_mad,kufdfyg19y,"BOI Norms",1,35,2021-03-05T22:04:12-08:00,77.622137069702,20,"updated stim.csv",Version45.csv,"Version 45","List 45",hypnotist,,1326,4.44,1343,1327,BOI,-,-,"Please name all of the ways you could use this object. Keep in mind that one object can have many uses. Separate your responses with a comma.",,y,77245,,,4640,67549,,,,"make appointment, date, talk to",1
w10088835_mad,kufdfyg19y,"BOI Norms",1,36,2021-03-05T22:06:12-08:00,119.76833701134,20,"updated stim.csv",Version45.csv,"Version 45","List 45",grass,,1321,5.454545455,1160,1322,BOI,-,-,"Please name all of the ways you could use this object. Keep in mind that one object can have many uses. Separate your responses with a comma.",,y,119313,,,2401,118224,,,,"lay on, cut, eat, dye clothes, plant, burn, grow, stylize",1
w10088835_mad,kufdfyg19y,"BOI Norms",1,37,2021-03-05T22:06:41-08:00,28.682881832123,20,"updated stim.csv",Version45.csv,"Version 45","List 45",barnacle,,1342,4.260869565,152,1343,BOI,-,-,"Please name all of the ways you could use this object. Keep in mind that one object can have many uses. Separate your responses with a comma.",,y,28320,,,6322,27855,,,,"clean off boat, enjoy in natural habitat",1
w10088835_mad,kufdfyg19y,"BOI Norms",1,38,2021-03-05T22:08:33-08:00,112.45239520073,20,"updated stim.csv",Version45.csv,"Version 45","List 45",slime,,1334,4.37037037,2412,1335,BOI,-,-,"Please name all of the ways you could use this object. Keep in mind that one object can have many uses. Separate your responses with a comma.",,y,111939,,,2516,49570,,,,"make, play, make mess",1
w10088835_mad,kufdfyg19y,"BOI Norms",1,39,2021-03-05T22:09:19-08:00,45.776825904846,20,"updated stim.csv",Version45.csv,"Version 45","List 45",cymbal,,1348,5.958333333,741,1349,BOI,-,-,"Please name all of the ways you could use this object. Keep in mind that one object can have many uses. Separate your responses with a comma.",,y,45368,,,2618,42681,,,,"make noise, hit, hang, drop",1
w10088835_mad,kufdfyg19y,"BOI Norms",1,40,2021-03-05T22:09:57-08:00,38.123143911362,20,"updated stim.csv",Version45.csv,"Version 45","List 45",hook,,1346,5,1307,1347,BOI,-,-,"Please name all of the ways you could use this object. Keep in mind that one object can have many uses. Separate your responses with a comma.",,y,37776,,,1760,28912,,,,"stab, use to fish, use to hang, use as a hand replacement",1
w10088835_mad,kufdfyg19y,"BOI Norms",1,41,2021-03-05T22:09:59-08:00,1.9453201293945,20,"updated stim.csv",Version45.csv,"Version 45","List 45",,,,,,0,Instruct,,,"You will now be asked a few questions about your experience today.",,"Instruct 4",1630,,,-1,-1,,,,,1
