Username,ID,ExperimentName,Session,Trial,Date,TimeDif,"Condition Number","Stimuli File","Order File","Condition Description","Condition Notes",Stimuli*Cue,Stimuli*Answer,Stimuli*Shuffle,"Stimuli*Stimuli Notes",Stimuli*Value,Procedure*Item,"Procedure*Trial Type","Procedure*Max Time","Procedure*Min Time",Procedure*Text,"Procedure*Procedure Notes",Procedure*Shuffle,Response*RT,Response*Response,Response*Accuracy,Response*RTfirst,Response*RTlast,Response*strictAcc,Response*lenientAcc,Response*focus,Response*JOL,Response*Focus
w838736_clm,yzs7w01038,"BOI Norms",1,1,2021-08-30T13:57:24-07:00,12.058450937271,8,"updated stim.csv",Version33.csv,"Version 33","List 33",,,,,,0,Instruct,-,10,"In this section, you will be presented with a series of objects. Please name as many possible uses for this object as you can think of by typing them in the box below each object.",,Instruct1,11230,,,-1,-1,,,,,1
w838736_clm,yzs7w01038,"BOI Norms",1,2,2021-08-30T13:57:37-07:00,12.944077968597,8,"updated stim.csv",Version33.csv,"Version 33","List 33",,,,,,0,Instruct,-,10,"Please keep in mind that a single object will have more than one use. For example, a ball can be thrown or can be bounced or even stepped on. When listing multiple uses for one object, please separate each use with a comma (i.e., thrown, bounced, stepped on)",,Instruct2,12427,,,-1,-1,,,,,1
w838736_clm,yzs7w01038,"BOI Norms",1,3,2021-08-30T13:57:42-07:00,4.4370698928833,8,"updated stim.csv",Version33.csv,"Version 33","List 33",,,,,,0,Instruct,-,-,"Before starting the experiment, you will complete a short practice sesstion. Press ENTER when you are ready to begin.",,Instruct3,3645,,,-1,-1,,,,,1
w838736_clm,yzs7w01038,"BOI Norms",1,4,2021-08-30T13:58:17-07:00,35.705286026001,8,"updated stim.csv",Version33.csv,"Version 33","List 33",shortening,,3002,4.92,2358,3003,BOI,-,-,"Please name all of the ways you could use this object. Keep in mind that one object can have many uses. Separate your responses with a comma.",,n,33533,,,17655,32033,,,,"cooking, baking, ending, making smaller",1
w838736_clm,yzs7w01038,"BOI Norms",1,5,2021-08-30T13:58:44-07:00,27.044347047806,8,"updated stim.csv",Version33.csv,"Version 33","List 33",grain,,3004,5.217391304,1143,3005,BOI,-,-,"Please name all of the ways you could use this object. Keep in mind that one object can have many uses. Separate your responses with a comma.",,n,25447,,,4001,24297,,,,"Cooking, baking, brewing, food, nutrients ",1
w838736_clm,yzs7w01038,"BOI Norms",1,6,2021-08-30T13:59:07-07:00,22.406793117523,8,"updated stim.csv",Version33.csv,"Version 33","List 33",saucer,,3005,5.777777778,2249,3006,BOI,-,-,"Please name all of the ways you could use this object. Keep in mind that one object can have many uses. Separate your responses with a comma.",,n,21013,,,5737,19817,,,,"To hold, to protect, to lie under ",1
w838736_clm,yzs7w01038,"BOI Norms",1,7,2021-08-30T13:59:44-07:00,37.27959895134,8,"updated stim.csv",Version33.csv,"Version 33","List 33",paperwork,,3001,5.625,1866,3002,BOI,-,-,"Please name all of the ways you could use this object. Keep in mind that one object can have many uses. Separate your responses with a comma.",,n,35632,,,5626,34498,,,,"Consent, reminders, important information, knowledge, writing, reading, studying ",1
w838736_clm,yzs7w01038,"BOI Norms",1,8,2021-08-30T14:00:01-07:00,16.695724964142,8,"updated stim.csv",Version33.csv,"Version 33","List 33",spaghetti,,3003,6,2461,3004,BOI,-,-,"Please name all of the ways you could use this object. Keep in mind that one object can have many uses. Separate your responses with a comma.",,n,16043,,,2432,12555,,,,"Eating, nourishment, supper, lunch ",1
w838736_clm,yzs7w01038,"BOI Norms",1,9,2021-08-30T14:00:04-07:00,3.5301179885864,8,"updated stim.csv",Version33.csv,"Version 33","List 33",,,,,,0,Instruct,-,-,"You have completed this section. Press ENTER to continue",,"Instruct 5",3064,,,-1,-1,,,,,1
w838736_clm,yzs7w01038,"BOI Norms",1,10,2021-08-30T14:00:09-07:00,4.3405439853668,8,"updated stim.csv",Version33.csv,"Version 33","List 33",,,,,,0,Instruct,-,-,"You will now start the full experiment. Press ENTER when you are ready to begin.",,,3828,,,-1,-1,,,,,1
w838736_clm,yzs7w01038,"BOI Norms",1,11,2021-08-30T14:00:31-07:00,22.025213956833,8,"updated stim.csv",Version33.csv,"Version 33","List 33",cowskin,,983,4.652173913,673,984,BOI,-,-,"Please name all of the ways you could use this object. Keep in mind that one object can have many uses. Separate your responses with a comma.",,y,21493,,,3191,19747,,,,"Clothing, rugs, belts, protection ",1
w838736_clm,yzs7w01038,"BOI Norms",1,12,2021-08-30T14:00:40-07:00,9.7682280540466,8,"updated stim.csv",Version33.csv,"Version 33","List 33",bobsleigh,,972,5.64,258,973,BOI,-,-,"Please name all of the ways you could use this object. Keep in mind that one object can have many uses. Separate your responses with a comma.",,y,8866,,,5073,7844,,,,"To ride in the snow",1
w838736_clm,yzs7w01038,"BOI Norms",1,13,2021-08-30T14:00:48-07:00,7.461375951767,8,"updated stim.csv",Version33.csv,"Version 33","List 33",sage,,984,4.375,2215,985,BOI,-,-,"Please name all of the ways you could use this object. Keep in mind that one object can have many uses. Separate your responses with a comma.",,y,6895,,,2382,4652,,,,"Protection ",1
w838736_clm,yzs7w01038,"BOI Norms",1,14,2021-08-30T14:01:11-07:00,23.428853034973,8,"updated stim.csv",Version33.csv,"Version 33","List 33",fabric,,964,6.08,939,965,BOI,-,-,"Please name all of the ways you could use this object. Keep in mind that one object can have many uses. Separate your responses with a comma.",,y,22266,,,6391,13164,,,,"Clothing, blanket, covering, ",1
w838736_clm,yzs7w01038,"BOI Norms",1,15,2021-08-30T14:01:29-07:00,17.205451965332,8,"updated stim.csv",Version33.csv,"Version 33","List 33",luggage,,971,5.304347826,1556,972,BOI,-,-,"Please name all of the ways you could use this object. Keep in mind that one object can have many uses. Separate your responses with a comma.",,y,16607,,,3635,15103,,,,"To carry clothes, for travel ",1
w838736_clm,yzs7w01038,"BOI Norms",1,16,2021-08-30T14:01:50-07:00,20.995953083038,8,"updated stim.csv",Version33.csv,"Version 33","List 33",film,,962,4.32,976,963,BOI,-,-,"Please name all of the ways you could use this object. Keep in mind that one object can have many uses. Separate your responses with a comma.",,y,19791,,,3041,18555,,,,"Watching, learning, seeing",1
w838736_clm,yzs7w01038,"BOI Norms",1,17,2021-08-30T14:02:06-07:00,16.018385887146,8,"updated stim.csv",Version33.csv,"Version 33","List 33",pajama,,963,5.962962963,1850,964,BOI,-,-,"Please name all of the ways you could use this object. Keep in mind that one object can have many uses. Separate your responses with a comma.",,y,15034,,,2281,14015,,,,"Relaxing, sleeping, lounging ",1
w838736_clm,yzs7w01038,"BOI Norms",1,18,2021-08-30T14:02:19-07:00,13.585890054703,8,"updated stim.csv",Version33.csv,"Version 33","List 33",hairpiece,,985,5.956521739,1215,986,BOI,-,-,"Please name all of the ways you could use this object. Keep in mind that one object can have many uses. Separate your responses with a comma.",,y,12341,,,2994,10955,,,,"Protecting hair, to wear, to show ",1
w838736_clm,yzs7w01038,"BOI Norms",1,19,2021-08-30T14:02:31-07:00,11.526625156403,8,"updated stim.csv",Version33.csv,"Version 33","List 33",mannequin,,982,4.48,1592,983,BOI,-,-,"Please name all of the ways you could use this object. Keep in mind that one object can have many uses. Separate your responses with a comma.",,y,10556,,,2273,9425,,,,"To show, to model ",1
w838736_clm,yzs7w01038,"BOI Norms",1,20,2021-08-30T14:02:46-07:00,14.88072681427,8,"updated stim.csv",Version33.csv,"Version 33","List 33",outlet,,987,4.541666667,1830,988,BOI,-,-,"Please name all of the ways you could use this object. Keep in mind that one object can have many uses. Separate your responses with a comma.",,y,13442,,,5013,12508,,,,"Charging, malls, power ",1
w838736_clm,yzs7w01038,"BOI Norms",1,21,2021-08-30T14:02:51-07:00,5.4760041236877,8,"updated stim.csv",Version33.csv,"Version 33","List 33",cadet,,986,4.291666667,394,987,BOI,-,-,"Please name all of the ways you could use this object. Keep in mind that one object can have many uses. Separate your responses with a comma.",,y,3877,,,2111,2882,,,,Leader,1
w838736_clm,yzs7w01038,"BOI Norms",1,22,2021-08-30T14:03:05-07:00,14.080912828445,8,"updated stim.csv",Version33.csv,"Version 33","List 33",termite,,970,4.32,2666,971,BOI,-,-,"Please name all of the ways you could use this object. Keep in mind that one object can have many uses. Separate your responses with a comma.",,y,13372,,,2401,10858,,,,"Bug, fly, nasty, ",1
w838736_clm,yzs7w01038,"BOI Norms",1,23,2021-08-30T14:03:20-07:00,14.898342132568,8,"updated stim.csv",Version33.csv,"Version 33","List 33",bedroom,,989,5.708333333,187,990,BOI,-,-,"Please name all of the ways you could use this object. Keep in mind that one object can have many uses. Separate your responses with a comma.",,y,13693,,,1992,12525,,,,"Sleeping, cleaning, living, personal space ",1
w838736_clm,yzs7w01038,"BOI Norms",1,24,2021-08-30T14:03:38-07:00,18.198193073273,8,"updated stim.csv",Version33.csv,"Version 33","List 33",buoy,,990,5.125,364,991,BOI,-,-,"Please name all of the ways you could use this object. Keep in mind that one object can have many uses. Separate your responses with a comma.",,y,16526,,,4361,15636,,,,"Indications, location marker ",1
w838736_clm,yzs7w01038,"BOI Norms",1,25,2021-08-30T14:03:53-07:00,14.592479944229,8,"updated stim.csv",Version33.csv,"Version 33","List 33",senorita,,988,4.391304348,2311,989,BOI,-,-,"Please name all of the ways you could use this object. Keep in mind that one object can have many uses. Separate your responses with a comma.",,y,13328,,,2677,11346,,,,"Woman,l",1
w838736_clm,yzs7w01038,"BOI Norms",1,26,2021-08-30T14:04:11-07:00,17.82569694519,8,"updated stim.csv",Version33.csv,"Version 33","List 33",gazebo,,968,5.25,1090,969,BOI,-,-,"Please name all of the ways you could use this object. Keep in mind that one object can have many uses. Separate your responses with a comma.",,y,17098,,,1953,15692,,,,"Shelter, rain protection, sun protection, outdoors ",1
w838736_clm,yzs7w01038,"BOI Norms",1,27,2021-08-30T14:04:30-07:00,19.106838941574,8,"updated stim.csv",Version33.csv,"Version 33","List 33",washcloth,,961,6.192307692,2898,962,BOI,-,-,"Please name all of the ways you could use this object. Keep in mind that one object can have many uses. Separate your responses with a comma.",,y,17382,,,1965,15619,,,,"Cleaning, drying, polishing ",1
w838736_clm,yzs7w01038,"BOI Norms",1,28,2021-08-30T14:04:39-07:00,9.720860004425,8,"updated stim.csv",Version33.csv,"Version 33","List 33",magician,,973,4.5,1571,974,BOI,-,-,"Please name all of the ways you could use this object. Keep in mind that one object can have many uses. Separate your responses with a comma.",,y,9185,,,5498,6766,,,,Magic,1
w838736_clm,yzs7w01038,"BOI Norms",1,29,2021-08-30T14:04:55-07:00,15.771512031555,8,"updated stim.csv",Version33.csv,"Version 33","List 33",sculpture,,977,5.782608696,2292,978,BOI,-,-,"Please name all of the ways you could use this object. Keep in mind that one object can have many uses. Separate your responses with a comma.",,y,15260,,,3470,13220,,,,"Show, Art, history, representation ",1
w838736_clm,yzs7w01038,"BOI Norms",1,30,2021-08-30T14:05:14-07:00,19.071627140045,8,"updated stim.csv",Version33.csv,"Version 33","List 33",handshake,,981,5.636363636,1243,982,BOI,-,-,"Please name all of the ways you could use this object. Keep in mind that one object can have many uses. Separate your responses with a comma.",,y,17590,,,3147,14720,,,,"Friendly, manners, nice gestures ",1
w838736_clm,yzs7w01038,"BOI Norms",1,31,2021-08-30T14:05:24-07:00,9.7181580066681,8,"updated stim.csv",Version33.csv,"Version 33","List 33",appraiser,,980,4.428571429,64,981,BOI,-,-,"Please name all of the ways you could use this object. Keep in mind that one object can have many uses. Separate your responses with a comma.",,y,9222,,,3150,7717,,,,"To find out cost",1
w838736_clm,yzs7w01038,"BOI Norms",1,32,2021-08-30T14:05:50-07:00,25.792768001556,8,"updated stim.csv",Version33.csv,"Version 33","List 33",hose,,969,5.565217391,1318,970,BOI,-,-,"Please name all of the ways you could use this object. Keep in mind that one object can have many uses. Separate your responses with a comma.",,y,25339,,,3320,23957,,,,"Water, to water plants, to water lawn, to connect something ",1
w838736_clm,yzs7w01038,"BOI Norms",1,33,2021-08-30T14:06:00-07:00,9.8099758625031,8,"updated stim.csv",Version33.csv,"Version 33","List 33",straw,,979,6,2560,980,BOI,-,-,"Please name all of the ways you could use this object. Keep in mind that one object can have many uses. Separate your responses with a comma.",,y,9220,,,2231,7052,,,,"Drink from",1
w838736_clm,yzs7w01038,"BOI Norms",1,34,2021-08-30T14:06:20-07:00,20.19512796402,8,"updated stim.csv",Version33.csv,"Version 33","List 33",balloon,,965,5.523809524,130,966,BOI,-,-,"Please name all of the ways you could use this object. Keep in mind that one object can have many uses. Separate your responses with a comma.",,y,19437,,,3723,17690,,,,"Birthday parties, celebrations, gifts",1
w838736_clm,yzs7w01038,"BOI Norms",1,35,2021-08-30T14:06:36-07:00,16.023270130157,8,"updated stim.csv",Version33.csv,"Version 33","List 33",drawing,,966,4.695652174,841,967,BOI,-,-,"Please name all of the ways you could use this object. Keep in mind that one object can have many uses. Separate your responses with a comma.",,y,15497,,,2083,12960,,,,"Expression, time ",1
w838736_clm,yzs7w01038,"BOI Norms",1,36,2021-08-30T14:06:43-07:00,7.4606919288635,8,"updated stim.csv",Version33.csv,"Version 33","List 33",bonbon,,974,4.807692308,265,975,BOI,-,-,"Please name all of the ways you could use this object. Keep in mind that one object can have many uses. Separate your responses with a comma.",,y,5599,,,2961,4605,,,,"Eating ",1
w838736_clm,yzs7w01038,"BOI Norms",1,37,2021-08-30T14:06:56-07:00,12.627732992172,8,"updated stim.csv",Version33.csv,"Version 33","List 33",dime,,978,6.083333333,793,979,BOI,-,-,"Please name all of the ways you could use this object. Keep in mind that one object can have many uses. Separate your responses with a comma.",,y,12131,,,2156,11077,,,,"Make a dollar, payment, to collect ",1
w838736_clm,yzs7w01038,"BOI Norms",1,38,2021-08-30T14:07:18-07:00,22.011855125427,8,"updated stim.csv",Version33.csv,"Version 33","List 33",baseball,,975,6.037037037,157,976,BOI,-,-,"Please name all of the ways you could use this object. Keep in mind that one object can have many uses. Separate your responses with a comma.",,y,20723,,,2131,19716,,,,"Playing, bounce, game ",1
w838736_clm,yzs7w01038,"BOI Norms",1,39,2021-08-30T14:07:35-07:00,17.107370853424,8,"updated stim.csv",Version33.csv,"Version 33","List 33",reindeer,,976,4.5,2153,977,BOI,-,-,"Please name all of the ways you could use this object. Keep in mind that one object can have many uses. Separate your responses with a comma.",,y,16664,,,4559,15526,,,,"Santa sleigh puller",1
w838736_clm,yzs7w01038,"BOI Norms",1,40,2021-08-30T14:07:53-07:00,18.226783037186,8,"updated stim.csv",Version33.csv,"Version 33","List 33",mango,,967,6.24,1588,968,BOI,-,-,"Please name all of the ways you could use this object. Keep in mind that one object can have many uses. Separate your responses with a comma.",,y,17668,,,3244,11044,,,,"To eat, nutritious ",1
w838736_clm,yzs7w01038,"BOI Norms",1,41,2021-08-30T14:07:58-07:00,4.5698709487915,8,"updated stim.csv",Version33.csv,"Version 33","List 33",,,,,,0,Instruct,,,"You will now be asked a few questions about your experience today.",,"Instruct 4",4057,,,-1,-1,,,,,1
