Username,ID,ExperimentName,Session,Trial,Date,TimeDif,"Condition Number","Stimuli File","Order File","Condition Description","Condition Notes",Stimuli*Cue,Stimuli*Answer,Stimuli*Shuffle,"Stimuli*Stimuli Notes",Stimuli*Value,Procedure*Item,"Procedure*Trial Type","Procedure*Max Time","Procedure*Min Time",Procedure*Text,"Procedure*Procedure Notes",Procedure*Shuffle,Response*RT,Response*Response,Response*Accuracy,Response*RTfirst,Response*RTlast,Response*strictAcc,Response*lenientAcc,Response*focus,Response*JOL,Response*Focus
w10059000_cej,1p8yq8if9w,"BOI Norms",1,1,2021-03-11T18:16:03-08:00,11.510614156723,1,"updated stim.csv",Version26.csv,"Version 26","List 26",,,,,,0,Instruct,-,10,"In this section, you will be presented with a series of objects. Please name as many possible uses for this object as you can think of by typing them in the box below each object.",,Instruct1,11312,,,-1,-1,,,,,1
w10059000_cej,1p8yq8if9w,"BOI Norms",1,2,2021-03-11T18:16:35-08:00,32.12974190712,1,"updated stim.csv",Version26.csv,"Version 26","List 26",,,,,,0,Instruct,-,10,"Please keep in mind that a single object will have more than one use. For example, a ball can be thrown or can be bounced or even stepped on. When listing multiple uses for one object, please separate each use with a comma (i.e., thrown, bounced, stepped on)",,Instruct2,11312,,,-1,-1,,,,,1
w10059000_cej,1p8yq8if9w,"BOI Norms",1,3,2021-03-11T18:16:44-08:00,8.6678910255432,1,"updated stim.csv",Version26.csv,"Version 26","List 26",,,,,,0,Instruct,-,-,"Before starting the experiment, you will complete a short practice sesstion. Press ENTER when you are ready to begin.",,Instruct3,8378,,,-1,-1,,,,,1
w10059000_cej,1p8yq8if9w,"BOI Norms",1,4,2021-03-11T18:17:41-08:00,56.98358297348,1,"updated stim.csv",Version26.csv,"Version 26","List 26",paperwork,,3001,5.625,1866,3002,BOI,-,-,"Please name all of the ways you could use this object. Keep in mind that one object can have many uses. Separate your responses with a comma.",,n,56719,,,14801,54941,,,,"organization, to report things, documentation, separate information",1
w10059000_cej,1p8yq8if9w,"BOI Norms",1,5,2021-03-11T18:18:16-08:00,35.521500110626,1,"updated stim.csv",Version26.csv,"Version 26","List 26",spaghetti,,3003,6,2461,3004,BOI,-,-,"Please name all of the ways you could use this object. Keep in mind that one object can have many uses. Separate your responses with a comma.",,n,35307,,,7765,18968,,,,"to eat, to make art",1
w10059000_cej,1p8yq8if9w,"BOI Norms",1,6,2021-03-11T18:18:38-08:00,21.568281888962,1,"updated stim.csv",Version26.csv,"Version 26","List 26",shortening,,3002,4.92,2358,3003,BOI,-,-,"Please name all of the ways you could use this object. Keep in mind that one object can have many uses. Separate your responses with a comma.",,n,21336,,,5761,19782,,,,"baking, making bread",1
w10059000_cej,1p8yq8if9w,"BOI Norms",1,7,2021-03-11T18:19:30-08:00,52.527729988098,1,"updated stim.csv",Version26.csv,"Version 26","List 26",grain,,3004,5.217391304,1143,3005,BOI,-,-,"Please name all of the ways you could use this object. Keep in mind that one object can have many uses. Separate your responses with a comma.",,n,52267,,,2418,48688,,,,"making bread, making food, eating",1
w10059000_cej,1p8yq8if9w,"BOI Norms",1,8,2021-03-11T18:20:13-08:00,42.137552976608,1,"updated stim.csv",Version26.csv,"Version 26","List 26",saucer,,3005,5.777777778,2249,3006,BOI,-,-,"Please name all of the ways you could use this object. Keep in mind that one object can have many uses. Separate your responses with a comma.",,n,41877,,,2811,30175,,,,"to put food on",1
w10059000_cej,1p8yq8if9w,"BOI Norms",1,9,2021-03-11T18:20:15-08:00,2.6176240444183,1,"updated stim.csv",Version26.csv,"Version 26","List 26",,,,,,0,Instruct,-,-,"You have completed this section. Press ENTER to continue",,"Instruct 5",2380,,,-1,-1,,,,,1
w10059000_cej,1p8yq8if9w,"BOI Norms",1,10,2021-03-11T18:20:19-08:00,3.7438659667969,1,"updated stim.csv",Version26.csv,"Version 26","List 26",,,,,,0,Instruct,-,-,"You will now start the full experiment. Press ENTER when you are ready to begin.",,,3533,,,-1,-1,,,,,1
w10059000_cej,1p8yq8if9w,"BOI Norms",1,11,2021-03-11T18:20:52-08:00,32.995926141739,1,"updated stim.csv",Version26.csv,"Version 26","List 26",prisoner,,753,4.307692308,2067,754,BOI,-,-,"Please name all of the ways you could use this object. Keep in mind that one object can have many uses. Separate your responses with a comma.",,y,32779,,,6854,30885,,,,"manual labor, fill a prison",1
w10059000_cej,1p8yq8if9w,"BOI Norms",1,12,2021-03-11T18:21:40-08:00,48.186342000961,1,"updated stim.csv",Version26.csv,"Version 26","List 26",merchantman,,773,4.5,1649,774,BOI,-,-,"Please name all of the ways you could use this object. Keep in mind that one object can have many uses. Separate your responses with a comma.",,y,47699,,,5165,45636,,,,"to buy things from, to make things with, to talk to, get directions around a market",1
w10059000_cej,1p8yq8if9w,"BOI Norms",1,13,2021-03-11T18:22:45-08:00,65.033447980881,1,"updated stim.csv",Version26.csv,"Version 26","List 26",poster,,764,5.583333333,2043,765,BOI,-,-,"Please name all of the ways you could use this object. Keep in mind that one object can have many uses. Separate your responses with a comma.",,y,64744,,,7866,63226,,,,"spread information, to draw on, to sell and make money, to decorate, to cover a hole in the wall, to give as a present",1
w10059000_cej,1p8yq8if9w,"BOI Norms",1,14,2021-03-11T18:23:23-08:00,37.557018995285,1,"updated stim.csv",Version26.csv,"Version 26","List 26",beverage,,771,6.208333333,206,772,BOI,-,-,"Please name all of the ways you could use this object. Keep in mind that one object can have many uses. Separate your responses with a comma.",,y,37269,,,1896,34148,,,,"to drink, to give to someone, to pour on someone or something",1
w10059000_cej,1p8yq8if9w,"BOI Norms",1,15,2021-03-11T18:25:21-08:00,118.79280495644,1,"updated stim.csv",Version26.csv,"Version 26","List 26",paratrooper,,767,4.291666667,1872,768,BOI,-,-,"Please name all of the ways you could use this object. Keep in mind that one object can have many uses. Separate your responses with a comma.",,y,118425,,,10445,116355,,,,"to learn how to jump out of a plane, to save people",1
w10059000_cej,1p8yq8if9w,"BOI Norms",1,16,2021-03-11T18:25:44-08:00,22.926518917084,1,"updated stim.csv",Version26.csv,"Version 26","List 26",caretaker,,770,5.071428571,433,771,BOI,-,-,"Please name all of the ways you could use this object. Keep in mind that one object can have many uses. Separate your responses with a comma.",,y,22696,,,2730,19304,,,,"to help people, to do things",1
w10059000_cej,1p8yq8if9w,"BOI Norms",1,17,2021-03-11T18:27:32-08:00,107.11176013947,1,"updated stim.csv",Version26.csv,"Version 26","List 26",steelworker,,778,4.44,2518,779,BOI,-,-,"Please name all of the ways you could use this object. Keep in mind that one object can have many uses. Separate your responses with a comma.",,y,106849,,,60897,71136,,,,"to shape steel, to fix things",1
w10059000_cej,1p8yq8if9w,"BOI Norms",1,18,2021-03-11T18:27:51-08:00,19.859752893448,1,"updated stim.csv",Version26.csv,"Version 26","List 26",pincushion,,757,5.260869565,1969,758,BOI,-,-,"Please name all of the ways you could use this object. Keep in mind that one object can have many uses. Separate your responses with a comma.",,y,19637,,,2108,15877,,,,"to put pins in, to help me sew",1
w10059000_cej,1p8yq8if9w,"BOI Norms",1,19,2021-03-11T18:28:03-08:00,11.269103050232,1,"updated stim.csv",Version26.csv,"Version 26","List 26",thumbscrew,,760,5.173913043,2689,761,BOI,-,-,"Please name all of the ways you could use this object. Keep in mind that one object can have many uses. Separate your responses with a comma.",,y,11054,,,5748,9529,,,,"screw things",1
w10059000_cej,1p8yq8if9w,"BOI Norms",1,20,2021-03-11T18:28:35-08:00,32.096051931381,1,"updated stim.csv",Version26.csv,"Version 26","List 26",crepe,,756,5.416666667,692,757,BOI,-,-,,,y,11054,,,5748,9529,,,,"screw things",1
w10059000_cej,1p8yq8if9w,"BOI Norms",1,21,2021-03-11T18:29:20-08:00,44.872648000717,1,"updated stim.csv",Version26.csv,"Version 26","List 26",lamb,,769,4.444444444,1453,770,BOI,-,-,"Please name all of the ways you could use this object. Keep in mind that one object can have many uses. Separate your responses with a comma.",,y,44609,,,3316,41272,,,,"to get wool",1
w10059000_cej,1p8yq8if9w,"BOI Norms",1,22,2021-03-11T18:29:46-08:00,26.802690982819,1,"updated stim.csv",Version26.csv,"Version 26","List 26",powder,,758,5.416666667,2054,759,BOI,-,-,"Please name all of the ways you could use this object. Keep in mind that one object can have many uses. Separate your responses with a comma.",,y,26580,,,9284,24796,,,,"to use as makeup, to play with",1
w10059000_cej,1p8yq8if9w,"BOI Norms",1,23,2021-03-11T18:30:20-08:00,33.571362018585,1,"updated stim.csv",Version26.csv,"Version 26","List 26",sauce,,754,5.130434783,2247,755,BOI,-,-,"Please name all of the ways you could use this object. Keep in mind that one object can have many uses. Separate your responses with a comma.",,y,33354,,,2686,27860,,,,"to make things taste better, to eat, to put on noodles",1
w10059000_cej,1p8yq8if9w,"BOI Norms",1,24,2021-03-11T18:31:07-08:00,47.102682113647,1,"updated stim.csv",Version26.csv,"Version 26","List 26",tracksuit,,766,5.653846154,2752,767,BOI,-,-,"Please name all of the ways you could use this object. Keep in mind that one object can have many uses. Separate your responses with a comma.",,y,46846,,,1770,46197,,,,"to wear, to provide warmth ",1
w10059000_cej,1p8yq8if9w,"BOI Norms",1,25,2021-03-11T18:31:24-08:00,16.653424978256,1,"updated stim.csv",Version26.csv,"Version 26","List 26",pal,,765,4.333333333,1852,766,BOI,-,-,"Please name all of the ways you could use this object. Keep in mind that one object can have many uses. Separate your responses with a comma.",,y,16436,,,2847,14402,,,,"to talk to, to hang out with",1
w10059000_cej,1p8yq8if9w,"BOI Norms",1,26,2021-03-11T18:31:49-08:00,25.110933065414,1,"updated stim.csv",Version26.csv,"Version 26","List 26",citrus,,762,4.6,544,763,BOI,-,-,"Please name all of the ways you could use this object. Keep in mind that one object can have many uses. Separate your responses with a comma.",,y,24876,,,4888,22344,,,,"to eat, to make things taste better, to make things sour",1
w10059000_cej,1p8yq8if9w,"BOI Norms",1,27,2021-03-11T18:32:23-08:00,34.242483854294,1,"updated stim.csv",Version26.csv,"Version 26","List 26",head,,780,5.48,1263,781,BOI,-,-,"Please name all of the ways you could use this object. Keep in mind that one object can have many uses. Separate your responses with a comma.",,y,34025,,,21171,32264,,,,"to think, to hold your brain",1
w10059000_cej,1p8yq8if9w,"BOI Norms",1,28,2021-03-11T18:32:43-08:00,19.908370018005,1,"updated stim.csv",Version26.csv,"Version 26","List 26",snot,,761,5.32,2429,762,BOI,-,-,"Please name all of the ways you could use this object. Keep in mind that one object can have many uses. Separate your responses with a comma.",,y,19682,,,5826,18202,,,,"to gross out other people",1
w10059000_cej,1p8yq8if9w,"BOI Norms",1,29,2021-03-11T18:33:37-08:00,53.57176399231,1,"updated stim.csv",Version26.csv,"Version 26","List 26",revolver,,775,5.555555556,2161,776,BOI,-,-,"Please name all of the ways you could use this object. Keep in mind that one object can have many uses. Separate your responses with a comma.",,y,53307,,,1739,51670,,,,"to shoot things, to protect yourself, to protect other people, for target practice",1
w10059000_cej,1p8yq8if9w,"BOI Norms",1,30,2021-03-11T18:33:57-08:00,20.44647192955,1,"updated stim.csv",Version26.csv,"Version 26","List 26",insect,,777,5.125,1357,778,BOI,-,-,"Please name all of the ways you could use this object. Keep in mind that one object can have many uses. Separate your responses with a comma.",,y,20223,,,3817,18439,,,,"to learn about, to freak out your friends",1
w10059000_cej,1p8yq8if9w,"BOI Norms",1,31,2021-03-11T18:34:08-08:00,11.211500167847,1,"updated stim.csv",Version26.csv,"Version 26","List 26",rucksack,,755,5.041666667,2203,756,BOI,-,-,"Please name all of the ways you could use this object. Keep in mind that one object can have many uses. Separate your responses with a comma.",,y,10986,,,1829,9157,,,,"to hold things you need",1
w10059000_cej,1p8yq8if9w,"BOI Norms",1,32,2021-03-11T18:34:36-08:00,27.808137893677,1,"updated stim.csv",Version26.csv,"Version 26","List 26",mat,,772,5.814814815,1619,773,BOI,-,-,"Please name all of the ways you could use this object. Keep in mind that one object can have many uses. Separate your responses with a comma.",,y,27568,,,1643,26022,,,,"to lay on, to sleep on, to workout on, as cushion",1
w10059000_cej,1p8yq8if9w,"BOI Norms",1,33,2021-03-11T18:34:59-08:00,22.754269123077,1,"updated stim.csv",Version26.csv,"Version 26","List 26",mistletoe,,774,4.592592593,1668,775,BOI,-,-,"Please name all of the ways you could use this object. Keep in mind that one object can have many uses. Separate your responses with a comma.",,y,22524,,,1868,22145,,,,"to make people kiss under, to kiss under, as decoration ",1
w10059000_cej,1p8yq8if9w,"BOI Norms",1,34,2021-03-11T18:35:10-08:00,11.68518781662,1,"updated stim.csv",Version26.csv,"Version 26","List 26",slug,,751,4.434782609,2418,752,BOI,-,-,"Please name all of the ways you could use this object. Keep in mind that one object can have many uses. Separate your responses with a comma.",,y,11441,,,5047,9992,,,,"to look at",1
w10059000_cej,1p8yq8if9w,"BOI Norms",1,35,2021-03-11T18:35:43-08:00,32.087270021439,1,"updated stim.csv",Version26.csv,"Version 26","List 26",magazine,,752,6.166666667,1569,753,BOI,-,-,,,y,11441,,,5047,9992,,,,"to look at",1
w10059000_cej,1p8yq8if9w,"BOI Norms",1,36,2021-03-11T18:36:31-08:00,48.425888061523,1,"updated stim.csv",Version26.csv,"Version 26","List 26",weapon,,763,5.52173913,2914,764,BOI,-,-,"Please name all of the ways you could use this object. Keep in mind that one object can have many uses. Separate your responses with a comma.",,y,48154,,,11731,44475,,,,"to protect yourself and others, to hurt people and things, top break or damage things",1
w10059000_cej,1p8yq8if9w,"BOI Norms",1,37,2021-03-11T18:37:09-08:00,37.581002950668,1,"updated stim.csv",Version26.csv,"Version 26","List 26",hatchet,,779,5.791666667,1261,780,BOI,-,-,"Please name all of the ways you could use this object. Keep in mind that one object can have many uses. Separate your responses with a comma.",,y,37352,,,23269,35213,,,,"to cut things, to cut down trees",1
w10059000_cej,1p8yq8if9w,"BOI Norms",1,38,2021-03-11T18:37:36-08:00,27.360466957092,1,"updated stim.csv",Version26.csv,"Version 26","List 26",roast,,759,4.821428571,2179,760,BOI,-,-,"Please name all of the ways you could use this object. Keep in mind that one object can have many uses. Separate your responses with a comma.",,y,27146,,,7116,21358,,,,"to eat",1
w10059000_cej,1p8yq8if9w,"BOI Norms",1,39,2021-03-11T18:38:02-08:00,25.832799196243,1,"updated stim.csv",Version26.csv,"Version 26","List 26",marble,,776,5.48,1602,777,BOI,-,-,"Please name all of the ways you could use this object. Keep in mind that one object can have many uses. Separate your responses with a comma.",,y,25619,,,2448,24002,,,,"to roll, to play a game, to use as a counter top",1
w10059000_cej,1p8yq8if9w,"BOI Norms",1,40,2021-03-11T18:38:39-08:00,37.410547971725,1,"updated stim.csv",Version26.csv,"Version 26","List 26",wallet,,768,6.136363636,2888,769,BOI,-,-,"Please name all of the ways you could use this object. Keep in mind that one object can have many uses. Separate your responses with a comma.",,y,37194,,,1423,28427,,,,"to hold money in, to hold cards, to hold receipts ",1
w10059000_cej,1p8yq8if9w,"BOI Norms",1,41,2021-03-11T18:38:42-08:00,2.8210799694061,1,"updated stim.csv",Version26.csv,"Version 26","List 26",,,,,,0,Instruct,,,"You will now be asked a few questions about your experience today.",,"Instruct 4",2601,,,-1,-1,,,,,1
