Username,ID,ExperimentName,Session,Trial,Date,TimeDif,"Condition Number","Stimuli File","Order File","Condition Description","Condition Notes",Stimuli*Cue,Stimuli*Answer,Stimuli*Shuffle,"Stimuli*Stimuli Notes",Stimuli*Value,Procedure*Item,"Procedure*Trial Type","Procedure*Max Time","Procedure*Min Time",Procedure*Text,"Procedure*Procedure Notes",Procedure*Shuffle,Response*RT,Response*Response,Response*Accuracy,Response*RTfirst,Response*RTlast,Response*strictAcc,Response*lenientAcc,Response*focus,Response*JOL,Response*Focus
w10017290AC,xdrpvkfq6n,"BOI Norms",1,1,2021-01-15T10:34:08-08:00,10.826882123947,9,"updated stim.csv",Version84.csv,"Version 84","List 84",,,,,,0,Instruct,-,10,"In this section, you will be presented with a series of objects. Please name as many possible uses for this object as you can think of by typing them in the box below each object.",,Instruct1,10391,,,-1,-1,,,,,1
w10017290AC,xdrpvkfq6n,"BOI Norms",1,2,2021-01-15T10:34:21-08:00,13.54695892334,9,"updated stim.csv",Version84.csv,"Version 84","List 84",,,,,,0,Instruct,-,10,"Please keep in mind that a single object will have more than one use. For example, a ball can be thrown or can be bounced or even stepped on. When listing multiple uses for one object, please separate each use with a comma (i.e., thrown, bounced, stepped on)",,Instruct2,12751,,,-1,-1,,,,,1
w10017290AC,xdrpvkfq6n,"BOI Norms",1,3,2021-01-15T10:34:26-08:00,5.1221859455109,9,"updated stim.csv",Version84.csv,"Version 84","List 84",,,,,,0,Instruct,-,-,"Before starting the experiment, you will complete a short practice sesstion. Press ENTER when you are ready to begin.",,Instruct3,4571,,,-1,-1,,,,,1
w10017290AC,xdrpvkfq6n,"BOI Norms",1,4,2021-01-15T10:35:04-08:00,37.565464019775,9,"updated stim.csv",Version84.csv,"Version 84","List 84",saucer,,3005,5.777777778,2249,3006,BOI,-,-,"Please name all of the ways you could use this object. Keep in mind that one object can have many uses. Separate your responses with a comma.",,n,36951,,,3818,26285,,,,"serve dinner on, thrown, alien space craft, ",1
w10017290AC,xdrpvkfq6n,"BOI Norms",1,5,2021-01-15T10:35:35-08:00,31.476114988327,9,"updated stim.csv",Version84.csv,"Version 84","List 84",spaghetti,,3003,6,2461,3004,BOI,-,-,"Please name all of the ways you could use this object. Keep in mind that one object can have many uses. Separate your responses with a comma.",,n,29487,,,2737,27463,,,,"eaten, served, used as a bribe",1
w10017290AC,xdrpvkfq6n,"BOI Norms",1,6,2021-01-15T10:37:16-08:00,100.89552211761,9,"updated stim.csv",Version84.csv,"Version 84","List 84",shortening,,3002,4.92,2358,3003,BOI,-,-,"Please name all of the ways you could use this object. Keep in mind that one object can have many uses. Separate your responses with a comma.",,n,100125,,,47029,78471,,,,"baking, frying, lubricant",1
w10017290AC,xdrpvkfq6n,"BOI Norms",1,7,2021-01-15T10:38:19-08:00,62.466681003571,9,"updated stim.csv",Version84.csv,"Version 84","List 84",grain,,3004,5.217391304,1143,3005,BOI,-,-,"Please name all of the ways you could use this object. Keep in mind that one object can have many uses. Separate your responses with a comma.",,n,61734,,,3254,14992,,,,"ground, baked, weight, ",1
w10017290AC,xdrpvkfq6n,"BOI Norms",1,8,2021-01-15T10:39:14-08:00,54.688866853714,9,"updated stim.csv",Version84.csv,"Version 84","List 84",paperwork,,3001,5.625,1866,3002,BOI,-,-,"Please name all of the ways you could use this object. Keep in mind that one object can have many uses. Separate your responses with a comma.",,n,53949,,,6578,25802,,,,"paper airplanes, kindling, decorations, ",1
w10017290AC,xdrpvkfq6n,"BOI Norms",1,9,2021-01-15T10:39:19-08:00,5.7573721408844,9,"updated stim.csv",Version84.csv,"Version 84","List 84",,,,,,0,Instruct,-,-,"You have completed this section. Press ENTER to continue",,"Instruct 5",5191,,,-1,-1,,,,,1
w10017290AC,xdrpvkfq6n,"BOI Norms",1,10,2021-01-15T10:39:23-08:00,3.9724259376526,9,"updated stim.csv",Version84.csv,"Version 84","List 84",,,,,,0,Instruct,-,-,"You will now start the full experiment. Press ENTER when you are ready to begin.",,,3395,,,-1,-1,,,,,1
w10017290AC,xdrpvkfq6n,"BOI Norms",1,11,2021-01-15T10:41:48-08:00,144.57122802734,9,"updated stim.csv",Version84.csv,"Version 84","List 84",woodpile,,2508,5,2962,2509,BOI,-,-,"Please name all of the ways you could use this object. Keep in mind that one object can have many uses. Separate your responses with a comma.",,y,143687,,,106211,131579,,,,"fire wood, timber, toys, fence, house, ",1
w10017290AC,xdrpvkfq6n,"BOI Norms",1,12,2021-01-15T10:42:33-08:00,44.759149074554,9,"updated stim.csv",Version84.csv,"Version 84","List 84",feather,,2517,5.260869565,956,2518,BOI,-,-,"Please name all of the ways you could use this object. Keep in mind that one object can have many uses. Separate your responses with a comma.",,y,44152,,,2186,33289,,,,"pen, sex toy, decoration, pillow stuffer, mattress stuffer",1
w10017290AC,xdrpvkfq6n,"BOI Norms",1,13,2021-01-15T10:43:21-08:00,48.152490854263,9,"updated stim.csv",Version84.csv,"Version 84","List 84",foliage,,2511,4.6,1025,2512,BOI,-,-,"Please name all of the ways you could use this object. Keep in mind that one object can have many uses. Separate your responses with a comma.",,y,47427,,,8348,37717,,,,"insulation, bedding, kindling, camoflodge,",1
w10017290AC,xdrpvkfq6n,"BOI Norms",1,14,2021-01-15T10:44:51-08:00,90.074744939804,9,"updated stim.csv",Version84.csv,"Version 84","List 84",earthworm,,2495,4.916666667,883,2496,BOI,-,-,"Please name all of the ways you could use this object. Keep in mind that one object can have many uses. Separate your responses with a comma.",,y,89200,,,3465,58884,,,,"protein, fertilizing agent for crops",1
w10017290AC,xdrpvkfq6n,"BOI Norms",1,15,2021-01-15T10:45:18-08:00,27.64090514183,9,"updated stim.csv",Version84.csv,"Version 84","List 84",microwave,,2519,5.28,1656,2520,BOI,-,-,"Please name all of the ways you could use this object. Keep in mind that one object can have many uses. Separate your responses with a comma.",,y,26990,,,11096,25425,,,,"warmer, rotisserie ",1
w10017290AC,xdrpvkfq6n,"BOI Norms",1,16,2021-01-15T10:45:45-08:00,26.232918977737,9,"updated stim.csv",Version84.csv,"Version 84","List 84",shamrock,,2507,4.5,2321,2508,BOI,-,-,"Please name all of the ways you could use this object. Keep in mind that one object can have many uses. Separate your responses with a comma.",,y,25467,,,3507,16027,,,,"good luck charm, lucky charms logo, ",1
w10017290AC,xdrpvkfq6n,"BOI Norms",1,17,2021-01-15T10:47:28-08:00,103.52088999748,9,"updated stim.csv",Version84.csv,"Version 84","List 84",lifeguard,,2520,4.96,1506,2521,BOI,-,-,"Please name all of the ways you could use this object. Keep in mind that one object can have many uses. Separate your responses with a comma.",,y,102570,,,5303,100410,,,,"professional swimmer, life saver, look out, cpr certified ",1
w10017290AC,xdrpvkfq6n,"BOI Norms",1,18,2021-01-15T10:48:50-08:00,81.549246072769,9,"updated stim.csv",Version84.csv,"Version 84","List 84",plank,,2516,4.92,1987,2517,BOI,-,-,"Please name all of the ways you could use this object. Keep in mind that one object can have many uses. Separate your responses with a comma.",,y,80688,,,4126,29216,,,,"toy, arched plane for lifting, flooring, ",1
w10017290AC,xdrpvkfq6n,"BOI Norms",1,19,2021-01-15T10:57:03-08:00,493.18427181244,9,"updated stim.csv",Version84.csv,"Version 84","List 84",toothpick,,2494,6.375,2734,2495,BOI,-,-,"Please name all of the ways you could use this object. Keep in mind that one object can have many uses. Separate your responses with a comma.",,y,492401,,,387705,454644,,,,"orderv server, tooth cleaner",1
w10017290AC,xdrpvkfq6n,"BOI Norms",1,20,2021-01-15T10:57:16-08:00,12.892886161804,9,"updated stim.csv",Version84.csv,"Version 84","List 84",whirlpool,,2501,4.565217391,2926,2502,BOI,-,-,"Please name all of the ways you could use this object. Keep in mind that one object can have many uses. Separate your responses with a comma.",,y,11822,,,9832,10571,,,,trap,1
w10017290AC,xdrpvkfq6n,"BOI Norms",1,21,2021-01-15T10:57:40-08:00,24.18154001236,9,"updated stim.csv",Version84.csv,"Version 84","List 84",ecologist,,2493,4.458333333,887,2494,BOI,-,-,"Please name all of the ways you could use this object. Keep in mind that one object can have many uses. Separate your responses with a comma.",,y,23158,,,5753,17399,,,,"humanitarian, animal rights activist",1
w10017290AC,xdrpvkfq6n,"BOI Norms",1,22,2021-01-15T11:03:54-08:00,373.7649140358,9,"updated stim.csv",Version84.csv,"Version 84","List 84",file,,2502,5.041666667,974,2503,BOI,-,-,"Please name all of the ways you could use this object. Keep in mind that one object can have many uses. Separate your responses with a comma.",,y,372797,,,219933,286135,,,,"organization, separation, ",1
w10017290AC,xdrpvkfq6n,"BOI Norms",1,23,2021-01-15T11:03:57-08:00,3.5947518348694,9,"updated stim.csv",Version84.csv,"Version 84","List 84",drum,,2497,5.8,854,2498,BOI,-,-,"Please name all of the ways you could use this object. Keep in mind that one object can have many uses. Separate your responses with a comma.",,y,2922,,,-1,-1,,,,,1
w10017290AC,xdrpvkfq6n,"BOI Norms",1,24,2021-01-15T11:04:18-08:00,20.582618951797,9,"updated stim.csv",Version84.csv,"Version 84","List 84",strudel,,2505,5.666666667,2572,2506,BOI,-,-,"Please name all of the ways you could use this object. Keep in mind that one object can have many uses. Separate your responses with a comma.",,y,20047,,,206,18299,,,,"food, fun word to say",1
w10017290AC,xdrpvkfq6n,"BOI Norms",1,25,2021-01-15T11:05:57-08:00,98.615038156509,9,"updated stim.csv",Version84.csv,"Version 84","List 84",virgin,,2500,4.448275862,2867,2501,BOI,-,-,"Please name all of the ways you could use this object. Keep in mind that one object can have many uses. Separate your responses with a comma.",,y,97444,,,17734,86833,,,,"considered pure sacrifice, clean, ",1
w10017290AC,xdrpvkfq6n,"BOI Norms",1,26,2021-01-15T11:07:25-08:00,88.291406869888,9,"updated stim.csv",Version84.csv,"Version 84","List 84",lamplighter,,2514,4.263157895,1457,2515,BOI,-,-,"Please name all of the ways you could use this object. Keep in mind that one object can have many uses. Separate your responses with a comma.",,y,87424,,,5098,77995,,,,"torch, bonfire lighter, arson enabler",1
w10017290AC,xdrpvkfq6n,"BOI Norms",1,27,2021-01-15T11:09:00-08:00,95.106082201004,9,"updated stim.csv",Version84.csv,"Version 84","List 84",coffin,,2498,5.52,594,2499,BOI,-,-,"Please name all of the ways you could use this object. Keep in mind that one object can have many uses. Separate your responses with a comma.",,y,94300,,,6554,92082,,,,"dead bed, biological disposal container",1
w10017290AC,xdrpvkfq6n,"BOI Norms",1,28,2021-01-15T11:09:32-08:00,32.419334888458,9,"updated stim.csv",Version84.csv,"Version 84","List 84",drapery,,2506,4.68,838,2507,BOI,-,-,"Please name all of the ways you could use this object. Keep in mind that one object can have many uses. Separate your responses with a comma.",,y,31747,,,3075,29069,,,,"blanket, shield, weapon, insulation,",1
w10017290AC,xdrpvkfq6n,"BOI Norms",1,29,2021-01-15T11:14:07-08:00,274.62628698349,9,"updated stim.csv",Version84.csv,"Version 84","List 84",bait,,2503,4.375,125,2504,BOI,-,-,"Please name all of the ways you could use this object. Keep in mind that one object can have many uses. Separate your responses with a comma.",,y,273057,,,2885,270979,,,,"trap, luring agent, food",1
w10017290AC,xdrpvkfq6n,"BOI Norms",1,30,2021-01-15T11:15:32-08:00,85.166996955872,9,"updated stim.csv",Version84.csv,"Version 84","List 84",men,,2509,5.72,1644,2510,BOI,-,-,"Please name all of the ways you could use this object. Keep in mind that one object can have many uses. Separate your responses with a comma.",,y,84279,,,4810,81348,,,,"protection, strength, ",1
w10017290AC,xdrpvkfq6n,"BOI Norms",1,31,2021-01-15T11:15:46-08:00,13.609735012054,9,"updated stim.csv",Version84.csv,"Version 84","List 84",grocery,,2512,5.068965517,1179,2513,BOI,-,-,"Please name all of the ways you could use this object. Keep in mind that one object can have many uses. Separate your responses with a comma.",,y,12955,,,2190,11579,,,,"life provider, sustenance",1
w10017290AC,xdrpvkfq6n,"BOI Norms",1,32,2021-01-15T11:17:18-08:00,92.423835992813,9,"updated stim.csv",Version84.csv,"Version 84","List 84",flycatcher,,2491,5.375,1020,2492,BOI,-,-,"Please name all of the ways you could use this object. Keep in mind that one object can have many uses. Separate your responses with a comma.",,y,91709,,,87368,90259,,,,"pest control",1
w10017290AC,xdrpvkfq6n,"BOI Norms",1,33,2021-01-15T11:19:42-08:00,143.43857502937,9,"updated stim.csv",Version84.csv,"Version 84","List 84",lamp,,2515,6.083333333,1455,2516,BOI,-,-,"Please name all of the ways you could use this object. Keep in mind that one object can have many uses. Separate your responses with a comma.",,y,142518,,,2001,3730,,,,"light, ",1
w10017290AC,xdrpvkfq6n,"BOI Norms",1,34,2021-01-15T11:19:46-08:00,4.2163519859314,9,"updated stim.csv",Version84.csv,"Version 84","List 84",spade,,2496,4.4,2460,2497,BOI,-,-,"Please name all of the ways you could use this object. Keep in mind that one object can have many uses. Separate your responses with a comma.",,y,3585,,,-1,-1,,,,,1
w10017290AC,xdrpvkfq6n,"BOI Norms",1,35,2021-01-15T11:19:59-08:00,12.798851966858,9,"updated stim.csv",Version84.csv,"Version 84","List 84",storehouse,,2504,4.5,2551,2505,BOI,-,-,"Please name all of the ways you could use this object. Keep in mind that one object can have many uses. Separate your responses with a comma.",,y,12287,,,2766,10579,,,,"shelter, hiding spot, ",1
w10017290AC,xdrpvkfq6n,"BOI Norms",1,36,2021-01-15T11:21:17-08:00,78.013116121292,9,"updated stim.csv",Version84.csv,"Version 84","List 84",chain,,2499,5.958333333,484,2500,BOI,-,-,"Please name all of the ways you could use this object. Keep in mind that one object can have many uses. Separate your responses with a comma.",,y,77143,,,1707,9223,,,,"bondage, toy, pully",1
w10017290AC,xdrpvkfq6n,"BOI Norms",1,37,2021-01-15T11:59:43-08:00,2305.8655810356,9,"updated stim.csv",Version84.csv,"Version 84","List 84",board,,2518,4.48,253,2519,BOI,-,-,"Please name all of the ways you could use this object. Keep in mind that one object can have many uses. Separate your responses with a comma.",,y,2304804,,,1892788,2303003,,,,"building supply, toy, patching agent, cat toy",1
w10017290AC,xdrpvkfq6n,"BOI Norms",1,38,2021-01-15T11:59:49-08:00,6.0306258201599,9,"updated stim.csv",Version84.csv,"Version 84","List 84",hatchback,,2513,4.818181818,1260,2514,BOI,-,-,"Please name all of the ways you could use this object. Keep in mind that one object can have many uses. Separate your responses with a comma.",,y,5150,,,3606,3606,,,,?,1
w10017290AC,xdrpvkfq6n,"BOI Norms",1,39,2021-01-15T12:00:04-08:00,15.473482131958,9,"updated stim.csv",Version84.csv,"Version 84","List 84",insole,,2510,4.454545455,1358,2511,BOI,-,-,"Please name all of the ways you could use this object. Keep in mind that one object can have many uses. Separate your responses with a comma.",,y,15098,,,4346,10371,,,,"bandage, support",1
w10017290AC,xdrpvkfq6n,"BOI Norms",1,40,2021-01-15T12:01:31-08:00,86.833370923996,9,"updated stim.csv",Version84.csv,"Version 84","List 84",lever,,2492,5.038461538,1498,2493,BOI,-,-,"Please name all of the ways you could use this object. Keep in mind that one object can have many uses. Separate your responses with a comma.",,y,86128,,,75746,84703,,,,"lock, pully system,",1
w10017290AC,xdrpvkfq6n,"BOI Norms",1,41,2021-01-15T12:02:33-08:00,62.262453079224,9,"updated stim.csv",Version84.csv,"Version 84","List 84",,,,,,0,Instruct,,,"You will now be asked a few questions about your experience today.",,"Instruct 4",61483,,,-1,-1,,,,,1
