Username,ID,ExperimentName,Session,Trial,Date,TimeDif,"Condition Number","Stimuli File","Order File","Condition Description","Condition Notes",Stimuli*Cue,Stimuli*Answer,Stimuli*Shuffle,"Stimuli*Stimuli Notes",Stimuli*Value,Procedure*Item,"Procedure*Trial Type","Procedure*Max Time","Procedure*Min Time",Procedure*Text,"Procedure*Procedure Notes",Procedure*Shuffle,Response*RT,Response*Response,Response*Accuracy,Response*RTfirst,Response*RTlast,Response*strictAcc,Response*lenientAcc,Response*focus,Response*JOL,Response*Focus
slade.wilksSw,62z4fjduy7,"BOI Norms",1,1,2020-10-15T16:18:03-07:00,11.207783937454,13,"updated stim.csv",Version63.csv,"Version 63","List 63",,,,,,0,Instruct,-,10,"In this section, you will be presented with a series of objects. Please name as many possible uses for this object as you can think of by typing them in the box below each object.",,Instruct1,10980,,,-1,-1,,,,,1
slade.wilksSw,62z4fjduy7,"BOI Norms",1,2,2020-10-15T16:18:14-07:00,10.894990921021,13,"updated stim.csv",Version63.csv,"Version 63","List 63",,,,,,0,Instruct,-,10,"Please keep in mind that a single object will have more than one use. For example, a ball can be thrown or can be bounced or even stepped on. When listing multiple uses for one object, please separate each use with a comma (i.e., thrown, bounced, stepped on)",,Instruct2,10652,,,-1,-1,,,,,1
slade.wilksSw,62z4fjduy7,"BOI Norms",1,3,2020-10-15T16:18:16-07:00,2.248281955719,13,"updated stim.csv",Version63.csv,"Version 63","List 63",,,,,,0,Instruct,-,-,"Before starting the experiment, you will complete a short practice sesstion. Press ENTER when you are ready to begin.",,Instruct3,1998,,,-1,-1,,,,,1
slade.wilksSw,62z4fjduy7,"BOI Norms",1,4,2020-10-15T16:19:12-07:00,55.884672164917,13,"updated stim.csv",Version63.csv,"Version 63","List 63",saucer,,3005,5.777777778,2249,3006,BOI,-,-,"Please name all of the ways you could use this object. Keep in mind that one object can have many uses. Separate your responses with a comma.",,n,55554,,,2658,54351,,,,"A flying saucer that aliens use, saucer for dips, cleam the saucer",1
slade.wilksSw,62z4fjduy7,"BOI Norms",1,5,2020-10-15T16:19:41-07:00,29.37300992012,13,"updated stim.csv",Version63.csv,"Version 63","List 63",spaghetti,,3003,6,2461,3004,BOI,-,-,"Please name all of the ways you could use this object. Keep in mind that one object can have many uses. Separate your responses with a comma.",,n,29151,,,2189,27942,,,,"eat the spaghetti, drink the spaghetti",1
slade.wilksSw,62z4fjduy7,"BOI Norms",1,6,2020-10-15T16:20:23-07:00,42.199732065201,13,"updated stim.csv",Version63.csv,"Version 63","List 63",shortening,,3002,4.92,2358,3003,BOI,-,-,"Please name all of the ways you could use this object. Keep in mind that one object can have many uses. Separate your responses with a comma.",,n,41888,,,1961,40775,,,,"shortening our baseball swing, shortening your essay, shortening your walk by picking up a ride",1
slade.wilksSw,62z4fjduy7,"BOI Norms",1,7,2020-10-15T16:21:12-07:00,49.031546831131,13,"updated stim.csv",Version63.csv,"Version 63","List 63",paperwork,,3001,5.625,1866,3002,BOI,-,-,"Please name all of the ways you could use this object. Keep in mind that one object can have many uses. Separate your responses with a comma.",,n,48748,,,7061,46429,,,,"paperwork for your job, paperwork for a physical, paperwork for your school",1
slade.wilksSw,62z4fjduy7,"BOI Norms",1,8,2020-10-15T16:21:34-07:00,21.540688037872,13,"updated stim.csv",Version63.csv,"Version 63","List 63",grain,,3004,5.217391304,1143,3005,BOI,-,-,"Please name all of the ways you could use this object. Keep in mind that one object can have many uses. Separate your responses with a comma.",,n,21291,,,2111,19969,,,,"grain of salt, eat a grain, ",1
slade.wilksSw,62z4fjduy7,"BOI Norms",1,9,2020-10-15T16:21:36-07:00,2.4066951274872,13,"updated stim.csv",Version63.csv,"Version 63","List 63",,,,,,0,Instruct,-,-,"You have completed this section. Press ENTER to continue",,"Instruct 5",2153,,,-1,-1,,,,,1
slade.wilksSw,62z4fjduy7,"BOI Norms",1,10,2020-10-15T16:21:40-07:00,3.5388469696045,13,"updated stim.csv",Version63.csv,"Version 63","List 63",,,,,,0,Instruct,-,-,"You will now start the full experiment. Press ENTER when you are ready to begin.",,,3311,,,-1,-1,,,,,1
slade.wilksSw,62z4fjduy7,"BOI Norms",1,11,2020-10-15T16:22:08-07:00,28.397928953171,13,"updated stim.csv",Version63.csv,"Version 63","List 63",hardwood,,1876,5.076923077,1250,1877,BOI,-,-,"Please name all of the ways you could use this object. Keep in mind that one object can have many uses. Separate your responses with a comma.",,y,28114,,,2120,25754,,,,"burn hardwood trees, climb hardwood, ",1
slade.wilksSw,62z4fjduy7,"BOI Norms",1,12,2020-10-15T16:22:38-07:00,29.866168022156,13,"updated stim.csv",Version63.csv,"Version 63","List 63",dough,,1887,6.086956522,833,1888,BOI,-,-,"Please name all of the ways you could use this object. Keep in mind that one object can have many uses. Separate your responses with a comma.",,y,29392,,,1809,28230,,,,"cookie dough to bake, dough to make fresh bread, make your own dough",1
slade.wilksSw,62z4fjduy7,"BOI Norms",1,13,2020-10-15T16:23:02-07:00,23.884217023849,13,"updated stim.csv",Version63.csv,"Version 63","List 63",storybook,,1884,5.703703704,2554,1885,BOI,-,-,"Please name all of the ways you could use this object. Keep in mind that one object can have many uses. Separate your responses with a comma.",,y,23586,,,3158,22386,,,,"storybook your life, open the storybook, close the storybook",1
slade.wilksSw,62z4fjduy7,"BOI Norms",1,14,2020-10-15T16:23:35-07:00,33.225419044495,13,"updated stim.csv",Version63.csv,"Version 63","List 63",headpiece,,1877,5.347826087,1270,1878,BOI,-,-,"Please name all of the ways you could use this object. Keep in mind that one object can have many uses. Separate your responses with a comma.",,y,32949,,,6247,31729,,,,"headpiece to listen to music, headpiece to wear, drop your headpiece",1
slade.wilksSw,62z4fjduy7,"BOI Norms",1,15,2020-10-15T16:24:10-07:00,35.04652094841,13,"updated stim.csv",Version63.csv,"Version 63","List 63",wench,,1871,4.956521739,2919,1872,BOI,-,-,"Please name all of the ways you could use this object. Keep in mind that one object can have many uses. Separate your responses with a comma.",,y,34786,,,1587,32336,,,,"wench to pull a deer out, wench to pull your stuck vehicle out, ",1
slade.wilksSw,62z4fjduy7,"BOI Norms",1,16,2020-10-15T16:24:38-07:00,28.035786867142,13,"updated stim.csv",Version63.csv,"Version 63","List 63",sheepdog,,1865,5.375,2329,1866,BOI,-,-,"Please name all of the ways you could use this object. Keep in mind that one object can have many uses. Separate your responses with a comma.",,y,27763,,,1905,26451,,,,"pet a sheepdog, heard cows with a sheepdog, feed a sheepdog",1
slade.wilksSw,62z4fjduy7,"BOI Norms",1,17,2020-10-15T16:25:04-07:00,25.372362136841,13,"updated stim.csv",Version63.csv,"Version 63","List 63",trainee,,1883,4.72,2757,1884,BOI,-,-,"Please name all of the ways you could use this object. Keep in mind that one object can have many uses. Separate your responses with a comma.",,y,25107,,,13315,23798,,,,"somelearn learning how to do a task",1
slade.wilksSw,62z4fjduy7,"BOI Norms",1,18,2020-10-15T16:25:34-07:00,30.259683847427,13,"updated stim.csv",Version63.csv,"Version 63","List 63",noodle,,1874,6.24,1776,1875,BOI,-,-,"Please name all of the ways you could use this object. Keep in mind that one object can have many uses. Separate your responses with a comma.",,y,30051,,,1518,28818,,,,"spaghette noodles, chicken noodles, noodles and rice",1
slade.wilksSw,62z4fjduy7,"BOI Norms",1,19,2020-10-15T16:25:50-07:00,16.240815162659,13,"updated stim.csv",Version63.csv,"Version 63","List 63",margarine,,1880,5.56,1604,1881,BOI,-,-,"Please name all of the ways you could use this object. Keep in mind that one object can have many uses. Separate your responses with a comma.",,y,15924,,,2034,14736,,,,"margarine to put on a steak, margarine to put on chicken",1
slade.wilksSw,62z4fjduy7,"BOI Norms",1,20,2020-10-15T16:26:40-07:00,50.315867900848,13,"updated stim.csv",Version63.csv,"Version 63","List 63",him,,1879,4.47826087,1289,1880,BOI,-,-,"Please name all of the ways you could use this object. Keep in mind that one object can have many uses. Separate your responses with a comma.",,y,50056,,,38240,43965,,,,"going to see him",1
slade.wilksSw,62z4fjduy7,"BOI Norms",1,21,2020-10-15T16:27:09-07:00,28.863127946854,13,"updated stim.csv",Version63.csv,"Version 63","List 63",calculator,,1878,6.24,400,1879,BOI,-,-,"Please name all of the ways you could use this object. Keep in mind that one object can have many uses. Separate your responses with a comma.",,y,28564,,,1887,27244,,,,"calculator for math, calculator for science, add and subtract with a calculator",1
slade.wilksSw,62z4fjduy7,"BOI Norms",1,22,2020-10-15T16:27:29-07:00,19.844403982162,13,"updated stim.csv",Version63.csv,"Version 63","List 63",pilot,,1888,4.52173913,1964,1889,BOI,-,-,"Please name all of the ways you could use this object. Keep in mind that one object can have many uses. Separate your responses with a comma.",,y,19560,,,3852,18944,,,,"pilot is a kind of car, pilot of a plane",1
slade.wilksSw,62z4fjduy7,"BOI Norms",1,23,2020-10-15T16:27:47-07:00,17.536908149719,13,"updated stim.csv",Version63.csv,"Version 63","List 63",hamper,,1869,4.4,1225,1870,BOI,-,-,"Please name all of the ways you could use this object. Keep in mind that one object can have many uses. Separate your responses with a comma.",,y,17261,,,1699,16106,,,,"clothes hamper, something to hold a lot of items",1
slade.wilksSw,62z4fjduy7,"BOI Norms",1,24,2020-10-15T16:28:32-07:00,45.648735046387,13,"updated stim.csv",Version63.csv,"Version 63","List 63",dandelion,,1873,5.826086957,755,1874,BOI,-,-,"Please name all of the ways you could use this object. Keep in mind that one object can have many uses. Separate your responses with a comma.",,y,45375,,,38941,44308,,,,"dont know",1
slade.wilksSw,62z4fjduy7,"BOI Norms",1,25,2020-10-15T16:29:18-07:00,45.679055929184,13,"updated stim.csv",Version63.csv,"Version 63","List 63",fiancee,,1872,5.652173913,969,1873,BOI,-,-,"Please name all of the ways you could use this object. Keep in mind that one object can have many uses. Separate your responses with a comma.",,y,45384,,,13378,44550,,,,"what someone calls their significant other once they are engaged but not married hyet",1
slade.wilksSw,62z4fjduy7,"BOI Norms",1,26,2020-10-15T16:30:07-07:00,48.647454023361,13,"updated stim.csv",Version63.csv,"Version 63","List 63",flag,,1886,5.851851852,995,1887,BOI,-,-,"Please name all of the ways you could use this object. Keep in mind that one object can have many uses. Separate your responses with a comma.",,y,48368,,,2432,47264,,,,"flag thrown in football, flag that you salute",1
slade.wilksSw,62z4fjduy7,"BOI Norms",1,27,2020-10-15T16:30:35-07:00,28.441276073456,13,"updated stim.csv",Version63.csv,"Version 63","List 63",vomit,,1867,4.666666667,2874,1868,BOI,-,-,"Please name all of the ways you could use this object. Keep in mind that one object can have many uses. Separate your responses with a comma.",,y,28174,,,2674,26850,,,,"throwup, vomit to release something that is bothering your stomach",1
slade.wilksSw,62z4fjduy7,"BOI Norms",1,28,2020-10-15T16:30:53-07:00,18.06849193573,13,"updated stim.csv",Version63.csv,"Version 63","List 63",headlight,,1868,4.538461538,1267,1869,BOI,-,-,"Please name all of the ways you could use this object. Keep in mind that one object can have many uses. Separate your responses with a comma.",,y,17824,,,2561,16737,,,,"headlight on cars, headlights so you can see at night",1
slade.wilksSw,62z4fjduy7,"BOI Norms",1,29,2020-10-15T16:31:22-07:00,29.205642938614,13,"updated stim.csv",Version63.csv,"Version 63","List 63",grandnephew,,1875,5.08,1149,1876,BOI,-,-,"Please name all of the ways you could use this object. Keep in mind that one object can have many uses. Separate your responses with a comma.",,y,28922,,,10350,27872,,,,"You could tell them to do a chore for you",1
slade.wilksSw,62z4fjduy7,"BOI Norms",1,30,2020-10-15T16:31:35-07:00,12.889843940735,13,"updated stim.csv",Version63.csv,"Version 63","List 63",wineglass,,1890,6.416666667,2948,1891,BOI,-,-,"Please name all of the ways you could use this object. Keep in mind that one object can have many uses. Separate your responses with a comma.",,y,12619,,,1660,11314,,,,"to drink wine out of",1
slade.wilksSw,62z4fjduy7,"BOI Norms",1,31,2020-10-15T16:31:58-07:00,22.476853132248,13,"updated stim.csv",Version63.csv,"Version 63","List 63",pebble,,1866,5.47826087,1898,1867,BOI,-,-,"Please name all of the ways you could use this object. Keep in mind that one object can have many uses. Separate your responses with a comma.",,y,22192,,,8073,20481,,,,"a pebble of food, small amount",1
slade.wilksSw,62z4fjduy7,"BOI Norms",1,32,2020-10-15T16:32:45-07:00,47.326408863068,13,"updated stim.csv",Version63.csv,"Version 63","List 63",firearm,,1861,5.814814815,983,1862,BOI,-,-,"Please name all of the ways you could use this object. Keep in mind that one object can have many uses. Separate your responses with a comma.",,y,47076,,,3638,45749,,,,"used for target shooting, can be used to defend yourself",1
slade.wilksSw,62z4fjduy7,"BOI Norms",1,33,2020-10-15T16:33:01-07:00,15.905023097992,13,"updated stim.csv",Version63.csv,"Version 63","List 63",cauliflower,,1863,5.269230769,466,1864,BOI,-,-,"Please name all of the ways you could use this object. Keep in mind that one object can have many uses. Separate your responses with a comma.",,y,15615,,,1595,14130,,,,"a type of vegetable to eat, grow cauliflower in a garden",1
slade.wilksSw,62z4fjduy7,"BOI Norms",1,34,2020-10-15T16:33:18-07:00,17.523699998856,13,"updated stim.csv",Version63.csv,"Version 63","List 63",sledgehammer,,1881,5.916666667,2408,1882,BOI,-,-,"Please name all of the ways you could use this object. Keep in mind that one object can have many uses. Separate your responses with a comma.",,y,17269,,,1255,15097,,,,"sledgehammer to beat a nail in",1
slade.wilksSw,62z4fjduy7,"BOI Norms",1,35,2020-10-15T16:33:49-07:00,30.237576007843,13,"updated stim.csv",Version63.csv,"Version 63","List 63",underclothes,,1862,6,2819,1863,BOI,-,-,"Please name all of the ways you could use this object. Keep in mind that one object can have many uses. Separate your responses with a comma.",,y,29964,,,1230,28664,,,,"clothes to wear under your outer wear, underclothes to keep you warm",1
slade.wilksSw,62z4fjduy7,"BOI Norms",1,36,2020-10-15T16:34:09-07:00,20.360249996185,13,"updated stim.csv",Version63.csv,"Version 63","List 63",pepperoni,,1882,5.875,1924,1883,BOI,-,-,"Please name all of the ways you could use this object. Keep in mind that one object can have many uses. Separate your responses with a comma.",,y,20090,,,1131,18582,,,,"pepperoni sandwhich and pepperoni pizza to eat",1
slade.wilksSw,62z4fjduy7,"BOI Norms",1,37,2020-10-15T16:34:42-07:00,32.922250032425,13,"updated stim.csv",Version63.csv,"Version 63","List 63",parent,,1870,5.04,1875,1871,BOI,-,-,"Please name all of the ways you could use this object. Keep in mind that one object can have many uses. Separate your responses with a comma.",,y,32669,,,4969,31465,,,,"the people that made you, parents can help you out in any situation. ",1
slade.wilksSw,62z4fjduy7,"BOI Norms",1,38,2020-10-15T16:34:54-07:00,11.927798032761,13,"updated stim.csv",Version63.csv,"Version 63","List 63",scarecrow,,1864,5,2267,1865,BOI,-,-,"Please name all of the ways you could use this object. Keep in mind that one object can have many uses. Separate your responses with a comma.",,y,11672,,,-1,-1,,,,,1
slade.wilksSw,62z4fjduy7,"BOI Norms",1,39,2020-10-15T16:35:10-07:00,15.706765890121,13,"updated stim.csv",Version63.csv,"Version 63","List 63",chevy,,1889,4.956521739,515,1890,BOI,-,-,"Please name all of the ways you could use this object. Keep in mind that one object can have many uses. Separate your responses with a comma.",,y,15493,,,9687,14969,,,,"chevy vehicle to drive",1
slade.wilksSw,62z4fjduy7,"BOI Norms",1,40,2020-10-15T16:35:35-07:00,25.137964010239,13,"updated stim.csv",Version63.csv,"Version 63","List 63",page,,1885,4.96,1844,1886,BOI,-,-,"Please name all of the ways you could use this object. Keep in mind that one object can have many uses. Separate your responses with a comma.",,y,24878,,,2925,23795,,,,"page of paper to write on, number of pages in a book",1
slade.wilksSw,62z4fjduy7,"BOI Norms",1,41,2020-10-15T16:35:38-07:00,3.3616650104523,13,"updated stim.csv",Version63.csv,"Version 63","List 63",,,,,,0,Instruct,,,"You will now be asked a few questions about your experience today.",,"Instruct 4",3074,,,-1,-1,,,,,1
