Username,ID,ExperimentName,Session,Trial,Date,TimeDif,"Condition Number","Stimuli File","Order File","Condition Description","Condition Notes",Stimuli*Cue,Stimuli*Answer,Stimuli*Shuffle,"Stimuli*Stimuli Notes",Stimuli*Value,Procedure*Item,"Procedure*Trial Type","Procedure*Max Time","Procedure*Min Time",Procedure*Text,"Procedure*Procedure Notes",Procedure*Shuffle,Response*RT,Response*Response,Response*Accuracy,Response*RTfirst,Response*RTlast,Response*strictAcc,Response*lenientAcc,Response*focus,Response*JOL,Response*Focus
w10079958-bas,0di54xty2e,"BOI Norms",1,1,2021-01-04T18:17:50-08:00,17.642323970795,21,"updated stim.csv",Version96.csv,"Version 96","List 96",,,,,,0,Instruct,-,10,"In this section, you will be presented with a series of objects. Please name as many possible uses for this object as you can think of by typing them in the box below each object.",,Instruct1,17329,,,-1,-1,,,,,1
w10079958-bas,0di54xty2e,"BOI Norms",1,2,2021-01-04T18:18:10-08:00,20.104845046997,21,"updated stim.csv",Version96.csv,"Version 96","List 96",,,,,,0,Instruct,-,10,"Please keep in mind that a single object will have more than one use. For example, a ball can be thrown or can be bounced or even stepped on. When listing multiple uses for one object, please separate each use with a comma (i.e., thrown, bounced, stepped on)",,Instruct2,19662,,,-1,-1,,,,,1
w10079958-bas,0di54xty2e,"BOI Norms",1,3,2021-01-04T18:18:14-08:00,4.1935029029846,21,"updated stim.csv",Version96.csv,"Version 96","List 96",,,,,,0,Instruct,-,-,"Before starting the experiment, you will complete a short practice sesstion. Press ENTER when you are ready to begin.",,Instruct3,3701,,,-1,-1,,,,,1
w10079958-bas,0di54xty2e,"BOI Norms",1,4,2021-01-04T18:18:34-08:00,20.017830133438,21,"updated stim.csv",Version96.csv,"Version 96","List 96",shortening,,3002,4.92,2358,3003,BOI,-,-,"Please name all of the ways you could use this object. Keep in mind that one object can have many uses. Separate your responses with a comma.",,n,19418,,,4710,17458,,,,"Pie,cake,cookies,frying",1
w10079958-bas,0di54xty2e,"BOI Norms",1,5,2021-01-04T18:19:49-08:00,74.793339967728,21,"updated stim.csv",Version96.csv,"Version 96","List 96",paperwork,,3001,5.625,1866,3002,BOI,-,-,"Please name all of the ways you could use this object. Keep in mind that one object can have many uses. Separate your responses with a comma.",,n,73893,,,9475,72116,,,,"Bills,assignments,mortgage,bank statements,lease,car registration,instructions,insurance",1
w10079958-bas,0di54xty2e,"BOI Norms",1,6,2021-01-04T18:20:26-08:00,36.97522687912,21,"updated stim.csv",Version96.csv,"Version 96","List 96",grain,,3004,5.217391304,1143,3005,BOI,-,-,"Please name all of the ways you could use this object. Keep in mind that one object can have many uses. Separate your responses with a comma.",,n,36423,,,4377,35040,,,,"Bread,flour,feed chickens,feed cows,feed pigs",1
w10079958-bas,0di54xty2e,"BOI Norms",1,7,2021-01-04T18:20:37-08:00,11.161567211151,21,"updated stim.csv",Version96.csv,"Version 96","List 96",spaghetti,,3003,6,2461,3004,BOI,-,-,"Please name all of the ways you could use this object. Keep in mind that one object can have many uses. Separate your responses with a comma.",,n,10692,,,8124,9776,,,,Pasta,1
w10079958-bas,0di54xty2e,"BOI Norms",1,8,2021-01-04T18:20:49-08:00,11.666410923004,21,"updated stim.csv",Version96.csv,"Version 96","List 96",saucer,,3005,5.777777778,2249,3006,BOI,-,-,"Please name all of the ways you could use this object. Keep in mind that one object can have many uses. Separate your responses with a comma.",,n,11109,,,5194,9569,,,,"Hold cup",1
w10079958-bas,0di54xty2e,"BOI Norms",1,9,2021-01-04T18:20:51-08:00,2.4177000522614,21,"updated stim.csv",Version96.csv,"Version 96","List 96",,,,,,0,Instruct,-,-,"You have completed this section. Press ENTER to continue",,"Instruct 5",2035,,,-1,-1,,,,,1
w10079958-bas,0di54xty2e,"BOI Norms",1,10,2021-01-04T18:21:06-08:00,14.296901941299,21,"updated stim.csv",Version96.csv,"Version 96","List 96",,,,,,0,Instruct,-,-,"You will now start the full experiment. Press ENTER when you are ready to begin.",,,13828,,,-1,-1,,,,,1
w10079958-bas,0di54xty2e,"BOI Norms",1,11,2021-01-04T18:21:24-08:00,18.608965873718,21,"updated stim.csv",Version96.csv,"Version 96","List 96",dustbin,,2880,5.708333333,869,2881,BOI,-,-,"Please name all of the ways you could use this object. Keep in mind that one object can have many uses. Separate your responses with a comma.",,y,18088,,,12614,16623,,,,"Hold dust",1
w10079958-bas,0di54xty2e,"BOI Norms",1,12,2021-01-04T18:21:36-08:00,11.576081991196,21,"updated stim.csv",Version96.csv,"Version 96","List 96",clock,,2863,4.714285714,566,2864,BOI,-,-,"Please name all of the ways you could use this object. Keep in mind that one object can have many uses. Separate your responses with a comma.",,y,10951,,,6362,9478,,,,"Tell time",1
w10079958-bas,0di54xty2e,"BOI Norms",1,13,2021-01-04T18:22:12-08:00,36.646003007889,21,"updated stim.csv",Version96.csv,"Version 96","List 96",pail,,2877,4.772727273,1845,2878,BOI,-,-,"Please name all of the ways you could use this object. Keep in mind that one object can have many uses. Separate your responses with a comma.",,y,36112,,,4742,35117,,,,"Hold water,milk a cow,mop the floor,carry water from a well",1
w10079958-bas,0di54xty2e,"BOI Norms",1,14,2021-01-04T18:22:45-08:00,32.757410049438,21,"updated stim.csv",Version96.csv,"Version 96","List 96",cornflakes,,2854,5.6,647,2855,BOI,-,-,"Please name all of the ways you could use this object. Keep in mind that one object can have many uses. Separate your responses with a comma.",,y,32256,,,5298,30849,,,,"Eat breakfast,make cookies,fry fish",1
w10079958-bas,0di54xty2e,"BOI Norms",1,15,2021-01-04T18:23:08-08:00,23.140185117722,21,"updated stim.csv",Version96.csv,"Version 96","List 96",honeycomb,,2869,4.695652174,1303,2870,BOI,-,-,"Please name all of the ways you could use this object. Keep in mind that one object can have many uses. Separate your responses with a comma.",,y,22647,,,18505,21411,,,,"Get honey",1
w10079958-bas,0di54xty2e,"BOI Norms",1,16,2021-01-04T18:23:30-08:00,21.120192050934,21,"updated stim.csv",Version96.csv,"Version 96","List 96",awning,,2855,4.565217391,104,2856,BOI,-,-,"Please name all of the ways you could use this object. Keep in mind that one object can have many uses. Separate your responses with a comma.",,y,20558,,,4893,19396,,,,"Protect from sun,keep off rain",1
w10079958-bas,0di54xty2e,"BOI Norms",1,17,2021-01-04T18:23:41-08:00,11.214875936508,21,"updated stim.csv",Version96.csv,"Version 96","List 96",backscratcher,,2865,5.52,117,2866,BOI,-,-,"Please name all of the ways you could use this object. Keep in mind that one object can have many uses. Separate your responses with a comma.",,y,10658,,,4632,9760,,,,"Scratch back",1
w10079958-bas,0di54xty2e,"BOI Norms",1,18,2021-01-04T18:24:01-08:00,19.866556882858,21,"updated stim.csv",Version96.csv,"Version 96","List 96",okra,,2873,5.269230769,1805,2874,BOI,-,-,"Please name all of the ways you could use this object. Keep in mind that one object can have many uses. Separate your responses with a comma.",,y,19324,,,7299,14946,,,,"Gumbo,fried okra",1
w10079958-bas,0di54xty2e,"BOI Norms",1,19,2021-01-04T18:24:57-08:00,56.633056163788,21,"updated stim.csv",Version96.csv,"Version 96","List 96",pen,,2866,6.64,1912,2867,BOI,-,-,"Please name all of the ways you could use this object. Keep in mind that one object can have many uses. Separate your responses with a comma.",,y,54997,,,4411,52940,,,,"Write letters,sign paperwork,take notes,write out cards",1
w10079958-bas,0di54xty2e,"BOI Norms",1,20,2021-01-04T18:25:14-08:00,16.716907978058,21,"updated stim.csv",Version96.csv,"Version 96","List 96",leaflet,,2867,5.956521739,1478,2868,BOI,-,-,"Please name all of the ways you could use this object. Keep in mind that one object can have many uses. Separate your responses with a comma.",,y,16099,,,6595,13897,,,,"Convey information ",1
w10079958-bas,0di54xty2e,"BOI Norms",1,21,2021-01-04T18:25:31-08:00,16.995060920715,21,"updated stim.csv",Version96.csv,"Version 96","List 96",lad,,2878,4.36,1446,2879,BOI,-,-,"Please name all of the ways you could use this object. Keep in mind that one object can have many uses. Separate your responses with a comma.",,y,16430,,,9158,15043,,,,"Carry groceries",1
w10079958-bas,0di54xty2e,"BOI Norms",1,22,2021-01-04T18:25:48-08:00,17.086126089096,21,"updated stim.csv",Version96.csv,"Version 96","List 96",tunic,,2874,4.76,2798,2875,BOI,-,-,"Please name all of the ways you could use this object. Keep in mind that one object can have many uses. Separate your responses with a comma.",,y,16574,,,9414,15657,,,,"Cover body",1
w10079958-bas,0di54xty2e,"BOI Norms",1,23,2021-01-04T18:26:08-08:00,20.276930809021,21,"updated stim.csv",Version96.csv,"Version 96","List 96",sesame,,2859,4.652173913,2315,2860,BOI,-,-,"Please name all of the ways you could use this object. Keep in mind that one object can have many uses. Separate your responses with a comma.",,y,19764,,,11701,18656,,,,"Seeds,oil",1
w10079958-bas,0di54xty2e,"BOI Norms",1,24,2021-01-04T18:26:25-08:00,16.966759204865,21,"updated stim.csv",Version96.csv,"Version 96","List 96",pamphlet,,2858,5.565217391,1855,2859,BOI,-,-,"Please name all of the ways you could use this object. Keep in mind that one object can have many uses. Separate your responses with a comma.",,y,16332,,,8402,14744,,,,"Convey information ",1
w10079958-bas,0di54xty2e,"BOI Norms",1,25,2021-01-04T18:26:48-08:00,22.51579284668,21,"updated stim.csv",Version96.csv,"Version 96","List 96",saucepan,,2864,6,2248,2865,BOI,-,-,"Please name all of the ways you could use this object. Keep in mind that one object can have many uses. Separate your responses with a comma.",,y,21941,,,4379,20882,,,,"Make soup,make oatmeal,heat water",1
w10079958-bas,0di54xty2e,"BOI Norms",1,26,2021-01-04T18:26:59-08:00,11.40962600708,21,"updated stim.csv",Version96.csv,"Version 96","List 96",jumper,,2856,4.296296296,1395,2857,BOI,-,-,"Please name all of the ways you could use this object. Keep in mind that one object can have many uses. Separate your responses with a comma.",,y,10899,,,5294,9996,,,,"Cover body",1
w10079958-bas,0di54xty2e,"BOI Norms",1,27,2021-01-04T18:27:33-08:00,33.380187034607,21,"updated stim.csv",Version96.csv,"Version 96","List 96",educator,,2871,5,890,2872,BOI,-,-,"Please name all of the ways you could use this object. Keep in mind that one object can have many uses. Separate your responses with a comma.",,y,32842,,,12831,31357,,,,"Teach students,educate people",1
w10079958-bas,0di54xty2e,"BOI Norms",1,28,2021-01-04T18:27:45-08:00,12.912044048309,21,"updated stim.csv",Version96.csv,"Version 96","List 96",sixpence,,2870,4.380952381,2388,2871,BOI,-,-,"Please name all of the ways you could use this object. Keep in mind that one object can have many uses. Separate your responses with a comma.",,y,12240,,,10021,11416,,,,Money,1
w10079958-bas,0di54xty2e,"BOI Norms",1,29,2021-01-04T18:28:19-08:00,33.936009883881,21,"updated stim.csv",Version96.csv,"Version 96","List 96",clerk,,2860,4.68,557,2861,BOI,-,-,"Please name all of the ways you could use this object. Keep in mind that one object can have many uses. Separate your responses with a comma.",,y,33318,,,4339,32257,,,,"Check out goods,record figures,take notes",1
w10079958-bas,0di54xty2e,"BOI Norms",1,30,2021-01-04T18:28:31-08:00,11.420387029648,21,"updated stim.csv",Version96.csv,"Version 96","List 96",matchwood,,2868,5.210526316,1623,2869,BOI,-,-,"Please name all of the ways you could use this object. Keep in mind that one object can have many uses. Separate your responses with a comma.",,y,10879,,,-1,-1,,,,,1
w10079958-bas,0di54xty2e,"BOI Norms",1,31,2021-01-04T18:28:41-08:00,9.7358689308167,21,"updated stim.csv",Version96.csv,"Version 96","List 96",wristband,,2876,5.583333333,2983,2877,BOI,-,-,"Please name all of the ways you could use this object. Keep in mind that one object can have many uses. Separate your responses with a comma.",,y,9233,,,4490,8434,,,,"Cover wrist",1
w10079958-bas,0di54xty2e,"BOI Norms",1,32,2021-01-04T18:29:44-08:00,63.727698087692,21,"updated stim.csv",Version96.csv,"Version 96","List 96",leather,,2872,5.576923077,1480,2873,BOI,-,-,"Please name all of the ways you could use this object. Keep in mind that one object can have many uses. Separate your responses with a comma.",,y,63180,,,4586,43056,,,,"Shoes,wrist bands,coats,furniture,car or truck seats,",1
w10079958-bas,0di54xty2e,"BOI Norms",1,33,2021-01-04T18:30:15-08:00,30.288851976395,21,"updated stim.csv",Version96.csv,"Version 96","List 96",aquarium,,2857,5.782608696,68,2858,BOI,-,-,"Please name all of the ways you could use this object. Keep in mind that one object can have many uses. Separate your responses with a comma.",,y,29751,,,5736,27856,,,,"Keep fish,display sea creatures ",1
w10079958-bas,0di54xty2e,"BOI Norms",1,34,2021-01-04T18:30:26-08:00,11.502251148224,21,"updated stim.csv",Version96.csv,"Version 96","List 96",atlas,,2852,5.166666667,93,2853,BOI,-,-,"Please name all of the ways you could use this object. Keep in mind that one object can have many uses. Separate your responses with a comma.",,y,10960,,,4212,9920,,,,"Find places",1
w10079958-bas,0di54xty2e,"BOI Norms",1,35,2021-01-04T18:30:55-08:00,29.017993927002,21,"updated stim.csv",Version96.csv,"Version 96","List 96",stocking,,2851,5.6,2541,2852,BOI,-,-,"Please name all of the ways you could use this object. Keep in mind that one object can have many uses. Separate your responses with a comma.",,y,28453,,,4628,27365,,,,"Cover feet,put Christmas presents",1
w10079958-bas,0di54xty2e,"BOI Norms",1,36,2021-01-04T18:31:10-08:00,15.093719959259,21,"updated stim.csv",Version96.csv,"Version 96","List 96",stomach,,2875,4.44,2543,2876,BOI,-,-,"Please name all of the ways you could use this object. Keep in mind that one object can have many uses. Separate your responses with a comma.",,y,14587,,,3575,13310,,,,"Hold food,process food",1
w10079958-bas,0di54xty2e,"BOI Norms",1,37,2021-01-04T18:31:13-08:00,3.1351079940796,21,"updated stim.csv",Version96.csv,"Version 96","List 96",equipment,,2853,5.28,917,2854,BOI,-,-,"Please name all of the ways you could use this object. Keep in mind that one object can have many uses. Separate your responses with a comma.",,y,2725,,,-1,-1,,,,,1
w10079958-bas,0di54xty2e,"BOI Norms",1,38,2021-01-04T18:31:20-08:00,6.3504490852356,21,"updated stim.csv",Version96.csv,"Version 96","List 96",licence,,2862,4.76,1501,2863,BOI,-,-,"Please name all of the ways you could use this object. Keep in mind that one object can have many uses. Separate your responses with a comma.",,y,5898,,,-1,-1,,,,,1
w10079958-bas,0di54xty2e,"BOI Norms",1,39,2021-01-04T18:31:57-08:00,37.263037919998,21,"updated stim.csv",Version96.csv,"Version 96","List 96",scrapbook,,2861,5.84,2282,2862,BOI,-,-,"Please name all of the ways you could use this object. Keep in mind that one object can have many uses. Separate your responses with a comma.",,y,36748,,,3961,33678,,,,"Collect stamps,collect mementos,collect photos",1
w10079958-bas,0di54xty2e,"BOI Norms",1,40,2021-01-04T18:32:26-08:00,28.582763910294,21,"updated stim.csv",Version96.csv,"Version 96","List 96",walnut,,2879,5.791666667,2890,2880,BOI,-,-,"Please name all of the ways you could use this object. Keep in mind that one object can have many uses. Separate your responses with a comma.",,y,28054,,,15791,26438,,,,"Flavoring,nut",1
w10079958-bas,0di54xty2e,"BOI Norms",1,41,2021-01-04T18:32:30-08:00,4.0780370235443,21,"updated stim.csv",Version96.csv,"Version 96","List 96",,,,,,0,Instruct,,,"You will now be asked a few questions about your experience today.",,"Instruct 4",3602,,,-1,-1,,,,,1
