Username,ID,ExperimentName,Session,Trial,Date,TimeDif,"Condition Number","Stimuli File","Order File","Condition Description","Condition Notes",Stimuli*Cue,Stimuli*Answer,Stimuli*Shuffle,"Stimuli*Stimuli Notes",Stimuli*Value,Stimuli*Rand,Procedure*Item,"Procedure*Trial Type","Procedure*Max Time","Procedure*Min Time",Procedure*Text,"Procedure*Procedure Notes",Procedure*Shuffle,Response*RT,Response*Response,Response*Accuracy,Response*RTfirst,Response*RTlast,Response*strictAcc,Response*lenientAcc,Response*focus,Response*JOL,Response*Focus
5adc532809eae2000112bfb7,tynatvzzfl,"Affordance Norms_Prolific",1,1,2023-07-21T18:24:15+00:00,11.632332086563,18,"updated stim.csv",Version18.csv,"Version 18","List 18",,,,,,,0,Instruct,-,10,"In this section, you will be presented with a series of objects. Please name as many possible uses for this object as you can think of by typing them in the box below each object.",,Instruct1,11400,,,-1,-1,,,,,1
5adc532809eae2000112bfb7,tynatvzzfl,"Affordance Norms_Prolific",1,2,2023-07-21T18:24:38+00:00,22.653494119644,18,"updated stim.csv",Version18.csv,"Version 18","List 18",,,,,,,0,Instruct,-,10,"Please keep in mind that a single object will have more than one use. For example, a ball can be thrown or can be bounced or even stepped on. When listing multiple uses for one object, please separate each use with a comma (i.e., thrown, bounced, stepped on)",,Instruct2,22468,,,-1,-1,,,,,1
5adc532809eae2000112bfb7,tynatvzzfl,"Affordance Norms_Prolific",1,3,2023-07-21T18:24:44+00:00,6.0735039710999,18,"updated stim.csv",Version18.csv,"Version 18","List 18",,,,,,,0,Instruct,-,-,"Before starting the experiment, you will complete a short practice sesstion. Press ENTER when you are ready to begin.",,Instruct3,5883,,,-1,-1,,,,,1
5adc532809eae2000112bfb7,tynatvzzfl,"Affordance Norms_Prolific",1,4,2023-07-21T18:25:10+00:00,25.937506914139,18,"updated stim.csv",Version18.csv,"Version 18","List 18",paperwork,,632,4.28,439,0.557499565,633,BOI,-,-,"Please name all of the ways you could use this object. Keep in mind that one object can have many uses. Separate your responses with a comma.",,n,25747,,,2687,23806,,,,"writing, form art structures, draw",1
5adc532809eae2000112bfb7,tynatvzzfl,"Affordance Norms_Prolific",1,5,2023-07-21T18:26:03+00:00,53.616532087326,18,"updated stim.csv",Version18.csv,"Version 18","List 18",shortening,,633,4.961538462,2303,0.081957919,634,BOI,-,-,"Please name all of the ways you could use this object. Keep in mind that one object can have many uses. Separate your responses with a comma.",,n,52770,,,21599,25790,,,,"butter, margarine, lard",0.873
5adc532809eae2000112bfb7,tynatvzzfl,"Affordance Norms_Prolific",1,6,2023-07-21T18:27:04+00:00,61.042959928513,18,"updated stim.csv",Version18.csv,"Version 18","List 18",spaghetti,,634,4.608695652,2807,0.295026168,635,BOI,-,-,"Please name all of the ways you could use this object. Keep in mind that one object can have many uses. Separate your responses with a comma.",,n,60776,,,3827,41075,,,,"eat, art, ",0.717
5adc532809eae2000112bfb7,tynatvzzfl,"Affordance Norms_Prolific",1,7,2023-07-21T18:27:50+00:00,45.741487026215,18,"updated stim.csv",Version18.csv,"Version 18","List 18",grain,,635,4.708333333,1700,0.685106443,636,BOI,-,-,"Please name all of the ways you could use this object. Keep in mind that one object can have many uses. Separate your responses with a comma.",,n,45487,,,24446,45037,,,,"eat, grow, produce",0.805
5adc532809eae2000112bfb7,tynatvzzfl,"Affordance Norms_Prolific",1,8,2023-07-21T18:28:31+00:00,41.327372074127,18,"updated stim.csv",Version18.csv,"Version 18","List 18",glove,,631,5.217391304,2788,0.288599309,632,BOI,-,-,"Please name all of the ways you could use this object. Keep in mind that one object can have many uses. Separate your responses with a comma.",,n,41147,,,3311,26190,,,,"catch, protection, ",0.936
5adc532809eae2000112bfb7,tynatvzzfl,"Affordance Norms_Prolific",1,9,2023-07-21T18:28:34+00:00,2.7361218929291,18,"updated stim.csv",Version18.csv,"Version 18","List 18",,,,,,,0,Instruct,-,-,"You have completed this section. Press ENTER to continue",,"Instruct 5",2537,,,2458,2458,,,,,1
5adc532809eae2000112bfb7,tynatvzzfl,"Affordance Norms_Prolific",1,10,2023-07-21T18:28:40+00:00,6.0398669242859,18,"updated stim.csv",Version18.csv,"Version 18","List 18",,,,,,,0,Instruct,-,-,"You will now start the full experiment. Press ENTER when you are ready to begin.",,,5857,,,5761,5761,,,,,0.926
5adc532809eae2000112bfb7,tynatvzzfl,"Affordance Norms_Prolific",1,11,2023-07-21T18:29:26+00:00,46.131309986115,18,"updated stim.csv",Version18.csv,"Version 18","List 18",candlestick,,524,5.038461538,1838,0.013887713,525,BOI,-,-,"Please name all of the ways you could use this object. Keep in mind that one object can have many uses. Separate your responses with a comma.",,y,45947,,,9895,43510,,,,"fire, create, art",0.986
5adc532809eae2000112bfb7,tynatvzzfl,"Affordance Norms_Prolific",1,12,2023-07-21T18:30:29+00:00,62.73418211937,18,"updated stim.csv",Version18.csv,"Version 18","List 18",protractor,,539,4.962962963,2663,0.710184563,540,BOI,-,-,"Please name all of the ways you could use this object. Keep in mind that one object can have many uses. Separate your responses with a comma.",,y,62458,,,11350,59205,,,,"measure, geometry tool, solve math question ",0.934
5adc532809eae2000112bfb7,tynatvzzfl,"Affordance Norms_Prolific",1,13,2023-07-21T18:31:27+00:00,58.426079034805,18,"updated stim.csv",Version18.csv,"Version 18","List 18",curry,,526,5.461538462,2827,0.065017905,527,BOI,-,-,"Please name all of the ways you could use this object. Keep in mind that one object can have many uses. Separate your responses with a comma.",,y,58248,,,8860,55195,,,,"tea, add to food, healthy",0.757
5adc532809eae2000112bfb7,tynatvzzfl,"Affordance Norms_Prolific",1,14,2023-07-21T18:32:12+00:00,44.310075044632,18,"updated stim.csv",Version18.csv,"Version 18","List 18",jelly,,531,6.592592593,2604,0.037244496,532,BOI,-,-,"Please name all of the ways you could use this object. Keep in mind that one object can have many uses. Separate your responses with a comma.",,y,44126,,,9177,41897,,,,"sandwich, art, make ",0.86
5adc532809eae2000112bfb7,tynatvzzfl,"Affordance Norms_Prolific",1,15,2023-07-21T18:32:54+00:00,42.711935997009,18,"updated stim.csv",Version18.csv,"Version 18","List 18",carport,,525,4.5,2396,0.276241995,526,BOI,-,-,"Please name all of the ways you could use this object. Keep in mind that one object can have many uses. Separate your responses with a comma.",,y,41074,,,11182,30574,,,,"park car",0.927
5adc532809eae2000112bfb7,tynatvzzfl,"Affordance Norms_Prolific",1,16,2023-07-21T18:33:24+00:00,29.288851976395,18,"updated stim.csv",Version18.csv,"Version 18","List 18",sailboat,,540,4.821428571,667,0.305307499,541,BOI,-,-,"Please name all of the ways you could use this object. Keep in mind that one object can have many uses. Separate your responses with a comma.",,y,29095,,,18339,26067,,,,"Sailing, exploring, fishing",0.944
5adc532809eae2000112bfb7,tynatvzzfl,"Affordance Norms_Prolific",1,17,2023-07-21T18:34:09+00:00,45.089071035385,18,"updated stim.csv",Version18.csv,"Version 18","List 18",item,,530,5.333333333,74,0.187270689,531,BOI,-,-,"Please name all of the ways you could use this object. Keep in mind that one object can have many uses. Separate your responses with a comma.",,y,44898,,,31782,42629,,,,"one, part of list,",0.787
5adc532809eae2000112bfb7,tynatvzzfl,"Affordance Norms_Prolific",1,18,2023-07-21T18:34:40+00:00,31.26785993576,18,"updated stim.csv",Version18.csv,"Version 18","List 18",sesame,,513,6.12,60,0.088357206,514,BOI,-,-,"Please name all of the ways you could use this object. Keep in mind that one object can have many uses. Separate your responses with a comma.",,y,31079,,,19299,25170,,,,"tea, add to bread, ",0.865
5adc532809eae2000112bfb7,tynatvzzfl,"Affordance Norms_Prolific",1,19,2023-07-21T18:35:04+00:00,23.496937036514,18,"updated stim.csv",Version18.csv,"Version 18","List 18",prostitute,,511,4.695652174,2071,0.979417302,512,BOI,-,-,"Please name all of the ways you could use this object. Keep in mind that one object can have many uses. Separate your responses with a comma.",,y,23318,,,12802,19169,,,,"Female, sex, payment",0.95
5adc532809eae2000112bfb7,tynatvzzfl,"Affordance Norms_Prolific",1,20,2023-07-21T18:35:19+00:00,15.729312896729,18,"updated stim.csv",Version18.csv,"Version 18","List 18",rosemary,,512,4.260869565,525,0.027839326,513,BOI,-,-,"Please name all of the ways you could use this object. Keep in mind that one object can have many uses. Separate your responses with a comma.",,y,15544,,,6868,12259,,,,"herb, add to food, tea",1
5adc532809eae2000112bfb7,tynatvzzfl,"Affordance Norms_Prolific",1,21,2023-07-21T18:35:48+00:00,29.002535104752,18,"updated stim.csv",Version18.csv,"Version 18","List 18",soup,,516,5.555555556,930,0.887767133,517,BOI,-,-,"Please name all of the ways you could use this object. Keep in mind that one object can have many uses. Separate your responses with a comma.",,y,28808,,,2668,26763,,,,"eat, create, to cure illness",1
5adc532809eae2000112bfb7,tynatvzzfl,"Affordance Norms_Prolific",1,22,2023-07-21T18:36:25+00:00,36.962705850601,18,"updated stim.csv",Version18.csv,"Version 18","List 18",pitchfork,,537,5.486522911,901,0.750646332,538,BOI,-,-,"Please name all of the ways you could use this object. Keep in mind that one object can have many uses. Separate your responses with a comma.",,y,36762,,,17285,33941,,,,"tool, garden, soil",0.796
5adc532809eae2000112bfb7,tynatvzzfl,"Affordance Norms_Prolific",1,23,2023-07-21T18:36:58+00:00,32.589351177216,18,"updated stim.csv",Version18.csv,"Version 18","List 18",vibrator,,520,4.8,655,0.584332234,521,BOI,-,-,"Please name all of the ways you could use this object. Keep in mind that one object can have many uses. Separate your responses with a comma.",,y,32404,,,19351,27479,,,,"sex toy, pain reliever,",0.964
5adc532809eae2000112bfb7,tynatvzzfl,"Affordance Norms_Prolific",1,24,2023-07-21T18:37:25+00:00,26.671875,18,"updated stim.csv",Version18.csv,"Version 18","List 18",suede,,517,4.84,701,0.291263355,518,BOI,-,-,"Please name all of the ways you could use this object. Keep in mind that one object can have many uses. Separate your responses with a comma.",,y,26489,,,15084,24460,,,,"leather, material, shoes, clothing",0.909
5adc532809eae2000112bfb7,tynatvzzfl,"Affordance Norms_Prolific",1,25,2023-07-21T18:37:42+00:00,17.827884912491,18,"updated stim.csv",Version18.csv,"Version 18","List 18",kid,,532,4.583333333,13,0.866092268,533,BOI,-,-,"Please name all of the ways you could use this object. Keep in mind that one object can have many uses. Separate your responses with a comma.",,y,17640,,,4299,14971,,,,"Parent, father, mother, son, daughter",1
5adc532809eae2000112bfb7,tynatvzzfl,"Affordance Norms_Prolific",1,26,2023-07-21T18:38:44+00:00,62.014998912811,18,"updated stim.csv",Version18.csv,"Version 18","List 18",protester,,538,4.818181818,161,0.378920968,539,BOI,-,-,"Please name all of the ways you could use this object. Keep in mind that one object can have many uses. Separate your responses with a comma.",,y,60643,,,16263,58711,,,,"objections, demonstrations, yelling, screaming, police, violence, ",0.929
5adc532809eae2000112bfb7,tynatvzzfl,"Affordance Norms_Prolific",1,27,2023-07-21T18:39:24+00:00,39.890710115433,18,"updated stim.csv",Version18.csv,"Version 18","List 18",ductwork,,527,4.375,423,0.29017358,528,BOI,-,-,"Please name all of the ways you could use this object. Keep in mind that one object can have many uses. Separate your responses with a comma.",,y,39688,,,11260,38364,,,,"Homes, buildings, system of ducts,",0.903
5adc532809eae2000112bfb7,tynatvzzfl,"Affordance Norms_Prolific",1,28,2023-07-21T18:40:35+00:00,71.036068916321,18,"updated stim.csv",Version18.csv,"Version 18","List 18",thermos,,518,6,699,0.195516583,519,BOI,-,-,"Please name all of the ways you could use this object. Keep in mind that one object can have many uses. Separate your responses with a comma.",,y,70746,,,43798,66085,,,,"measuring tool, ",0.662
5adc532809eae2000112bfb7,tynatvzzfl,"Affordance Norms_Prolific",1,29,2023-07-21T18:41:18+00:00,42.90619301796,18,"updated stim.csv",Version18.csv,"Version 18","List 18",meteorologist,,535,4.8,197,0.341449251,536,BOI,-,-,"Please name all of the ways you could use this object. Keep in mind that one object can have many uses. Separate your responses with a comma.",,y,42670,,,12721,22658,,,,"predict weather, advise on weather, atmospheric scientists",0.912
5adc532809eae2000112bfb7,tynatvzzfl,"Affordance Norms_Prolific",1,30,2023-07-21T18:41:56+00:00,38.140388965607,18,"updated stim.csv",Version18.csv,"Version 18","List 18",gondola,,529,4.391304348,1366,0.759903521,530,BOI,-,-,"Please name all of the ways you could use this object. Keep in mind that one object can have many uses. Separate your responses with a comma.",,y,37956,,,31727,35551,,,,"lift, ski, boat",0.705
5adc532809eae2000112bfb7,tynatvzzfl,"Affordance Norms_Prolific",1,31,2023-07-21T18:42:18+00:00,21.247887134552,18,"updated stim.csv",Version18.csv,"Version 18","List 18",loudspeaker,,534,5.260869565,1492,0.304149864,535,BOI,-,-,"Please name all of the ways you could use this object. Keep in mind that one object can have many uses. Separate your responses with a comma.",,y,21052,,,10175,12847,,,,"sound, music, ",0.946
5adc532809eae2000112bfb7,tynatvzzfl,"Affordance Norms_Prolific",1,32,2023-07-21T18:42:47+00:00,29.811897993088,18,"updated stim.csv",Version18.csv,"Version 18","List 18",boutique,,523,5.269230769,2310,0.728002682,524,BOI,-,-,"Please name all of the ways you could use this object. Keep in mind that one object can have many uses. Separate your responses with a comma.",,y,29630,,,9418,27194,,,,"clothing store, shop, condo building",0.971
5adc532809eae2000112bfb7,tynatvzzfl,"Affordance Norms_Prolific",1,33,2023-07-21T18:43:55+00:00,67.616861820221,18,"updated stim.csv",Version18.csv,"Version 18","List 18",lice,,533,5.24,921,0.53592974,534,BOI,-,-,"Please name all of the ways you could use this object. Keep in mind that one object can have many uses. Separate your responses with a comma.",,y,67323,,,9863,64678,,,,"insects, feed on blood, wingless",0.922
5adc532809eae2000112bfb7,tynatvzzfl,"Affordance Norms_Prolific",1,34,2023-07-21T18:44:54+00:00,58.952389001846,18,"updated stim.csv",Version18.csv,"Version 18","List 18",nightdress,,536,5.730769231,1109,0.219592421,537,BOI,-,-,"Please name all of the ways you could use this object. Keep in mind that one object can have many uses. Separate your responses with a comma.",,y,58765,,,18657,56512,,,,"female, sleep wear",0.722
5adc532809eae2000112bfb7,tynatvzzfl,"Affordance Norms_Prolific",1,35,2023-07-21T18:45:29+00:00,35.008515119553,18,"updated stim.csv",Version18.csv,"Version 18","List 18",wax,,521,4.962962963,296,0.235786191,522,BOI,-,-,"Please name all of the ways you could use this object. Keep in mind that one object can have many uses. Separate your responses with a comma.",,y,34791,,,12499,32594,,,,"inside ear, removal of hair, floor cleaner",0.954
5adc532809eae2000112bfb7,tynatvzzfl,"Affordance Norms_Prolific",1,36,2023-07-21T18:45:58+00:00,29.459058046341,18,"updated stim.csv",Version18.csv,"Version 18","List 18",slipper,,514,5.259259259,1824,0.409410216,515,BOI,-,-,"Please name all of the ways you could use this object. Keep in mind that one object can have many uses. Separate your responses with a comma.",,y,29269,,,11545,26248,,,,"outside wear, indoor wear, rubber shoe",0.971
5adc532809eae2000112bfb7,tynatvzzfl,"Affordance Norms_Prolific",1,37,2023-07-21T18:46:22+00:00,23.676226854324,18,"updated stim.csv",Version18.csv,"Version 18","List 18",socket,,515,5,1184,0.014898881,516,BOI,-,-,"Please name all of the ways you could use this object. Keep in mind that one object can have many uses. Separate your responses with a comma.",,y,23482,,,14678,21045,,,,"plug, electricity,",0.89
5adc532809eae2000112bfb7,tynatvzzfl,"Affordance Norms_Prolific",1,38,2023-07-21T18:47:00+00:00,38.208669185638,18,"updated stim.csv",Version18.csv,"Version 18","List 18",winch,,522,5.592592593,803,0.012255055,523,BOI,-,-,"Please name all of the ways you could use this object. Keep in mind that one object can have many uses. Separate your responses with a comma.",,y,38035,,,25271,35334,,,,"wire cable, pulling in, ",0.811
5adc532809eae2000112bfb7,tynatvzzfl,"Affordance Norms_Prolific",1,39,2023-07-21T18:48:22+00:00,81.41185092926,18,"updated stim.csv",Version18.csv,"Version 18","List 18",turtle,,519,5.136363636,314,0.791797957,520,BOI,-,-,"Please name all of the ways you could use this object. Keep in mind that one object can have many uses. Separate your responses with a comma.",,y,81122,,,23358,77806,,,,"Reptile, pet, ",0.743
5adc532809eae2000112bfb7,tynatvzzfl,"Affordance Norms_Prolific",1,40,2023-07-21T18:48:56+00:00,34.32027387619,18,"updated stim.csv",Version18.csv,"Version 18","List 18",floss,,528,4.76,2684,0.433773044,529,BOI,-,-,"Please name all of the ways you could use this object. Keep in mind that one object can have many uses. Separate your responses with a comma.",,y,34131,,,2423,3895,,,,"teeth, ",0.753
5adc532809eae2000112bfb7,tynatvzzfl,"Affordance Norms_Prolific",1,41,2023-07-21T18:49:00+00:00,3.6534621715546,18,"updated stim.csv",Version18.csv,"Version 18","List 18",,,,,,,0,Instruct,,,"You will now be asked a few questions about your experience today.",,"Instruct 4",3308,,,-1,-1,,,,,1
