Username,ID,ExperimentName,Session,Trial,Date,TimeDif,"Condition Number","Stimuli File","Order File","Condition Description","Condition Notes",Stimuli*Cue,Stimuli*Answer,Stimuli*Shuffle,"Stimuli*Stimuli Notes",Stimuli*Value,Stimuli*Rand,Procedure*Item,"Procedure*Trial Type","Procedure*Max Time","Procedure*Min Time",Procedure*Text,"Procedure*Procedure Notes",Procedure*Shuffle,Response*RT,Response*Response,Response*Accuracy,Response*RTfirst,Response*RTlast,Response*strictAcc,Response*lenientAcc,Response*focus,Response*JOL,Response*Focus
5f8b3e6c7c5ba90f8e59fa4c,z7ewdchjo1,"Affordance Norms_Prolific",1,1,2023-07-21T18:54:41+00:00,11.305058002472,8,"updated stim.csv",Version8.csv,"Version 8","List 8",,,,,,,0,Instruct,-,10,"In this section, you will be presented with a series of objects. Please name as many possible uses for this object as you can think of by typing them in the box below each object.",,Instruct1,10829,,,-1,-1,,,,,1
5f8b3e6c7c5ba90f8e59fa4c,z7ewdchjo1,"Affordance Norms_Prolific",1,2,2023-07-21T18:54:53+00:00,11.404338121414,8,"updated stim.csv",Version8.csv,"Version 8","List 8",,,,,,,0,Instruct,-,10,"Please keep in mind that a single object will have more than one use. For example, a ball can be thrown or can be bounced or even stepped on. When listing multiple uses for one object, please separate each use with a comma (i.e., thrown, bounced, stepped on)",,Instruct2,10780,,,-1,-1,,,,,1
5f8b3e6c7c5ba90f8e59fa4c,z7ewdchjo1,"Affordance Norms_Prolific",1,3,2023-07-21T18:55:00+00:00,6.9336800575256,8,"updated stim.csv",Version8.csv,"Version 8","List 8",,,,,,,0,Instruct,-,-,"Before starting the experiment, you will complete a short practice sesstion. Press ENTER when you are ready to begin.",,Instruct3,6305,,,-1,-1,,,,,1
5f8b3e6c7c5ba90f8e59fa4c,z7ewdchjo1,"Affordance Norms_Prolific",1,4,2023-07-21T18:55:32+00:00,32.199359893799,8,"updated stim.csv",Version8.csv,"Version 8","List 8",spaghetti,,634,4.608695652,2807,0.295026168,635,BOI,-,-,"Please name all of the ways you could use this object. Keep in mind that one object can have many uses. Separate your responses with a comma.",,n,30478,,,9239,11660,,,,eaten,1
5f8b3e6c7c5ba90f8e59fa4c,z7ewdchjo1,"Affordance Norms_Prolific",1,5,2023-07-21T18:56:19+00:00,46.981333971024,8,"updated stim.csv",Version8.csv,"Version 8","List 8",paperwork,,632,4.28,439,0.557499565,633,BOI,-,-,"Please name all of the ways you could use this object. Keep in mind that one object can have many uses. Separate your responses with a comma.",,n,46344,,,14566,30962,,,,"Write on it, store data",1
5f8b3e6c7c5ba90f8e59fa4c,z7ewdchjo1,"Affordance Norms_Prolific",1,6,2023-07-21T18:57:11+00:00,52.289422988892,8,"updated stim.csv",Version8.csv,"Version 8","List 8",shortening,,633,4.961538462,2303,0.081957919,634,BOI,-,-,"Please name all of the ways you could use this object. Keep in mind that one object can have many uses. Separate your responses with a comma.",,n,51660,,,36312,49706,,,,"Make dough, cake mixture, toast",1
5f8b3e6c7c5ba90f8e59fa4c,z7ewdchjo1,"Affordance Norms_Prolific",1,7,2023-07-21T18:58:00+00:00,48.322744131088,8,"updated stim.csv",Version8.csv,"Version 8","List 8",grain,,635,4.708333333,1700,0.685106443,636,BOI,-,-,"Please name all of the ways you could use this object. Keep in mind that one object can have many uses. Separate your responses with a comma.",,n,47687,,,11357,46382,,,,"Make bread, make flour, eat it, mix it",1
5f8b3e6c7c5ba90f8e59fa4c,z7ewdchjo1,"Affordance Norms_Prolific",1,8,2023-07-21T18:58:20+00:00,20.524301052094,8,"updated stim.csv",Version8.csv,"Version 8","List 8",glove,,631,5.217391304,2788,0.288599309,632,BOI,-,-,"Please name all of the ways you could use this object. Keep in mind that one object can have many uses. Separate your responses with a comma.",,n,19699,,,2147,17027,,,,"wear it, step on it, slap someone with it",1
5f8b3e6c7c5ba90f8e59fa4c,z7ewdchjo1,"Affordance Norms_Prolific",1,9,2023-07-21T18:58:24+00:00,3.4620139598846,8,"updated stim.csv",Version8.csv,"Version 8","List 8",,,,,,,0,Instruct,-,-,"You have completed this section. Press ENTER to continue",,"Instruct 5",3105,,,-1,-1,,,,,1
5f8b3e6c7c5ba90f8e59fa4c,z7ewdchjo1,"Affordance Norms_Prolific",1,10,2023-07-21T18:58:30+00:00,5.9629409313202,8,"updated stim.csv",Version8.csv,"Version 8","List 8",,,,,,,0,Instruct,-,-,"You will now start the full experiment. Press ENTER when you are ready to begin.",,,5335,,,-1,-1,,,,,1
5f8b3e6c7c5ba90f8e59fa4c,z7ewdchjo1,"Affordance Norms_Prolific",1,11,2023-07-21T18:59:12+00:00,42.720635890961,8,"updated stim.csv",Version8.csv,"Version 8","List 8",piglet,,235,4.4,1625,0.181387363,236,BOI,-,-,"Please name all of the ways you could use this object. Keep in mind that one object can have many uses. Separate your responses with a comma.",,y,42086,,,8171,38841,,,,"Keep as a pet, make food out of it, raise it, play with it",1
5f8b3e6c7c5ba90f8e59fa4c,z7ewdchjo1,"Affordance Norms_Prolific",1,12,2023-07-21T19:00:09+00:00,56.530073165894,8,"updated stim.csv",Version8.csv,"Version 8","List 8",sand,,238,5.62962963,2010,0.625895758,239,BOI,-,-,"Please name all of the ways you could use this object. Keep in mind that one object can have many uses. Separate your responses with a comma.",,y,55899,,,2051,43646,,,,"build with it, make glass, used in concrete mix",1
5f8b3e6c7c5ba90f8e59fa4c,z7ewdchjo1,"Affordance Norms_Prolific",1,13,2023-07-21T19:01:18+00:00,68.871844053268,8,"updated stim.csv",Version8.csv,"Version 8","List 8",bunion,,228,6.16,2535,0.473992945,229,BOI,-,-,"Please name all of the ways you could use this object. Keep in mind that one object can have many uses. Separate your responses with a comma.",,y,68239,,,42857,65185,,,,"fix it, put back in place",1
5f8b3e6c7c5ba90f8e59fa4c,z7ewdchjo1,"Affordance Norms_Prolific",1,14,2023-07-21T19:02:02+00:00,44.294946908951,8,"updated stim.csv",Version8.csv,"Version 8","List 8",soybean,,220,6.24137931,103,0.11835624,221,BOI,-,-,"Please name all of the ways you could use this object. Keep in mind that one object can have many uses. Separate your responses with a comma.",,y,43657,,,3596,42164,,,,"soy milk, eat it, tofu, soy sauce",1
5f8b3e6c7c5ba90f8e59fa4c,z7ewdchjo1,"Affordance Norms_Prolific",1,15,2023-07-21T19:03:15+00:00,72.86293888092,8,"updated stim.csv",Version8.csv,"Version 8","List 8",picnicker,,215,4.62962963,1519,0.262823842,216,BOI,-,-,"Please name all of the ways you could use this object. Keep in mind that one object can have many uses. Separate your responses with a comma.",,y,72231,,,45057,61601,,,,"eat them",1
5f8b3e6c7c5ba90f8e59fa4c,z7ewdchjo1,"Affordance Norms_Prolific",1,16,2023-07-21T19:03:44+00:00,28.976320028305,8,"updated stim.csv",Version8.csv,"Version 8","List 8",lad,,231,4.545454545,558,0.033017559,232,BOI,-,-,"Please name all of the ways you could use this object. Keep in mind that one object can have many uses. Separate your responses with a comma.",,y,27917,,,5260,26455,,,,"befriend them, encourage them, gym",1
5f8b3e6c7c5ba90f8e59fa4c,z7ewdchjo1,"Affordance Norms_Prolific",1,17,2023-07-21T19:04:09+00:00,24.843616008759,8,"updated stim.csv",Version8.csv,"Version 8","List 8",nettle,,212,4.44,2187,0.118404242,213,BOI,-,-,"Please name all of the ways you could use this object. Keep in mind that one object can have many uses. Separate your responses with a comma.",,y,24004,,,2465,22434,,,,"sting someone, stew, sew, medical treatment",1
5f8b3e6c7c5ba90f8e59fa4c,z7ewdchjo1,"Affordance Norms_Prolific",1,18,2023-07-21T19:04:27+00:00,17.93106508255,8,"updated stim.csv",Version8.csv,"Version 8","List 8",hedgehog,,229,4.48,1351,0.733873145,230,BOI,-,-,"Please name all of the ways you could use this object. Keep in mind that one object can have many uses. Separate your responses with a comma.",,y,17289,,,6172,14251,,,,"pet it, raise it, tame it, feed it",1
5f8b3e6c7c5ba90f8e59fa4c,z7ewdchjo1,"Affordance Norms_Prolific",1,19,2023-07-21T19:05:10+00:00,43.340331077576,8,"updated stim.csv",Version8.csv,"Version 8","List 8",baseboard,,239,4.52,691,0.967555981,240,BOI,-,-,"Please name all of the ways you could use this object. Keep in mind that one object can have many uses. Separate your responses with a comma.",,y,42717,,,24513,35797,,,,"use it at the base of a wall in a house",1
5f8b3e6c7c5ba90f8e59fa4c,z7ewdchjo1,"Affordance Norms_Prolific",1,20,2023-07-21T19:05:26+00:00,15.965231895447,8,"updated stim.csv",Version8.csv,"Version 8","List 8",sapling,,216,5.260869565,1860,0.771460967,217,BOI,-,-,"Please name all of the ways you could use this object. Keep in mind that one object can have many uses. Separate your responses with a comma.",,y,15341,,,1992,9229,,,,"plant it, water it",1
5f8b3e6c7c5ba90f8e59fa4c,z7ewdchjo1,"Affordance Norms_Prolific",1,21,2023-07-21T19:05:58+00:00,32.103109121323,8,"updated stim.csv",Version8.csv,"Version 8","List 8",peel,,214,4.84,2302,0.90340916,215,BOI,-,-,"Please name all of the ways you could use this object. Keep in mind that one object can have many uses. Separate your responses with a comma.",,y,31462,,,17414,24188,,,,"skin it, eat it",1
5f8b3e6c7c5ba90f8e59fa4c,z7ewdchjo1,"Affordance Norms_Prolific",1,22,2023-07-21T19:06:13+00:00,15.237626791,8,"updated stim.csv",Version8.csv,"Version 8","List 8",lily,,233,5.545454545,1294,0.814565241,234,BOI,-,-,"Please name all of the ways you could use this object. Keep in mind that one object can have many uses. Separate your responses with a comma.",,y,14594,,,7348,12252,,,,"grow it, put it in water",1
5f8b3e6c7c5ba90f8e59fa4c,z7ewdchjo1,"Affordance Norms_Prolific",1,23,2023-07-21T19:06:56+00:00,42.36014509201,8,"updated stim.csv",Version8.csv,"Version 8","List 8",submarine,,223,4.454545455,2571,0.678876617,224,BOI,-,-,"Please name all of the ways you could use this object. Keep in mind that one object can have many uses. Separate your responses with a comma.",,y,41713,,,3257,38853,,,,"Military use, exploration, scientific research",1
5f8b3e6c7c5ba90f8e59fa4c,z7ewdchjo1,"Affordance Norms_Prolific",1,24,2023-07-21T19:07:28+00:00,32.119334936142,8,"updated stim.csv",Version8.csv,"Version 8","List 8",linoleum,,234,6.038461538,260,0.738290174,235,BOI,-,-,"Please name all of the ways you could use this object. Keep in mind that one object can have many uses. Separate your responses with a comma.",,y,29008,,,16771,27829,,,,"make a floor",1
5f8b3e6c7c5ba90f8e59fa4c,z7ewdchjo1,"Affordance Norms_Prolific",1,25,2023-07-21T19:07:40+00:00,12.072550058365,8,"updated stim.csv",Version8.csv,"Version 8","List 8",yolk,,226,4.35,1937,0.497580512,227,BOI,-,-,"Please name all of the ways you could use this object. Keep in mind that one object can have many uses. Separate your responses with a comma.",,y,11430,,,3294,8598,,,,"cook it, eat it, drink it",1
5f8b3e6c7c5ba90f8e59fa4c,z7ewdchjo1,"Affordance Norms_Prolific",1,26,2023-07-21T19:08:10+00:00,29.880470991135,8,"updated stim.csv",Version8.csv,"Version 8","List 8",speakers,,221,4.48,1689,0.151002659,222,BOI,-,-,"Please name all of the ways you could use this object. Keep in mind that one object can have many uses. Separate your responses with a comma.",,y,29246,,,2175,27952,,,,"listen to music, amplifying sound",1
5f8b3e6c7c5ba90f8e59fa4c,z7ewdchjo1,"Affordance Norms_Prolific",1,27,2023-07-21T19:08:30+00:00,19.961291074753,8,"updated stim.csv",Version8.csv,"Version 8","List 8",nipple,,213,4.92,76,0.32863745,214,BOI,-,-,"Please name all of the ways you could use this object. Keep in mind that one object can have many uses. Separate your responses with a comma.",,y,19315,,,4362,9627,,,,"feed babies",1
5f8b3e6c7c5ba90f8e59fa4c,z7ewdchjo1,"Affordance Norms_Prolific",1,28,2023-07-21T19:09:08+00:00,37.91934299469,8,"updated stim.csv",Version8.csv,"Version 8","List 8",ladybug,,232,4.272727273,445,0.110016369,233,BOI,-,-,"Please name all of the ways you could use this object. Keep in mind that one object can have many uses. Separate your responses with a comma.",,y,37282,,,14887,35951,,,,"collect them, agriculture",1
5f8b3e6c7c5ba90f8e59fa4c,z7ewdchjo1,"Affordance Norms_Prolific",1,29,2023-07-21T19:10:00+00:00,52.37125992775,8,"updated stim.csv",Version8.csv,"Version 8","List 8",scalp,,217,5.714285714,189,0.160382134,218,BOI,-,-,"Please name all of the ways you could use this object. Keep in mind that one object can have many uses. Separate your responses with a comma.",,y,51563,,,5238,29194,,,,"surgery, dissectting",1
5f8b3e6c7c5ba90f8e59fa4c,z7ewdchjo1,"Affordance Norms_Prolific",1,30,2023-07-21T19:10:29+00:00,29.134526968002,8,"updated stim.csv",Version8.csv,"Version 8","List 8",semen,,218,5.090909091,1863,0.914778388,219,BOI,-,-,"Please name all of the ways you could use this object. Keep in mind that one object can have many uses. Separate your responses with a comma.",,y,28501,,,9382,21040,,,,"making a baby",1
5f8b3e6c7c5ba90f8e59fa4c,z7ewdchjo1,"Affordance Norms_Prolific",1,31,2023-07-21T19:10:57+00:00,28.060055017471,8,"updated stim.csv",Version8.csv,"Version 8","List 8",insulin,,230,6,1060,0.931705867,231,BOI,-,-,"Please name all of the ways you could use this object. Keep in mind that one object can have many uses. Separate your responses with a comma.",,y,27421,,,4323,26224,,,,"saving lives, medical use, regulating blood sugarod",1
5f8b3e6c7c5ba90f8e59fa4c,z7ewdchjo1,"Affordance Norms_Prolific",1,32,2023-07-21T19:11:39+00:00,41.910434961319,8,"updated stim.csv",Version8.csv,"Version 8","List 8",saloon,,237,4.571428571,82,0.707229995,238,BOI,-,-,"Please name all of the ways you could use this object. Keep in mind that one object can have many uses. Separate your responses with a comma.",,y,40253,,,5954,39343,,,,"getting a drink, playing darts, playing card games",1
5f8b3e6c7c5ba90f8e59fa4c,z7ewdchjo1,"Affordance Norms_Prolific",1,33,2023-07-21T19:11:56+00:00,16.709221124649,8,"updated stim.csv",Version8.csv,"Version 8","List 8",woodcarver,,225,5.807692308,894,0.26688468,226,BOI,-,-,"Please name all of the ways you could use this object. Keep in mind that one object can have many uses. Separate your responses with a comma.",,y,15441,,,2651,10188,,,,"carving wood",1
5f8b3e6c7c5ba90f8e59fa4c,z7ewdchjo1,"Affordance Norms_Prolific",1,34,2023-07-21T19:12:17+00:00,20.870724916458,8,"updated stim.csv",Version8.csv,"Version 8","List 8",testicle,,224,4.409090909,925,0.140617165,225,BOI,-,-,"Please name all of the ways you could use this object. Keep in mind that one object can have many uses. Separate your responses with a comma.",,y,20233,,,14616,18397,,,,"production of sperm",1
5f8b3e6c7c5ba90f8e59fa4c,z7ewdchjo1,"Affordance Norms_Prolific",1,35,2023-07-21T19:12:38+00:00,21.393836975098,8,"updated stim.csv",Version8.csv,"Version 8","List 8",stoneware,,222,4.333333333,1183,0.64899298,223,BOI,-,-,"Please name all of the ways you could use this object. Keep in mind that one object can have many uses. Separate your responses with a comma.",,y,20731,,,4284,18822,,,,"stone pottery",1
5f8b3e6c7c5ba90f8e59fa4c,z7ewdchjo1,"Affordance Norms_Prolific",1,36,2023-07-21T19:13:04+00:00,25.757680177689,8,"updated stim.csv",Version8.csv,"Version 8","List 8",him,,211,5.375,852,0.400751294,212,BOI,-,-,"Please name all of the ways you could use this object. Keep in mind that one object can have many uses. Separate your responses with a comma.",,y,25121,,,4095,23853,,,,"befriend him, marry him, escape him",1
5f8b3e6c7c5ba90f8e59fa4c,z7ewdchjo1,"Affordance Norms_Prolific",1,37,2023-07-21T19:13:23+00:00,18.951896905899,8,"updated stim.csv",Version8.csv,"Version 8","List 8",rosewater,,236,5.269230769,2335,0.866817871,237,BOI,-,-,"Please name all of the ways you could use this object. Keep in mind that one object can have many uses. Separate your responses with a comma.",,y,18309,,,15071,17309,,,,"drink it",1
5f8b3e6c7c5ba90f8e59fa4c,z7ewdchjo1,"Affordance Norms_Prolific",1,38,2023-07-21T19:13:45+00:00,22.229950904846,8,"updated stim.csv",Version8.csv,"Version 8","List 8",armpit,,227,5.826086957,5,0.076040939,228,BOI,-,-,"Please name all of the ways you could use this object. Keep in mind that one object can have many uses. Separate your responses with a comma.",,y,21603,,,5776,18900,,,,"check temperature, deoderize it",1
5f8b3e6c7c5ba90f8e59fa4c,z7ewdchjo1,"Affordance Norms_Prolific",1,39,2023-07-21T19:14:15+00:00,30.021842956543,8,"updated stim.csv",Version8.csv,"Version 8","List 8",shed,,219,4.64,2738,0.501435614,220,BOI,-,-,"Please name all of the ways you could use this object. Keep in mind that one object can have many uses. Separate your responses with a comma.",,y,29389,,,4801,21380,,,,"store tools, make stuff",1
5f8b3e6c7c5ba90f8e59fa4c,z7ewdchjo1,"Affordance Norms_Prolific",1,40,2023-07-21T19:14:42+00:00,26.910323143005,8,"updated stim.csv",Version8.csv,"Version 8","List 8",bellboy,,240,5.47826087,2624,0.573904042,241,BOI,-,-,"Please name all of the ways you could use this object. Keep in mind that one object can have many uses. Separate your responses with a comma.",,y,26121,,,14866,24945,,,,"Carry my luggage, bring me stuff",1
5f8b3e6c7c5ba90f8e59fa4c,z7ewdchjo1,"Affordance Norms_Prolific",1,41,2023-07-21T19:14:44+00:00,2.3472790718079,8,"updated stim.csv",Version8.csv,"Version 8","List 8",,,,,,,0,Instruct,,,"You will now be asked a few questions about your experience today.",,"Instruct 4",1998,,,-1,-1,,,,,1
