Username,ID,ExperimentName,Session,Trial,Date,TimeDif,"Condition Number","Stimuli File","Order File","Condition Description","Condition Notes",Stimuli*Cue,Stimuli*Answer,Stimuli*Shuffle,"Stimuli*Stimuli Notes",Stimuli*Value,Stimuli*Rand,Procedure*Item,"Procedure*Trial Type","Procedure*Max Time","Procedure*Min Time",Procedure*Text,"Procedure*Procedure Notes",Procedure*Shuffle,Response*RT,Response*Response,Response*Accuracy,Response*RTfirst,Response*RTlast,Response*strictAcc,Response*lenientAcc,Response*focus,Response*JOL,Response*Focus
5d651665cad1a9001839839d,bs4fvurb08,"Affordance Norms_Prolific",1,1,2023-07-21T19:15:44+00:00,23.97524189949,12,"updated stim.csv",Version12.csv,"Version 12","List 12",,,,,,,0,Instruct,-,10,"In this section, you will be presented with a series of objects. Please name as many possible uses for this object as you can think of by typing them in the box below each object.",,Instruct1,23634,,,-1,-1,,,,,1
5d651665cad1a9001839839d,bs4fvurb08,"Affordance Norms_Prolific",1,2,2023-07-21T19:16:14+00:00,30.520708084106,12,"updated stim.csv",Version12.csv,"Version 12","List 12",,,,,,,0,Instruct,-,10,"Please keep in mind that a single object will have more than one use. For example, a ball can be thrown or can be bounced or even stepped on. When listing multiple uses for one object, please separate each use with a comma (i.e., thrown, bounced, stepped on)",,Instruct2,29898,,,-1,-1,,,,,1
5d651665cad1a9001839839d,bs4fvurb08,"Affordance Norms_Prolific",1,3,2023-07-21T19:16:28+00:00,13.588809967041,12,"updated stim.csv",Version12.csv,"Version 12","List 12",,,,,,,0,Instruct,-,-,"Before starting the experiment, you will complete a short practice sesstion. Press ENTER when you are ready to begin.",,Instruct3,13004,,,-1,-1,,,,,1
5d651665cad1a9001839839d,bs4fvurb08,"Affordance Norms_Prolific",1,4,2023-07-21T19:16:37+00:00,9.2561430931091,12,"updated stim.csv",Version12.csv,"Version 12","List 12",paperwork,,632,4.28,439,0.557499565,633,BOI,-,-,"Please name all of the ways you could use this object. Keep in mind that one object can have many uses. Separate your responses with a comma.",,n,8663,,,1916,6726,,,,"write,file,burn",1
5d651665cad1a9001839839d,bs4fvurb08,"Affordance Norms_Prolific",1,5,2023-07-21T19:16:45+00:00,7.9913139343262,12,"updated stim.csv",Version12.csv,"Version 12","List 12",spaghetti,,634,4.608695652,2807,0.295026168,635,BOI,-,-,"Please name all of the ways you could use this object. Keep in mind that one object can have many uses. Separate your responses with a comma.",,n,7627,,,1620,5526,,,,"eat,art,cook",1
5d651665cad1a9001839839d,bs4fvurb08,"Affordance Norms_Prolific",1,6,2023-07-21T19:17:05+00:00,19.577138900757,12,"updated stim.csv",Version12.csv,"Version 12","List 12",shortening,,633,4.961538462,2303,0.081957919,634,BOI,-,-,"Please name all of the ways you could use this object. Keep in mind that one object can have many uses. Separate your responses with a comma.",,n,19194,,,17892,18426,,,,items,1
5d651665cad1a9001839839d,bs4fvurb08,"Affordance Norms_Prolific",1,7,2023-07-21T19:17:17+00:00,12.451055049896,12,"updated stim.csv",Version12.csv,"Version 12","List 12",glove,,631,5.217391304,2788,0.288599309,632,BOI,-,-,"Please name all of the ways you could use this object. Keep in mind that one object can have many uses. Separate your responses with a comma.",,n,12026,,,1471,2888,,,,wear,1
5d651665cad1a9001839839d,bs4fvurb08,"Affordance Norms_Prolific",1,8,2023-07-21T19:17:25+00:00,8.1198151111603,12,"updated stim.csv",Version12.csv,"Version 12","List 12",grain,,635,4.708333333,1700,0.685106443,636,BOI,-,-,"Please name all of the ways you could use this object. Keep in mind that one object can have many uses. Separate your responses with a comma.",,n,7740,,,1438,6787,,,,"eat,decorate",1
5d651665cad1a9001839839d,bs4fvurb08,"Affordance Norms_Prolific",1,9,2023-07-21T19:17:29+00:00,3.0992319583893,12,"updated stim.csv",Version12.csv,"Version 12","List 12",,,,,,,0,Instruct,-,-,"You have completed this section. Press ENTER to continue",,"Instruct 5",2470,,,-1,-1,,,,,1
5d651665cad1a9001839839d,bs4fvurb08,"Affordance Norms_Prolific",1,10,2023-07-21T19:17:31+00:00,2.5167808532715,12,"updated stim.csv",Version12.csv,"Version 12","List 12",,,,,,,0,Instruct,-,-,"You will now start the full experiment. Press ENTER when you are ready to begin.",,,2016,,,-1,-1,,,,,1
5d651665cad1a9001839839d,bs4fvurb08,"Affordance Norms_Prolific",1,11,2023-07-21T19:17:51+00:00,19.588499069214,12,"updated stim.csv",Version12.csv,"Version 12","List 12",children,,345,5.32,193,0.704074452,346,BOI,-,-,"Please name all of the ways you could use this object. Keep in mind that one object can have many uses. Separate your responses with a comma.",,y,19013,,,17075,17986,,,,labour,1
5d651665cad1a9001839839d,bs4fvurb08,"Affordance Norms_Prolific",1,12,2023-07-21T19:18:02+00:00,11.379262924194,12,"updated stim.csv",Version12.csv,"Version 12","List 12",lump,,359,4.916666667,584,0.98810054,360,BOI,-,-,"Please name all of the ways you could use this object. Keep in mind that one object can have many uses. Separate your responses with a comma.",,y,10939,,,6986,9844,,,,decoration,1
5d651665cad1a9001839839d,bs4fvurb08,"Affordance Norms_Prolific",1,13,2023-07-21T19:18:12+00:00,9.5382690429688,12,"updated stim.csv",Version12.csv,"Version 12","List 12",hutch,,355,5.260869565,1974,0.365615857,356,BOI,-,-,"Please name all of the ways you could use this object. Keep in mind that one object can have many uses. Separate your responses with a comma.",,y,9113,,,2322,8039,,,,"keep pets",1
5d651665cad1a9001839839d,bs4fvurb08,"Affordance Norms_Prolific",1,14,2023-07-21T19:18:17+00:00,5.4598000049591,12,"updated stim.csv",Version12.csv,"Version 12","List 12",trainer,,334,5.626180837,2568,0.200879423,335,BOI,-,-,"Please name all of the ways you could use this object. Keep in mind that one object can have many uses. Separate your responses with a comma.",,y,4768,,,2046,2687,,,,wear,1
5d651665cad1a9001839839d,bs4fvurb08,"Affordance Norms_Prolific",1,15,2023-07-21T19:18:21+00:00,4.2210490703583,12,"updated stim.csv",Version12.csv,"Version 12","List 12",dermatologist,,349,5.875,2714,0.989271668,350,BOI,-,-,"Please name all of the ways you could use this object. Keep in mind that one object can have many uses. Separate your responses with a comma.",,y,3747,,,2023,2654,,,,visit,1
5d651665cad1a9001839839d,bs4fvurb08,"Affordance Norms_Prolific",1,16,2023-07-21T19:18:40+00:00,18.734001874924,12,"updated stim.csv",Version12.csv,"Version 12","List 12",thumbnail,,333,5.583333333,493,0.717474064,334,BOI,-,-,"Please name all of the ways you could use this object. Keep in mind that one object can have many uses. Separate your responses with a comma.",,y,15436,,,4249,14597,,,,"youtube,photo,website,book",1
5d651665cad1a9001839839d,bs4fvurb08,"Affordance Norms_Prolific",1,17,2023-07-21T19:18:54+00:00,14.045325040817,12,"updated stim.csv",Version12.csv,"Version 12","List 12",foliage,,351,5.958333333,865,0.537684107,352,BOI,-,-,"Please name all of the ways you could use this object. Keep in mind that one object can have many uses. Separate your responses with a comma.",,y,13541,,,2669,12684,,,,"decoration,gardening,crafting",1
5d651665cad1a9001839839d,bs4fvurb08,"Affordance Norms_Prolific",1,18,2023-07-21T19:18:59+00:00,5.2452390193939,12,"updated stim.csv",Version12.csv,"Version 12","List 12",workroom,,337,4.37037037,164,0.261790448,338,BOI,-,-,"Please name all of the ways you could use this object. Keep in mind that one object can have many uses. Separate your responses with a comma.",,y,4615,,,2864,3513,,,,working,1
5d651665cad1a9001839839d,bs4fvurb08,"Affordance Norms_Prolific",1,19,2023-07-21T19:19:05+00:00,5.6023540496826,12,"updated stim.csv",Version12.csv,"Version 12","List 12",gown,,352,5.346153846,1586,0.963710737,353,BOI,-,-,"Please name all of the ways you could use this object. Keep in mind that one object can have many uses. Separate your responses with a comma.",,y,4976,,,1427,2199,,,,wear,1
5d651665cad1a9001839839d,bs4fvurb08,"Affordance Norms_Prolific",1,20,2023-07-21T19:19:10+00:00,4.7269330024719,12,"updated stim.csv",Version12.csv,"Version 12","List 12",bosom,,342,5.523809524,1628,0.940541237,343,BOI,-,-,"Please name all of the ways you could use this object. Keep in mind that one object can have many uses. Separate your responses with a comma.",,y,4106,,,2183,3311,,,,"sleep on",1
5d651665cad1a9001839839d,bs4fvurb08,"Affordance Norms_Prolific",1,21,2023-07-21T19:19:15+00:00,5.1654260158539,12,"updated stim.csv",Version12.csv,"Version 12","List 12",teacup,,332,4.76,2202,0.999381206,333,BOI,-,-,"Please name all of the ways you could use this object. Keep in mind that one object can have many uses. Separate your responses with a comma.",,y,4655,,,1588,4430,,,,"drink from, candle",1
5d651665cad1a9001839839d,bs4fvurb08,"Affordance Norms_Prolific",1,22,2023-07-21T19:19:22+00:00,7.3038790225983,12,"updated stim.csv",Version12.csv,"Version 12","List 12",lens,,357,4.625,2450,0.34986421,358,BOI,-,-,"Please name all of the ways you could use this object. Keep in mind that one object can have many uses. Separate your responses with a comma.",,y,6826,,,2670,4328,,,,"look through",1
5d651665cad1a9001839839d,bs4fvurb08,"Affordance Norms_Prolific",1,23,2023-07-21T19:19:36+00:00,14.055629968643,12,"updated stim.csv",Version12.csv,"Version 12","List 12",aluminum,,339,4.703703704,1714,0.382484128,340,BOI,-,-,"Please name all of the ways you could use this object. Keep in mind that one object can have many uses. Separate your responses with a comma.",,y,13683,,,2261,12754,,,,"wrap food, heat, cook, craft",1
5d651665cad1a9001839839d,bs4fvurb08,"Affordance Norms_Prolific",1,24,2023-07-21T19:19:44+00:00,7.6655540466309,12,"updated stim.csv",Version12.csv,"Version 12","List 12",assemblyman,,340,4.36,1582,0.724230565,341,BOI,-,-,"Please name all of the ways you could use this object. Keep in mind that one object can have many uses. Separate your responses with a comma.",,y,7321,,,4153,6476,,,,labour,1
5d651665cad1a9001839839d,bs4fvurb08,"Affordance Norms_Prolific",1,25,2023-07-21T19:19:51+00:00,7.6569919586182,12,"updated stim.csv",Version12.csv,"Version 12","List 12",worksheet,,338,5.821428571,1741,0.573731001,339,BOI,-,-,"Please name all of the ways you could use this object. Keep in mind that one object can have many uses. Separate your responses with a comma.",,y,7129,,,4520,6503,,,,"write on",1
5d651665cad1a9001839839d,bs4fvurb08,"Affordance Norms_Prolific",1,26,2023-07-21T19:19:57+00:00,5.3589890003204,12,"updated stim.csv",Version12.csv,"Version 12","List 12",ledger,,356,4.392857143,2360,0.644561162,357,BOI,-,-,"Please name all of the ways you could use this object. Keep in mind that one object can have many uses. Separate your responses with a comma.",,y,4969,,,1698,4629,,,,"write in",1
5d651665cad1a9001839839d,bs4fvurb08,"Affordance Norms_Prolific",1,27,2023-07-21T19:20:03+00:00,5.9170300960541,12,"updated stim.csv",Version12.csv,"Version 12","List 12",greens,,353,4.64,156,0.909538497,354,BOI,-,-,"Please name all of the ways you could use this object. Keep in mind that one object can have many uses. Separate your responses with a comma.",,y,4353,,,2130,3453,,,,eat,1
5d651665cad1a9001839839d,bs4fvurb08,"Affordance Norms_Prolific",1,28,2023-07-21T19:20:12+00:00,9.4914939403534,12,"updated stim.csv",Version12.csv,"Version 12","List 12",nursemaid,,360,5.041666667,2365,0.714334081,361,BOI,-,-,"Please name all of the ways you could use this object. Keep in mind that one object can have many uses. Separate your responses with a comma.",,y,9126,,,5390,8323,,,,"dont know what that is",1
5d651665cad1a9001839839d,bs4fvurb08,"Affordance Norms_Prolific",1,29,2023-07-21T19:20:18+00:00,5.6975438594818,12,"updated stim.csv",Version12.csv,"Version 12","List 12",clerk,,347,5.76,620,0.735373904,348,BOI,-,-,"Please name all of the ways you could use this object. Keep in mind that one object can have many uses. Separate your responses with a comma.",,y,5325,,,3386,4157,,,,labour,1
5d651665cad1a9001839839d,bs4fvurb08,"Affordance Norms_Prolific",1,30,2023-07-21T19:20:24+00:00,5.7088570594788,12,"updated stim.csv",Version12.csv,"Version 12","List 12",coaster,,348,4.962962963,567,0.361293617,349,BOI,-,-,"Please name all of the ways you could use this object. Keep in mind that one object can have many uses. Separate your responses with a comma.",,y,5283,,,1622,4468,,,,"put drinks on",1
5d651665cad1a9001839839d,bs4fvurb08,"Affordance Norms_Prolific",1,31,2023-07-21T19:20:29+00:00,5.6418170928955,12,"updated stim.csv",Version12.csv,"Version 12","List 12",urn,,335,4.28,750,0.234031096,336,BOI,-,-,"Please name all of the ways you could use this object. Keep in mind that one object can have many uses. Separate your responses with a comma.",,y,5236,,,1743,4726,,,,"keep ashes in",1
5d651665cad1a9001839839d,bs4fvurb08,"Affordance Norms_Prolific",1,32,2023-07-21T19:20:44+00:00,14.644071817398,12,"updated stim.csv",Version12.csv,"Version 12","List 12",chin,,346,4.32,1064,0.562088746,347,BOI,-,-,"Please name all of the ways you could use this object. Keep in mind that one object can have many uses. Separate your responses with a comma.",,y,14202,,,10083,13367,,,,"scratch,hold",1
5d651665cad1a9001839839d,bs4fvurb08,"Affordance Norms_Prolific",1,33,2023-07-21T19:20:52+00:00,7.9785280227661,12,"updated stim.csv",Version12.csv,"Version 12","List 12",cartridge,,344,5.84,2542,0.41824356,345,BOI,-,-,"Please name all of the ways you could use this object. Keep in mind that one object can have many uses. Separate your responses with a comma.",,y,7555,,,3416,6850,,,,storage,1
5d651665cad1a9001839839d,bs4fvurb08,"Affordance Norms_Prolific",1,34,2023-07-21T19:20:59+00:00,7.4082951545715,12,"updated stim.csv",Version12.csv,"Version 12","List 12",hickory,,354,4.583333333,1325,0.78313885,355,BOI,-,-,"Please name all of the ways you could use this object. Keep in mind that one object can have many uses. Separate your responses with a comma.",,y,6432,,,4509,5674,,,,spice,1
5d651665cad1a9001839839d,bs4fvurb08,"Affordance Norms_Prolific",1,35,2023-07-21T19:21:06+00:00,6.6233179569244,12,"updated stim.csv",Version12.csv,"Version 12","List 12",broomstick,,343,5.916666667,1015,0.960657599,344,BOI,-,-,"Please name all of the ways you could use this object. Keep in mind that one object can have many uses. Separate your responses with a comma.",,y,6230,,,1965,5511,,,,"clean, costume",1
5d651665cad1a9001839839d,bs4fvurb08,"Affordance Norms_Prolific",1,36,2023-07-21T19:21:11+00:00,4.7225620746613,12,"updated stim.csv",Version12.csv,"Version 12","List 12",walrus,,336,4.541666667,808,0.423772685,337,BOI,-,-,"Please name all of the ways you could use this object. Keep in mind that one object can have many uses. Separate your responses with a comma.",,y,4278,,,3083,3483,,,,pet,1
5d651665cad1a9001839839d,bs4fvurb08,"Affordance Norms_Prolific",1,37,2023-07-21T19:21:18+00:00,7.4048888683319,12,"updated stim.csv",Version12.csv,"Version 12","List 12",backboard,,341,5.086956522,1291,0.796894413,342,BOI,-,-,"Please name all of the ways you could use this object. Keep in mind that one object can have many uses. Separate your responses with a comma.",,y,7018,,,4711,5596,,,,injury,1
5d651665cad1a9001839839d,bs4fvurb08,"Affordance Norms_Prolific",1,38,2023-07-21T19:21:27+00:00,8.5221080780029,12,"updated stim.csv",Version12.csv,"Version 12","List 12",tablecloth,,331,4.791666667,384,0.176677262,332,BOI,-,-,"Please name all of the ways you could use this object. Keep in mind that one object can have many uses. Separate your responses with a comma.",,y,8128,,,1683,6739,,,,"cover table, costume",1
5d651665cad1a9001839839d,bs4fvurb08,"Affordance Norms_Prolific",1,39,2023-07-21T19:21:33+00:00,6.622936964035,12,"updated stim.csv",Version12.csv,"Version 12","List 12",limb,,358,5.041666667,482,0.737715679,359,BOI,-,-,"Please name all of the ways you could use this object. Keep in mind that one object can have many uses. Separate your responses with a comma.",,y,6144,,,1923,4495,,,,"walk, run, write",1
5d651665cad1a9001839839d,bs4fvurb08,"Affordance Norms_Prolific",1,40,2023-07-21T19:21:43+00:00,10.169492006302,12,"updated stim.csv",Version12.csv,"Version 12","List 12",fishbone,,350,4.782608696,2378,0.890528918,351,BOI,-,-,"Please name all of the ways you could use this object. Keep in mind that one object can have many uses. Separate your responses with a comma.",,y,9677,,,7953,8401,,,,cook,1
5d651665cad1a9001839839d,bs4fvurb08,"Affordance Norms_Prolific",1,41,2023-07-21T19:21:46+00:00,2.6609220504761,12,"updated stim.csv",Version12.csv,"Version 12","List 12",,,,,,,0,Instruct,,,"You will now be asked a few questions about your experience today.",,"Instruct 4",2204,,,-1,-1,,,,,1
