Username,ID,ExperimentName,Session,Trial,Date,TimeDif,Condition.Number,Stimuli.File,Order.File,Condition.Description,Condition.Notes,Stimuli.Cue,Stimuli.Answer,Stimuli.Shuffle,Stimuli.Stimuli.Notes,Stimuli.Value,Procedure.Item,Procedure.Trial.Type,Procedure.Max.Time,Procedure.Min.Time,Procedure.Text,Procedure.Procedure.Notes,Procedure.Shuffle,Response.RT,Response.Response,Response.Accuracy,Response.RTfirst,Response.RTlast,Response.strictAcc,Response.lenientAcc,Response.focus,Response.JOL,Response.Focus,group
M10248901KMM,pvrv7mbylv,Affordance Norms_MSU_TEX,1,11,2022-10-02T00:27:20+00:00,38.88425517,8,updated stim.csv,Version8.csv,Version 8,List 8,excavator,NA,224,4.409090909,925,225,BOI,-,-,Please name all of the ways you could use this object. Keep in mind that one object can have many uses. Separate your responses with a comma.,NA,y,38260,NA,NA,5843,35377,NA,NA,NA,"move things, create holes, dig, ride in, drive ",1,MSU_TEXAS
M10248901KMM,pvrv7mbylv,Affordance Norms_MSU_TEX,1,12,2022-10-02T00:27:22+00:00,1.687783003,8,updated stim.csv,Version8.csv,Version 8,List 8,roll,NA,212,4.44,2187,213,BOI,-,-,Please name all of the ways you could use this object. Keep in mind that one object can have many uses. Separate your responses with a comma.,NA,y,886,NA,NA,-1,-1,NA,NA,NA,,1,MSU_TEXAS
M10248901KMM,pvrv7mbylv,Affordance Norms_MSU_TEX,1,13,2022-10-02T00:28:25+00:00,63.46119785,8,updated stim.csv,Version8.csv,Version 8,List 8,strongbox,NA,223,4.454545455,2571,224,BOI,-,-,Please name all of the ways you could use this object. Keep in mind that one object can have many uses. Separate your responses with a comma.,NA,y,62880,NA,NA,26840,60226,NA,NA,NA,"store personal items, sit on, kick, carry",1,MSU_TEXAS
M10248901KMM,pvrv7mbylv,Affordance Norms_MSU_TEX,1,14,2022-10-02T00:29:36+00:00,70.97698212,8,updated stim.csv,Version8.csv,Version 8,List 8,paperback,NA,218,5.090909091,1863,219,BOI,-,-,Please name all of the ways you could use this object. Keep in mind that one object can have many uses. Separate your responses with a comma.,NA,y,69950,NA,NA,16844,68367,NA,NA,NA,"tear, bend, write on, sit on, throw, read, rip, brand,set on fire, ",1,MSU_TEXAS
M10248901KMM,pvrv7mbylv,Affordance Norms_MSU_TEX,1,15,2022-10-02T00:30:18+00:00,41.73962283,8,updated stim.csv,Version8.csv,Version 8,List 8,plum,NA,238,5.62962963,2010,239,BOI,-,-,Please name all of the ways you could use this object. Keep in mind that one object can have many uses. Separate your responses with a comma.,NA,y,40733,NA,NA,1896,38929,NA,NA,NA,"eat, slice, dice, crush, hit, dehydrate, bake, pick, eat",1,MSU_TEXAS
M10248901KMM,pvrv7mbylv,Affordance Norms_MSU_TEX,1,16,2022-10-02T00:31:59+00:00,100.9256382,8,updated stim.csv,Version8.csv,Version 8,List 8,body,NA,234,6.038461538,260,235,BOI,-,-,Please name all of the ways you could use this object. Keep in mind that one object can have many uses. Separate your responses with a comma.,NA,y,99906,NA,NA,3408,84537,NA,NA,NA,"run, jump, sit, walk, move, twist, bend, break, nourish, feed, love, to have sex, give hugs, pump up, excite ",1,MSU_TEXAS
M10248901KMM,pvrv7mbylv,Affordance Norms_MSU_TEX,1,17,2022-10-02T00:33:37+00:00,97.96115589,8,updated stim.csv,Version8.csv,Version 8,List 8,tailcoat,NA,240,5.47826087,2624,241,BOI,-,-,Please name all of the ways you could use this object. Keep in mind that one object can have many uses. Separate your responses with a comma.,NA,y,96963,NA,NA,4790,93509,NA,NA,NA,"sew, cut, rip, tuck, squeeze, stitch, dye",1,MSU_TEXAS
M10248901KMM,pvrv7mbylv,Affordance Norms_MSU_TEX,1,18,2022-10-02T00:34:44+00:00,67.01294708,8,updated stim.csv,Version8.csv,Version 8,List 8,motel,NA,221,4.48,1689,222,BOI,-,-,Please name all of the ways you could use this object. Keep in mind that one object can have many uses. Separate your responses with a comma.,NA,y,65951,NA,NA,4347,56142,NA,NA,NA,"sleep, eat, relax, drink, party, sex, shelter, home, swim",1,MSU_TEXAS
M10248901KMM,pvrv7mbylv,Affordance Norms_MSU_TEX,1,19,2022-10-02T00:36:25+00:00,101.5619209,8,updated stim.csv,Version8.csv,Version 8,List 8,seating,NA,214,4.84,2302,215,BOI,-,-,Please name all of the ways you could use this object. Keep in mind that one object can have many uses. Separate your responses with a comma.,NA,y,100461,NA,NA,21396,98570,NA,NA,NA,"sit, stand on, spill on, organize, separate, divide",1,MSU_TEXAS
M10248901KMM,pvrv7mbylv,Affordance Norms_MSU_TEX,1,20,2022-10-02T00:37:24+00:00,58.60192895,8,updated stim.csv,Version8.csv,Version 8,List 8,torchlight,NA,219,4.64,2738,220,BOI,-,-,Please name all of the ways you could use this object. Keep in mind that one object can have many uses. Separate your responses with a comma.,NA,y,57684,NA,NA,7249,48386,NA,NA,NA,"see, light things on fire, ambiance, illuminate, keep mosquitoes away",1,MSU_TEXAS
M10248901KMM,pvrv7mbylv,Affordance Norms_MSU_TEX,1,21,2022-10-02T00:38:59+00:00,94.99839115,8,updated stim.csv,Version8.csv,Version 8,List 8,ashcan,NA,237,4.571428571,82,238,BOI,-,-,Please name all of the ways you could use this object. Keep in mind that one object can have many uses. Separate your responses with a comma.,NA,y,93972,NA,NA,4627,92723,NA,NA,NA,"sit on, put ashes in, clean, throw, hit, kick, store items, planter, light on fire, use as a toilet, pee in",1,MSU_TEXAS
M10248901KMM,pvrv7mbylv,Affordance Norms_MSU_TEX,1,22,2022-10-02T00:41:22+00:00,142.90747,8,updated stim.csv,Version8.csv,Version 8,List 8,client,NA,231,4.545454545,558,232,BOI,-,-,Please name all of the ways you could use this object. Keep in mind that one object can have many uses. Separate your responses with a comma.,NA,y,141957,NA,NA,4632,139362,NA,NA,NA,"be their friend, help them, love them, hate them, create more relationships, have sex with them, hit them, advise them, spend time with them, kiss them, engage them",1,MSU_TEXAS
M10248901KMM,pvrv7mbylv,Affordance Norms_MSU_TEX,1,23,2022-10-02T00:43:35+00:00,132.9035571,8,updated stim.csv,Version8.csv,Version 8,List 8,phalanges,NA,226,4.35,1937,227,BOI,-,-,Please name all of the ways you could use this object. Keep in mind that one object can have many uses. Separate your responses with a comma.,NA,y,131901,NA,NA,7791,129626,NA,NA,NA,"hold things, touch, lick them, to caress, give someone the bird, cross them, put rings on them, stroke, pet an animal, flush the toilet, drive, eating, throwing a football, using a key to open the door, break, sprain",1,MSU_TEXAS
M10248901KMM,pvrv7mbylv,Affordance Norms_MSU_TEX,1,24,2022-10-02T00:45:27+00:00,112.653054,8,updated stim.csv,Version8.csv,Version 8,List 8,creek,NA,239,4.52,691,240,BOI,-,-,Please name all of the ways you could use this object. Keep in mind that one object can have many uses. Separate your responses with a comma.,NA,y,111651,NA,NA,2905,107621,NA,NA,NA,"swim in, eat from, drinking water, skip rocks, sit in, cross, boat, kayak",1,MSU_TEXAS
M10248901KMM,pvrv7mbylv,Affordance Norms_MSU_TEX,1,25,2022-10-02T00:46:26+00:00,58.69736791,8,updated stim.csv,Version8.csv,Version 8,List 8,eggplant,NA,225,5.807692308,894,226,BOI,-,-,Please name all of the ways you could use this object. Keep in mind that one object can have many uses. Separate your responses with a comma.,NA,y,57750,NA,NA,3090,47051,NA,NA,NA,"eat, grow, feed, pick, cook, steam, grill, slice, dice, chop ",1,MSU_TEXAS
M10248901KMM,pvrv7mbylv,Affordance Norms_MSU_TEX,1,26,2022-10-02T00:48:06+00:00,100.4654779,8,updated stim.csv,Version8.csv,Version 8,List 8,hoe,NA,233,5.545454545,1294,234,BOI,-,-,Please name all of the ways you could use this object. Keep in mind that one object can have many uses. Separate your responses with a comma.,NA,y,99319,NA,NA,9288,97740,NA,NA,NA,"scrap, clean, loosen, chop, dig, create, sit, move, hold, touch, hit with, store",1,MSU_TEXAS
M10248901KMM,pvrv7mbylv,Affordance Norms_MSU_TEX,1,27,2022-10-02T00:49:20+00:00,73.24719,8,updated stim.csv,Version8.csv,Version 8,List 8,pantry,NA,216,5.260869565,1860,217,BOI,-,-,Please name all of the ways you could use this object. Keep in mind that one object can have many uses. Separate your responses with a comma.,NA,y,72158,NA,NA,3968,70944,NA,NA,NA,"store food in, walk in, paint, put trash in it, hide in it ",1,MSU_TEXAS
M10248901KMM,pvrv7mbylv,Affordance Norms_MSU_TEX,1,28,2022-10-02T00:51:30+00:00,130.7585301,8,updated stim.csv,Version8.csv,Version 8,List 8,fruit,NA,230,6,1060,231,BOI,-,-,Please name all of the ways you could use this object. Keep in mind that one object can have many uses. Separate your responses with a comma.,NA,y,129536,NA,NA,2686,126543,NA,NA,NA,"eat, cut, bake, decorate, throw, smash, grow, water, peel, cut, in a salad, pack it, sell it",1,MSU_TEXAS
M10248901KMM,pvrv7mbylv,Affordance Norms_MSU_TEX,1,29,2022-10-02T00:53:30+00:00,119.568615,8,updated stim.csv,Version8.csv,Version 8,List 8,matter,NA,235,4.4,1625,236,BOI,-,-,Please name all of the ways you could use this object. Keep in mind that one object can have many uses. Separate your responses with a comma.,NA,y,118536,NA,NA,9299,117081,NA,NA,NA,"eat, crush, bite, hit, kick, pull, push, sit on, lay on, feel, smell, see, squeeze, cut, open, kiss, hug, run on, walk on, lift, water, turn on, turn off, spray, open, close it, bake, grill, pinch, taste",1,MSU_TEXAS
M10248901KMM,pvrv7mbylv,Affordance Norms_MSU_TEX,1,30,2022-10-02T00:54:40+00:00,70.04179287,8,updated stim.csv,Version8.csv,Version 8,List 8,accordion,NA,227,5.826086957,5,228,BOI,-,-,Please name all of the ways you could use this object. Keep in mind that one object can have many uses. Separate your responses with a comma.,NA,y,69010,NA,NA,2238,68005,NA,NA,NA,"move, squeeze, close, open, listen, practice on, enjoy, break, step on, cut, draw on, put away, play",1,MSU_TEXAS
M10248901KMM,pvrv7mbylv,Affordance Norms_MSU_TEX,1,31,2022-10-02T00:55:52+00:00,71.67509913,8,updated stim.csv,Version8.csv,Version 8,List 8,beef,NA,217,5.714285714,189,218,BOI,-,-,Please name all of the ways you could use this object. Keep in mind that one object can have many uses. Separate your responses with a comma.,NA,y,70680,NA,NA,7041,67478,NA,NA,NA,"eat, cut, store, wrap, grill, seer, dice, chop, bake, fry, throw, store, touch",1,MSU_TEXAS
M10248901KMM,pvrv7mbylv,Affordance Norms_MSU_TEX,1,32,2022-10-02T01:01:09+00:00,317.027148,8,updated stim.csv,Version8.csv,Version 8,List 8,shelter,NA,236,5.269230769,2335,237,BOI,-,-,Please name all of the ways you could use this object. Keep in mind that one object can have many uses. Separate your responses with a comma.,NA,y,316043,NA,NA,202021,294613,NA,NA,NA,"safety, live in, hide, keep warm, eat, play, love, renovate, clean, shower, build",1,MSU_TEXAS
M10248901KMM,pvrv7mbylv,Affordance Norms_MSU_TEX,1,33,2022-10-02T01:03:38+00:00,148.83237,8,updated stim.csv,Version8.csv,Version 8,List 8,case,NA,232,4.272727273,445,233,BOI,-,-,Please name all of the ways you could use this object. Keep in mind that one object can have many uses. Separate your responses with a comma.,NA,y,148237,NA,NA,2317,146931,NA,NA,NA,"solve, store, keep safe, touch, carry, break, sit on, buy, sell",1,MSU_TEXAS
M10248901KMM,pvrv7mbylv,Affordance Norms_MSU_TEX,1,34,2022-10-02T01:04:56+00:00,78.86433291,8,updated stim.csv,Version8.csv,Version 8,List 8,avocado,NA,220,6.24137931,103,221,BOI,-,-,Please name all of the ways you could use this object. Keep in mind that one object can have many uses. Separate your responses with a comma.,NA,y,77829,NA,NA,3418,75880,NA,NA,NA,"eat, slice, dice, cut, smash, peel, salt, grow, sell, stack",1,MSU_TEXAS
M10248901KMM,pvrv7mbylv,Affordance Norms_MSU_TEX,1,35,2022-10-02T01:06:47+00:00,110.692791,8,updated stim.csv,Version8.csv,Version 8,List 8,arrow,NA,213,4.92,76,214,BOI,-,-,Please name all of the ways you could use this object. Keep in mind that one object can have many uses. Separate your responses with a comma.,NA,y,109684,NA,NA,1763,96494,NA,NA,NA,"throw, shoot, cut, break, combine with others, point, slice, dice, stick, ",1,MSU_TEXAS
M10248901KMM,pvrv7mbylv,Affordance Norms_MSU_TEX,1,36,2022-10-02T01:08:55+00:00,128.0736051,8,updated stim.csv,Version8.csv,Version 8,List 8,groundsman,NA,222,4.333333333,1183,223,BOI,-,-,Please name all of the ways you could use this object. Keep in mind that one object can have many uses. Separate your responses with a comma.,NA,y,127068,NA,NA,10634,104896,NA,NA,NA,"take care of, water, fix things, walk, sit, plant, run, plan, grow",1,MSU_TEXAS
M10248901KMM,pvrv7mbylv,Affordance Norms_MSU_TEX,1,37,2022-10-02T01:11:16+00:00,140.6198039,8,updated stim.csv,Version8.csv,Version 8,List 8,stick,NA,228,6.16,2535,229,BOI,-,-,Please name all of the ways you could use this object. Keep in mind that one object can have many uses. Separate your responses with a comma.,NA,y,139613,NA,NA,2602,137837,NA,NA,NA,"poke, break, whittle, carve, cut, saw, shave, build houses, puncture, snap, carry, step on, store ",1,MSU_TEXAS
M10248901KMM,pvrv7mbylv,Affordance Norms_MSU_TEX,1,38,2022-10-02T01:13:44+00:00,148.494112,8,updated stim.csv,Version8.csv,Version 8,List 8,drug,NA,211,5.375,852,212,BOI,-,-,Please name all of the ways you could use this object. Keep in mind that one object can have many uses. Separate your responses with a comma.,NA,y,147507,NA,NA,1673,146150,NA,NA,NA,"use, sell, promote, orally, injection-able, snort, educate, heal, take, eat, inhale ",1,MSU_TEXAS
M10248901KMM,pvrv7mbylv,Affordance Norms_MSU_TEX,1,39,2022-10-02T01:15:11+00:00,86.73815393,8,updated stim.csv,Version8.csv,Version 8,List 8,linoleum,NA,215,4.62962963,1519,216,BOI,-,-,Please name all of the ways you could use this object. Keep in mind that one object can have many uses. Separate your responses with a comma.,NA,y,85658,NA,NA,56558,84001,NA,NA,NA,"lay, glue, step on, break, sell, return, clean",1,MSU_TEXAS
M10248901KMM,pvrv7mbylv,Affordance Norms_MSU_TEX,1,40,2022-10-02T01:15:28+00:00,17.07706118,8,updated stim.csv,Version8.csv,Version 8,List 8,illustrator,NA,229,4.48,1351,230,BOI,-,-,Please name all of the ways you could use this object. Keep in mind that one object can have many uses. Separate your responses with a comma.,NA,y,16089,NA,NA,6055,13711,NA,NA,NA,"promote, create",1,MSU_TEXAS
M20134082_JLM,ozgvcc3wzh,Affordance Norms_MSU_TEX,1,11,2022-09-29T16:53:57+00:00,64.32858896,4,updated stim.csv,Version4.csv,Version 4,List 4,fleece,NA,117,4.5,1006,118,BOI,-,-,Please name all of the ways you could use this object. Keep in mind that one object can have many uses. Separate your responses with a comma.,NA,y,63997,NA,NA,3737,59544,NA,NA,NA,"Clothing, Fire starter, picking up liquid",1,MSU_TEXAS
M20134082_JLM,ozgvcc3wzh,Affordance Norms_MSU_TEX,1,12,2022-09-29T16:55:29+00:00,92.06238508,4,updated stim.csv,Version4.csv,Version 4,List 4,scalpel,NA,96,5.545454545,2263,97,BOI,-,-,Please name all of the ways you could use this object. Keep in mind that one object can have many uses. Separate your responses with a comma.,NA,y,91719,NA,NA,3363,88459,NA,NA,NA,"Weapon, Surgery tool, Art tool, redirect sun rays, write on hard surfaces, cooking tool",1,MSU_TEXAS
M20134082_JLM,ozgvcc3wzh,Affordance Norms_MSU_TEX,1,13,2022-09-29T16:56:28+00:00,58.82311893,4,updated stim.csv,Version4.csv,Version 4,List 4,windowsill,NA,97,5.391304348,2944,98,BOI,-,-,Please name all of the ways you could use this object. Keep in mind that one object can have many uses. Separate your responses with a comma.,NA,y,58585,NA,NA,5968,42549,NA,NA,NA,"Keep window stable, anchoring point for climbing equipment",1,MSU_TEXAS
M20134082_JLM,ozgvcc3wzh,Affordance Norms_MSU_TEX,1,14,2022-09-29T16:57:52+00:00,84.65541101,4,updated stim.csv,Version4.csv,Version 4,List 4,nephew,NA,118,5.16,1750,119,BOI,-,-,Please name all of the ways you could use this object. Keep in mind that one object can have many uses. Separate your responses with a comma.,NA,y,84303,NA,NA,8255,74011,NA,NA,NA,"household work, counseling, teaching, moving, babysitting, communicating to others",1,MSU_TEXAS
M20134082_JLM,ozgvcc3wzh,Affordance Norms_MSU_TEX,1,15,2022-09-29T16:59:37+00:00,104.7130921,4,updated stim.csv,Version4.csv,Version 4,List 4,yam,NA,94,5.259259259,2989,95,BOI,-,-,Please name all of the ways you could use this object. Keep in mind that one object can have many uses. Separate your responses with a comma.,NA,y,102388,NA,NA,2180,81944,NA,NA,NA,"Food, Blunt force throwing object",1,MSU_TEXAS
M20134082_JLM,ozgvcc3wzh,Affordance Norms_MSU_TEX,1,16,2022-09-29T17:01:22+00:00,105.4666891,4,updated stim.csv,Version4.csv,Version 4,List 4,cable,NA,115,4.913043478,390,116,BOI,-,-,Please name all of the ways you could use this object. Keep in mind that one object can have many uses. Separate your responses with a comma.,NA,y,104610,NA,NA,3811,97622,NA,NA,NA,"Weapon, signal converter, Rope for hoisting or arresting,",1,MSU_TEXAS
M20134082_JLM,ozgvcc3wzh,Affordance Norms_MSU_TEX,1,17,2022-09-29T17:02:06+00:00,44.11555099,4,updated stim.csv,Version4.csv,Version 4,List 4,valet,NA,92,4.625,2834,93,BOI,-,-,Please name all of the ways you could use this object. Keep in mind that one object can have many uses. Separate your responses with a comma.,NA,y,43893,NA,NA,6446,33786,NA,NA,NA,"Parking a car, getting general info of the area, ",1,MSU_TEXAS
M20134082_JLM,ozgvcc3wzh,Affordance Norms_MSU_TEX,1,18,2022-09-29T17:04:25+00:00,138.2675378,4,updated stim.csv,Version4.csv,Version 4,List 4,preschooler,NA,116,4.409090909,2059,117,BOI,-,-,Please name all of the ways you could use this object. Keep in mind that one object can have many uses. Separate your responses with a comma.,NA,y,3393,NA,NA,-1,-1,NA,NA,NA,,1,MSU_TEXAS
M20134082_JLM,ozgvcc3wzh,Affordance Norms_MSU_TEX,1,19,2022-09-29T17:06:09+00:00,104.395793,4,updated stim.csv,Version4.csv,Version 4,List 4,step,NA,113,5.2,2522,114,BOI,-,-,Please name all of the ways you could use this object. Keep in mind that one object can have many uses. Separate your responses with a comma.,NA,y,104051,NA,NA,16193,90879,NA,NA,NA,"Get mud off of a boot, Elevator, leverage for breaking a stick",1,MSU_TEXAS
M20134082_JLM,ozgvcc3wzh,Affordance Norms_MSU_TEX,1,20,2022-09-29T17:06:32+00:00,22.64465404,4,updated stim.csv,Version4.csv,Version 4,List 4,lounger,NA,98,4.692307692,1551,99,BOI,-,-,Please name all of the ways you could use this object. Keep in mind that one object can have many uses. Separate your responses with a comma.,NA,y,22404,NA,NA,13057,20628,NA,NA,NA,I am unsure what a lounger is.,1,MSU_TEXAS
M20134082_JLM,ozgvcc3wzh,Affordance Norms_MSU_TEX,1,21,2022-09-29T17:07:06+00:00,33.77239013,4,updated stim.csv,Version4.csv,Version 4,List 4,kissing,NA,107,5.458333333,1423,108,BOI,-,-,Please name all of the ways you could use this object. Keep in mind that one object can have many uses. Separate your responses with a comma.,NA,y,33539,NA,NA,3080,11385,NA,NA,NA,Showing affinity,1,MSU_TEXAS
M20134082_JLM,ozgvcc3wzh,Affordance Norms_MSU_TEX,1,22,2022-09-29T17:08:09+00:00,63.62134099,4,updated stim.csv,Version4.csv,Version 4,List 4,blazer,NA,106,5.652173913,233,107,BOI,-,-,Please name all of the ways you could use this object. Keep in mind that one object can have many uses. Separate your responses with a comma.,NA,y,63279,NA,NA,6192,56612,NA,NA,NA,"Clothing, Fire kindling, storage of small items, statement maker, rope, ",1,MSU_TEXAS
M20134082_JLM,ozgvcc3wzh,Affordance Norms_MSU_TEX,1,23,2022-09-29T17:09:15+00:00,66.17176294,4,updated stim.csv,Version4.csv,Version 4,List 4,sock,NA,108,5.833333333,2439,109,BOI,-,-,Please name all of the ways you could use this object. Keep in mind that one object can have many uses. Separate your responses with a comma.,NA,y,65727,NA,NA,2800,60443,NA,NA,NA,"Clothing, small item holder, fire kindling, mask, cleaning scrub, liquid cleaning",1,MSU_TEXAS
M20134082_JLM,ozgvcc3wzh,Affordance Norms_MSU_TEX,1,24,2022-09-29T17:10:38+00:00,82.78767991,4,updated stim.csv,Version4.csv,Version 4,List 4,chalice,NA,93,5.208333333,490,94,BOI,-,-,Please name all of the ways you could use this object. Keep in mind that one object can have many uses. Separate your responses with a comma.,NA,y,82448,NA,NA,4697,79292,NA,NA,NA,"Small item holder, Drink receptacle, fire holder, cookie cutter, weapon, step",1,MSU_TEXAS
M20134082_JLM,ozgvcc3wzh,Affordance Norms_MSU_TEX,1,25,2022-09-29T17:11:40+00:00,61.913481,4,updated stim.csv,Version4.csv,Version 4,List 4,blouse,NA,102,6.47826087,244,103,BOI,-,-,Please name all of the ways you could use this object. Keep in mind that one object can have many uses. Separate your responses with a comma.,NA,y,61472,NA,NA,2829,59504,NA,NA,NA,"Rope, clothing, fire kindling, floatation device",1,MSU_TEXAS
M20134082_JLM,ozgvcc3wzh,Affordance Norms_MSU_TEX,1,26,2022-09-29T17:12:04+00:00,23.73737121,4,updated stim.csv,Version4.csv,Version 4,List 4,daybed,NA,95,5.28,761,96,BOI,-,-,Please name all of the ways you could use this object. Keep in mind that one object can have many uses. Separate your responses with a comma.,NA,y,23482,NA,NA,9467,22171,NA,NA,NA,I don't know what a daybed is.,1,MSU_TEXAS
M20134082_JLM,ozgvcc3wzh,Affordance Norms_MSU_TEX,1,27,2022-09-29T17:12:07+00:00,2.853268862,4,updated stim.csv,Version4.csv,Version 4,List 4,fireplace,NA,110,5.458333333,986,111,BOI,-,-,Please name all of the ways you could use this object. Keep in mind that one object can have many uses. Separate your responses with a comma.,NA,y,2621,NA,NA,-1,-1,NA,NA,NA,,1,MSU_TEXAS
M20134082_JLM,ozgvcc3wzh,Affordance Norms_MSU_TEX,1,28,2022-09-29T17:12:51+00:00,43.97054601,4,updated stim.csv,Version4.csv,Version 4,List 4,pool,NA,104,6.041666667,2033,105,BOI,-,-,Please name all of the ways you could use this object. Keep in mind that one object can have many uses. Separate your responses with a comma.,NA,y,36400,NA,NA,6562,30562,NA,NA,NA,"Water holder, exercise, weapon, blinding potential",1,MSU_TEXAS
M20134082_JLM,ozgvcc3wzh,Affordance Norms_MSU_TEX,1,29,2022-09-29T17:13:08+00:00,17.08633709,4,updated stim.csv,Version4.csv,Version 4,List 4,bloke,NA,100,4.541666667,240,101,BOI,-,-,Please name all of the ways you could use this object. Keep in mind that one object can have many uses. Separate your responses with a comma.,NA,y,16843,NA,NA,3862,15403,NA,NA,NA,I don't know what a bloke is.,1,MSU_TEXAS
M20134082_JLM,ozgvcc3wzh,Affordance Norms_MSU_TEX,1,30,2022-09-29T17:13:49+00:00,41.17502189,4,updated stim.csv,Version4.csv,Version 4,List 4,cube,NA,114,4.75,721,115,BOI,-,-,Please name all of the ways you could use this object. Keep in mind that one object can have many uses. Separate your responses with a comma.,NA,y,40945,NA,NA,3810,37307,NA,NA,NA,"Step, Fill in a hole, canvas for art, throwing object",1,MSU_TEXAS
M20134082_JLM,ozgvcc3wzh,Affordance Norms_MSU_TEX,1,31,2022-09-29T17:14:42+00:00,52.647825,4,updated stim.csv,Version4.csv,Version 4,List 4,drumstick,NA,99,5.708333333,855,100,BOI,-,-,Please name all of the ways you could use this object. Keep in mind that one object can have many uses. Separate your responses with a comma.,NA,y,52376,NA,NA,9602,38909,NA,NA,NA,"Food, stabbing weapon potential, music maker",1,MSU_TEXAS
M20134082_JLM,ozgvcc3wzh,Affordance Norms_MSU_TEX,1,32,2022-09-29T17:16:01+00:00,79.12188506,4,updated stim.csv,Version4.csv,Version 4,List 4,stove,NA,109,5.75,2555,110,BOI,-,-,Please name all of the ways you could use this object. Keep in mind that one object can have many uses. Separate your responses with a comma.,NA,y,78785,NA,NA,4337,74303,NA,NA,NA,"storage, cooking, heat source, weapon",1,MSU_TEXAS
M20134082_JLM,ozgvcc3wzh,Affordance Norms_MSU_TEX,1,33,2022-09-29T17:16:42+00:00,41.26957393,4,updated stim.csv,Version4.csv,Version 4,List 4,calf,NA,119,5.08,402,120,BOI,-,-,Please name all of the ways you could use this object. Keep in mind that one object can have many uses. Separate your responses with a comma.,NA,y,41034,NA,NA,8689,36414,NA,NA,NA,"Working animal, food, transportation of goods",1,MSU_TEXAS
M20134082_JLM,ozgvcc3wzh,Affordance Norms_MSU_TEX,1,34,2022-09-29T17:17:25+00:00,42.68106413,4,updated stim.csv,Version4.csv,Version 4,List 4,housecoat,NA,91,5.653846154,1329,92,BOI,-,-,Please name all of the ways you could use this object. Keep in mind that one object can have many uses. Separate your responses with a comma.,NA,y,42449,NA,NA,4631,38300,NA,NA,NA,"Clothing, storage, fire kindling, statement maker, rope",1,MSU_TEXAS
M20134082_JLM,ozgvcc3wzh,Affordance Norms_MSU_TEX,1,35,2022-09-29T17:17:50+00:00,25.85427499,4,updated stim.csv,Version4.csv,Version 4,List 4,grits,NA,120,5.291666667,1177,121,BOI,-,-,Please name all of the ways you could use this object. Keep in mind that one object can have many uses. Separate your responses with a comma.,NA,y,25619,NA,NA,2569,23001,NA,NA,NA,"Food, slipping agent",1,MSU_TEXAS
M20134082_JLM,ozgvcc3wzh,Affordance Norms_MSU_TEX,1,36,2022-09-29T17:19:22+00:00,91.57268286,4,updated stim.csv,Version4.csv,Version 4,List 4,ashtray,NA,103,5.44,84,104,BOI,-,-,Please name all of the ways you could use this object. Keep in mind that one object can have many uses. Separate your responses with a comma.,NA,y,91221,NA,NA,4578,89568,NA,NA,NA,"Throwing object, holding fire/ash, holding food/small objects",1,MSU_TEXAS
M20134082_JLM,ozgvcc3wzh,Affordance Norms_MSU_TEX,1,37,2022-09-29T17:19:56+00:00,33.77018404,4,updated stim.csv,Version4.csv,Version 4,List 4,chessboard,NA,111,6.04,512,112,BOI,-,-,Please name all of the ways you could use this object. Keep in mind that one object can have many uses. Separate your responses with a comma.,NA,y,33542,NA,NA,3012,29162,NA,NA,NA,"Weapon, math device, food plate",1,MSU_TEXAS
M20134082_JLM,ozgvcc3wzh,Affordance Norms_MSU_TEX,1,38,2022-09-29T17:20:43+00:00,47.68371296,4,updated stim.csv,Version4.csv,Version 4,List 4,hippie,NA,105,4.56,1292,106,BOI,-,-,Please name all of the ways you could use this object. Keep in mind that one object can have many uses. Separate your responses with a comma.,NA,y,47429,NA,NA,10353,45520,NA,NA,NA,"Find good drugs, Use as a distraction, gain life experience",1,MSU_TEXAS
M20134082_JLM,ozgvcc3wzh,Affordance Norms_MSU_TEX,1,39,2022-09-29T17:21:25+00:00,41.88326216,4,updated stim.csv,Version4.csv,Version 4,List 4,Robot,NA,112,4.861185984,2182,113,BOI,-,-,Please name all of the ways you could use this object. Keep in mind that one object can have many uses. Separate your responses with a comma.,NA,y,41536,NA,NA,9215,39395,NA,NA,NA,"household chores, warfare, companionship",1,MSU_TEXAS
M20134082_JLM,ozgvcc3wzh,Affordance Norms_MSU_TEX,1,40,2022-09-29T17:22:09+00:00,43.51360583,4,updated stim.csv,Version4.csv,Version 4,List 4,pacifier,NA,101,6.090909091,1836,102,BOI,-,-,Please name all of the ways you could use this object. Keep in mind that one object can have many uses. Separate your responses with a comma.,NA,y,43273,NA,NA,4447,37876,NA,NA,NA,"calm a baby, anxiety soother, a poor fashion statement",1,MSU_TEXAS
M20277249,0hoi2a3ai8,Affordance Norms_MSU_TEX,1,11,2022-10-12T18:33:18+00:00,44.8582871,21,updated stim.csv,Version21.csv,Version 21,List 21,cadillac,NA,621,5.12,395,622,BOI,-,-,Please name all of the ways you could use this object. Keep in mind that one object can have many uses. Separate your responses with a comma.,NA,y,44164,NA,NA,4692,39111,NA,NA,NA,"Driven, cleaned, shown off, running something over",1,MSU_TEXAS
M20277249,0hoi2a3ai8,Affordance Norms_MSU_TEX,1,12,2022-10-12T18:33:50+00:00,31.95399308,21,updated stim.csv,Version21.csv,Version 21,List 21,can,NA,619,4.88,408,620,BOI,-,-,Please name all of the ways you could use this object. Keep in mind that one object can have many uses. Separate your responses with a comma.,NA,y,31257,NA,NA,4070,24825,NA,NA,NA,"Thrown away, punched, stepped on, opened, kicked",1,MSU_TEXAS
M20277249,0hoi2a3ai8,Affordance Norms_MSU_TEX,1,13,2022-10-12T18:34:17+00:00,27.02789783,21,updated stim.csv,Version21.csv,Version 21,List 21,snowshoe,NA,605,5.541666667,2436,606,BOI,-,-,Please name all of the ways you could use this object. Keep in mind that one object can have many uses. Separate your responses with a comma.,NA,y,26458,NA,NA,4842,19542,NA,NA,NA,"Worn, cleaned, tied",1,MSU_TEXAS
M20277249,0hoi2a3ai8,Affordance Norms_MSU_TEX,1,14,2022-10-12T18:34:34+00:00,16.28059196,21,updated stim.csv,Version21.csv,Version 21,List 21,steroids,NA,623,4.52,2532,624,BOI,-,-,Please name all of the ways you could use this object. Keep in mind that one object can have many uses. Separate your responses with a comma.,NA,y,15603,NA,NA,5401,9234,NA,NA,NA,Increase strength,1,MSU_TEXAS
M20277249,0hoi2a3ai8,Affordance Norms_MSU_TEX,1,15,2022-10-12T18:35:00+00:00,26.02254915,21,updated stim.csv,Version21.csv,Version 21,List 21,frog,NA,604,5.125,1058,605,BOI,-,-,Please name all of the ways you could use this object. Keep in mind that one object can have many uses. Separate your responses with a comma.,NA,y,25377,NA,NA,7058,20241,NA,NA,NA,"Entertainment, as food",1,MSU_TEXAS
M20277249,0hoi2a3ai8,Affordance Norms_MSU_TEX,1,16,2022-10-12T18:35:28+00:00,28.76228189,21,updated stim.csv,Version21.csv,Version 21,List 21,sunflower,NA,615,5.333333333,2587,616,BOI,-,-,Please name all of the ways you could use this object. Keep in mind that one object can have many uses. Separate your responses with a comma.,NA,y,28127,NA,NA,10389,25922,NA,NA,NA,"Grow, cut, present",1,MSU_TEXAS
M20277249,0hoi2a3ai8,Affordance Norms_MSU_TEX,1,17,2022-10-12T18:35:45+00:00,17.10018396,21,updated stim.csv,Version21.csv,Version 21,List 21,schoolhouse,NA,612,5.291666667,2272,613,BOI,-,-,Please name all of the ways you could use this object. Keep in mind that one object can have many uses. Separate your responses with a comma.,NA,y,16453,NA,NA,4168,5918,NA,NA,NA,Learn,1,MSU_TEXAS
M20277249,0hoi2a3ai8,Affordance Norms_MSU_TEX,1,18,2022-10-12T18:35:54+00:00,8.186784029,21,updated stim.csv,Version21.csv,Version 21,List 21,organ,NA,611,5.185185185,1820,612,BOI,-,-,Please name all of the ways you could use this object. Keep in mind that one object can have many uses. Separate your responses with a comma.,NA,y,7476,NA,NA,3957,5856,NA,NA,NA,Live,1,MSU_TEXAS
M20277249,0hoi2a3ai8,Affordance Norms_MSU_TEX,1,19,2022-10-12T18:36:03+00:00,9.841262102,21,updated stim.csv,Version21.csv,Version 21,List 21,bugle,NA,622,4.541666667,348,623,BOI,-,-,Please name all of the ways you could use this object. Keep in mind that one object can have many uses. Separate your responses with a comma.,NA,y,9162,NA,NA,2544,8376,NA,NA,NA,I don’t know what this is ,1,MSU_TEXAS
M20277249,0hoi2a3ai8,Affordance Norms_MSU_TEX,1,20,2022-10-12T18:36:23+00:00,19.97009993,21,updated stim.csv,Version21.csv,Version 21,List 21,piano,NA,630,6.166666667,1947,631,BOI,-,-,Please name all of the ways you could use this object. Keep in mind that one object can have many uses. Separate your responses with a comma.,NA,y,19341,NA,NA,1956,18523,NA,NA,NA,"Play, push, exercise, decorate ",1,MSU_TEXAS
M20277249,0hoi2a3ai8,Affordance Norms_MSU_TEX,1,21,2022-10-12T18:36:39+00:00,15.49968696,21,updated stim.csv,Version21.csv,Version 21,List 21,toiletry,NA,602,5.222222222,2720,603,BOI,-,-,Please name all of the ways you could use this object. Keep in mind that one object can have many uses. Separate your responses with a comma.,NA,y,14977,NA,NA,2028,9278,NA,NA,NA,"Wipe, keep clean",1,MSU_TEXAS
M20277249,0hoi2a3ai8,Affordance Norms_MSU_TEX,1,22,2022-10-12T18:36:52+00:00,13.06295419,21,updated stim.csv,Version21.csv,Version 21,List 21,lizard,NA,606,4.925925926,1529,607,BOI,-,-,Please name all of the ways you could use this object. Keep in mind that one object can have many uses. Separate your responses with a comma.,NA,y,12525,NA,NA,4742,8476,NA,NA,NA,"Pet, feed",1,MSU_TEXAS
M20277249,0hoi2a3ai8,Affordance Norms_MSU_TEX,1,23,2022-10-12T18:37:07+00:00,15.1578958,21,updated stim.csv,Version21.csv,Version 21,List 21,seaweed,NA,610,4.458333333,2304,611,BOI,-,-,Please name all of the ways you could use this object. Keep in mind that one object can have many uses. Separate your responses with a comma.,NA,y,14500,NA,NA,2199,11916,NA,NA,NA,"Eat, grab, feel",1,MSU_TEXAS
M20277249,0hoi2a3ai8,Affordance Norms_MSU_TEX,1,24,2022-10-12T18:37:21+00:00,14.02882099,21,updated stim.csv,Version21.csv,Version 21,List 21,condominium,NA,620,4.678571429,623,621,BOI,-,-,Please name all of the ways you could use this object. Keep in mind that one object can have many uses. Separate your responses with a comma.,NA,y,13318,NA,NA,4469,12533,NA,NA,NA,"Live in, party in, sleep in, ",1,MSU_TEXAS
M20277249,0hoi2a3ai8,Affordance Norms_MSU_TEX,1,25,2022-10-12T18:37:37+00:00,15.56459308,21,updated stim.csv,Version21.csv,Version 21,List 21,splint,NA,618,4.958333333,2477,619,BOI,-,-,Please name all of the ways you could use this object. Keep in mind that one object can have many uses. Separate your responses with a comma.,NA,y,14957,NA,NA,4921,14254,NA,NA,NA,Fix fractured bones,1,MSU_TEXAS
M20277249,0hoi2a3ai8,Affordance Norms_MSU_TEX,1,26,2022-10-12T18:37:56+00:00,19.35514712,21,updated stim.csv,Version21.csv,Version 21,List 21,checkerboard,NA,609,5.391304348,500,610,BOI,-,-,Please name all of the ways you could use this object. Keep in mind that one object can have many uses. Separate your responses with a comma.,NA,y,18724,NA,NA,2235,17184,NA,NA,NA,"Play, entertained, learn ",1,MSU_TEXAS
M20277249,0hoi2a3ai8,Affordance Norms_MSU_TEX,1,27,2022-10-12T18:38:06+00:00,9.619905949,21,updated stim.csv,Version21.csv,Version 21,List 21,bell,NA,614,5.76,196,615,BOI,-,-,Please name all of the ways you could use this object. Keep in mind that one object can have many uses. Separate your responses with a comma.,NA,y,8954,NA,NA,1971,6888,NA,NA,NA,"Ring, listen to ",1,MSU_TEXAS
M20277249,0hoi2a3ai8,Affordance Norms_MSU_TEX,1,28,2022-10-12T18:38:30+00:00,24.27642989,21,updated stim.csv,Version21.csv,Version 21,List 21,washroom,NA,625,5.037037037,2901,626,BOI,-,-,Please name all of the ways you could use this object. Keep in mind that one object can have many uses. Separate your responses with a comma.,NA,y,23600,NA,NA,3198,22698,NA,NA,NA,"Clean up, cry, shower, hide",1,MSU_TEXAS
M20277249,0hoi2a3ai8,Affordance Norms_MSU_TEX,1,29,2022-10-12T18:38:59+00:00,28.76406407,21,updated stim.csv,Version21.csv,Version 21,List 21,placenta,NA,629,4.28,1984,630,BOI,-,-,Please name all of the ways you could use this object. Keep in mind that one object can have many uses. Separate your responses with a comma.,NA,y,28166,NA,NA,5114,27113,NA,NA,NA,"Health, eat, save ",1,MSU_TEXAS
M20277249,0hoi2a3ai8,Affordance Norms_MSU_TEX,1,30,2022-10-12T18:39:16+00:00,17.42574596,21,updated stim.csv,Version21.csv,Version 21,List 21,gangster,NA,601,4.36,1072,602,BOI,-,-,Please name all of the ways you could use this object. Keep in mind that one object can have many uses. Separate your responses with a comma.,NA,y,16752,NA,NA,10553,12653,NA,NA,NA,Arrest,1,MSU_TEXAS
M20277249,0hoi2a3ai8,Affordance Norms_MSU_TEX,1,31,2022-10-12T18:39:36+00:00,19.44509411,21,updated stim.csv,Version21.csv,Version 21,List 21,gumdrop,NA,628,5.875,1197,629,BOI,-,-,Please name all of the ways you could use this object. Keep in mind that one object can have many uses. Separate your responses with a comma.,NA,y,18800,NA,NA,3818,14516,NA,NA,NA,"Chew, spit out, step on, swallow, share ",1,MSU_TEXAS
M20277249,0hoi2a3ai8,Affordance Norms_MSU_TEX,1,32,2022-10-12T18:39:49+00:00,13.11370683,21,updated stim.csv,Version21.csv,Version 21,List 21,ammo,NA,603,5.32,34,604,BOI,-,-,Please name all of the ways you could use this object. Keep in mind that one object can have many uses. Separate your responses with a comma.,NA,y,12460,NA,NA,3234,7650,NA,NA,NA,"Reload, shoot",1,MSU_TEXAS
M20277249,0hoi2a3ai8,Affordance Norms_MSU_TEX,1,33,2022-10-12T18:39:56+00:00,7.162749052,21,updated stim.csv,Version21.csv,Version 21,List 21,muffler,NA,616,4.75,1712,617,BOI,-,-,Please name all of the ways you could use this object. Keep in mind that one object can have many uses. Separate your responses with a comma.,NA,y,6468,NA,NA,3166,5648,NA,NA,NA,Car part,1,MSU_TEXAS
M20277249,0hoi2a3ai8,Affordance Norms_MSU_TEX,1,34,2022-10-12T18:40:12+00:00,16.38738108,21,updated stim.csv,Version21.csv,Version 21,List 21,ring,NA,624,6.130434783,2170,625,BOI,-,-,Please name all of the ways you could use this object. Keep in mind that one object can have many uses. Separate your responses with a comma.,NA,y,15842,NA,NA,6376,14726,NA,NA,NA,"Wear, engage, admire ",1,MSU_TEXAS
M20277249,0hoi2a3ai8,Affordance Norms_MSU_TEX,1,35,2022-10-12T18:40:24+00:00,11.57579398,21,updated stim.csv,Version21.csv,Version 21,List 21,quill,NA,613,4.565217391,2115,614,BOI,-,-,Please name all of the ways you could use this object. Keep in mind that one object can have many uses. Separate your responses with a comma.,NA,y,10850,NA,NA,4634,9934,NA,NA,NA,I don’t know what this is ,1,MSU_TEXAS
M20277249,0hoi2a3ai8,Affordance Norms_MSU_TEX,1,36,2022-10-12T18:40:42+00:00,18.11858487,21,updated stim.csv,Version21.csv,Version 21,List 21,spinach,NA,626,4.96,2474,627,BOI,-,-,Please name all of the ways you could use this object. Keep in mind that one object can have many uses. Separate your responses with a comma.,NA,y,17498,NA,NA,3697,15914,NA,NA,NA,"Eat, throw away, add to salad ",1,MSU_TEXAS
M20277249,0hoi2a3ai8,Affordance Norms_MSU_TEX,1,37,2022-10-12T18:40:53+00:00,10.54271698,21,updated stim.csv,Version21.csv,Version 21,List 21,cutlery,NA,607,5.913043478,738,608,BOI,-,-,Please name all of the ways you could use this object. Keep in mind that one object can have many uses. Separate your responses with a comma.,NA,y,9821,NA,NA,2104,7337,NA,NA,NA,"Cut, prepare food",1,MSU_TEXAS
M20277249,0hoi2a3ai8,Affordance Norms_MSU_TEX,1,38,2022-10-12T18:41:10+00:00,17.51664615,21,updated stim.csv,Version21.csv,Version 21,List 21,iguana,NA,617,5.166666667,1350,618,BOI,-,-,Please name all of the ways you could use this object. Keep in mind that one object can have many uses. Separate your responses with a comma.,NA,y,16821,NA,NA,2314,15538,NA,NA,NA,"Pet, touch, feed, record",1,MSU_TEXAS
M20277249,0hoi2a3ai8,Affordance Norms_MSU_TEX,1,39,2022-10-12T18:44:11+00:00,180.8388519,21,updated stim.csv,Version21.csv,Version 21,List 21,whore,NA,608,4.782608696,2933,609,BOI,-,-,Please name all of the ways you could use this object. Keep in mind that one object can have many uses. Separate your responses with a comma.,NA,y,180138,NA,NA,146637,177839,NA,NA,NA,"Sell, sleep around, give diseases ",1,MSU_TEXAS
M20277249,0hoi2a3ai8,Affordance Norms_MSU_TEX,1,40,2022-10-12T18:44:33+00:00,22.53269815,21,updated stim.csv,Version21.csv,Version 21,List 21,guesthouse,NA,627,4.913043478,1189,628,BOI,-,-,Please name all of the ways you could use this object. Keep in mind that one object can have many uses. Separate your responses with a comma.,NA,y,21992,NA,NA,5443,20876,NA,NA,NA,"Party, have fun, rent out",1,MSU_TEXAS
m20278265_vas,w3tft8i3k1,Affordance Norms_MSU_TEX,1,11,2022-10-03T20:20:03+00:00,41.24015403,13,updated stim.csv,Version13.csv,Version 13,List 13,panhandler,NA,374,4.92,1857,375,BOI,-,-,Please name all of the ways you could use this object. Keep in mind that one object can have many uses. Separate your responses with a comma.,NA,y,41058,NA,NA,32828,36204,NA,NA,NA,"beg, get money",1,MSU_TEXAS
m20278265_vas,w3tft8i3k1,Affordance Norms_MSU_TEX,1,12,2022-10-03T20:21:04+00:00,60.1227231,13,updated stim.csv,Version13.csv,Version 13,List 13,glycerine,NA,382,4.434782609,1119,383,BOI,-,-,Please name all of the ways you could use this object. Keep in mind that one object can have many uses. Separate your responses with a comma.,NA,y,59921,NA,NA,42325,59190,NA,NA,NA,"moisturize, in medicine, skin care",1,MSU_TEXAS
m20278265_vas,w3tft8i3k1,Affordance Norms_MSU_TEX,1,13,2022-10-03T20:21:31+00:00,27.97665,13,updated stim.csv,Version13.csv,Version 13,List 13,vein,NA,367,4.44,2845,368,BOI,-,-,Please name all of the ways you could use this object. Keep in mind that one object can have many uses. Separate your responses with a comma.,NA,y,27736,NA,NA,7746,27157,NA,NA,NA,"draw blood, insert IV, blood flow",1,MSU_TEXAS
m20278265_vas,w3tft8i3k1,Affordance Norms_MSU_TEX,1,14,2022-10-03T20:22:03+00:00,31.86385298,13,updated stim.csv,Version13.csv,Version 13,List 13,amulet,NA,368,5.291666667,38,369,BOI,-,-,Please name all of the ways you could use this object. Keep in mind that one object can have many uses. Separate your responses with a comma.,NA,y,31703,NA,NA,19555,29552,NA,NA,NA,"wear, pass down through generations, pawn",1,MSU_TEXAS
m20278265_vas,w3tft8i3k1,Affordance Norms_MSU_TEX,1,15,2022-10-03T20:22:12+00:00,8.912234068,13,updated stim.csv,Version13.csv,Version 13,List 13,anus,NA,370,5.16,53,371,BOI,-,-,Please name all of the ways you could use this object. Keep in mind that one object can have many uses. Separate your responses with a comma.,NA,y,8631,NA,NA,-1,-1,NA,NA,NA,,1,MSU_TEXAS
m20278265_vas,w3tft8i3k1,Affordance Norms_MSU_TEX,1,16,2022-10-03T20:22:58+00:00,45.29433084,13,updated stim.csv,Version13.csv,Version 13,List 13,pharmacist,NA,386,5.041666667,1938,387,BOI,-,-,Please name all of the ways you could use this object. Keep in mind that one object can have many uses. Separate your responses with a comma.,NA,y,45144,NA,NA,9782,44696,NA,NA,NA,"fill prescriptions, give shots, bill insurance",1,MSU_TEXAS
m20278265_vas,w3tft8i3k1,Affordance Norms_MSU_TEX,1,17,2022-10-03T20:23:05+00:00,7.725291967,13,updated stim.csv,Version13.csv,Version 13,List 13,spareribs,NA,387,4.869565217,2462,388,BOI,-,-,Please name all of the ways you could use this object. Keep in mind that one object can have many uses. Separate your responses with a comma.,NA,y,7580,NA,NA,2128,6525,NA,NA,NA,"eat, cook, season",1,MSU_TEXAS
m20278265_vas,w3tft8i3k1,Affordance Norms_MSU_TEX,1,18,2022-10-03T20:23:22+00:00,17.05413008,13,updated stim.csv,Version13.csv,Version 13,List 13,liqueur,NA,372,5.666666667,1523,373,BOI,-,-,Please name all of the ways you could use this object. Keep in mind that one object can have many uses. Separate your responses with a comma.,NA,y,16910,NA,NA,5283,16208,NA,NA,NA,"drink, cook, use as flavoring",1,MSU_TEXAS
m20278265_vas,w3tft8i3k1,Affordance Norms_MSU_TEX,1,19,2022-10-03T20:23:43+00:00,20.44289613,13,updated stim.csv,Version13.csv,Version 13,List 13,squirrel,NA,389,4.346153846,2494,390,BOI,-,-,Please name all of the ways you could use this object. Keep in mind that one object can have many uses. Separate your responses with a comma.,NA,y,20290,NA,NA,10094,20080,NA,NA,NA,"hunt, eat",1,MSU_TEXAS
m20278265_vas,w3tft8i3k1,Affordance Norms_MSU_TEX,1,20,2022-10-03T20:24:36+00:00,53.26107001,13,updated stim.csv,Version13.csv,Version 13,List 13,rake,NA,385,6.136363636,2135,386,BOI,-,-,Please name all of the ways you could use this object. Keep in mind that one object can have many uses. Separate your responses with a comma.,NA,y,53108,NA,NA,2530,51798,NA,NA,NA,"pile up leaves, level grounds, break up soil",1,MSU_TEXAS
m20278265_vas,w3tft8i3k1,Affordance Norms_MSU_TEX,1,21,2022-10-03T20:24:51+00:00,14.80243301,13,updated stim.csv,Version13.csv,Version 13,List 13,kitty,NA,365,6.043478261,1429,366,BOI,-,-,Please name all of the ways you could use this object. Keep in mind that one object can have many uses. Separate your responses with a comma.,NA,y,14651,NA,NA,5030,13736,NA,NA,NA,"pet, hunt mice",1,MSU_TEXAS
m20278265_vas,w3tft8i3k1,Affordance Norms_MSU_TEX,1,22,2022-10-03T20:25:17+00:00,25.81776285,13,updated stim.csv,Version13.csv,Version 13,List 13,cabinet,NA,390,5.64,389,391,BOI,-,-,Please name all of the ways you could use this object. Keep in mind that one object can have many uses. Separate your responses with a comma.,NA,y,25669,NA,NA,1435,21335,NA,NA,NA,"store dishes, put medicine in",1,MSU_TEXAS
m20278265_vas,w3tft8i3k1,Affordance Norms_MSU_TEX,1,23,2022-10-03T20:25:38+00:00,21.39990306,13,updated stim.csv,Version13.csv,Version 13,List 13,trinket,NA,371,4.791666667,2777,372,BOI,-,-,Please name all of the ways you could use this object. Keep in mind that one object can have many uses. Separate your responses with a comma.,NA,y,21251,NA,NA,6415,15386,NA,NA,NA,"use as decoration, collect,",1,MSU_TEXAS
m20278265_vas,w3tft8i3k1,Affordance Norms_MSU_TEX,1,24,2022-10-03T20:26:06+00:00,28.12833595,13,updated stim.csv,Version13.csv,Version 13,List 13,oxtail,NA,363,4.444444444,1833,364,BOI,-,-,Please name all of the ways you could use this object. Keep in mind that one object can have many uses. Separate your responses with a comma.,NA,y,27977,NA,NA,17868,25522,NA,NA,NA,"make stock, cook",1,MSU_TEXAS
m20278265_vas,w3tft8i3k1,Affordance Norms_MSU_TEX,1,25,2022-10-03T20:26:42+00:00,36.2178421,13,updated stim.csv,Version13.csv,Version 13,List 13,menu,NA,381,5.869565217,1646,382,BOI,-,-,Please name all of the ways you could use this object. Keep in mind that one object can have many uses. Separate your responses with a comma.,NA,y,36068,NA,NA,8396,35836,NA,NA,NA,"look at meal option, determine prices, display available choices",1,MSU_TEXAS
m20278265_vas,w3tft8i3k1,Affordance Norms_MSU_TEX,1,26,2022-10-03T20:27:30+00:00,47.43962193,13,updated stim.csv,Version13.csv,Version 13,List 13,testes,NA,376,5.083333333,2670,377,BOI,-,-,Please name all of the ways you could use this object. Keep in mind that one object can have many uses. Separate your responses with a comma.,NA,y,47286,NA,NA,17132,46561,NA,NA,NA,"produce testosterone, produce sperm",1,MSU_TEXAS
m20278265_vas,w3tft8i3k1,Affordance Norms_MSU_TEX,1,27,2022-10-03T20:27:55+00:00,24.93720198,13,updated stim.csv,Version13.csv,Version 13,List 13,jogger,NA,377,5,1388,378,BOI,-,-,Please name all of the ways you could use this object. Keep in mind that one object can have many uses. Separate your responses with a comma.,NA,y,24785,NA,NA,4695,23829,NA,NA,NA," pace yourself, ",1,MSU_TEXAS
m20278265_vas,w3tft8i3k1,Affordance Norms_MSU_TEX,1,28,2022-10-03T20:28:10+00:00,14.91688609,13,updated stim.csv,Version13.csv,Version 13,List 13,vine,NA,362,5,2861,363,BOI,-,-,Please name all of the ways you could use this object. Keep in mind that one object can have many uses. Separate your responses with a comma.,NA,y,14762,NA,NA,2947,9471,NA,NA,NA,"decoration, grow grapes, ",1,MSU_TEXAS
m20278265_vas,w3tft8i3k1,Affordance Norms_MSU_TEX,1,29,2022-10-03T20:28:27+00:00,17.12624502,13,updated stim.csv,Version13.csv,Version 13,List 13,blackberry,NA,375,5.416666667,227,376,BOI,-,-,Please name all of the ways you could use this object. Keep in mind that one object can have many uses. Separate your responses with a comma.,NA,y,16971,NA,NA,2135,16347,NA,NA,NA,"make jam, make pies, make reduction, eat, pick",1,MSU_TEXAS
m20278265_vas,w3tft8i3k1,Affordance Norms_MSU_TEX,1,30,2022-10-03T20:28:47+00:00,19.92609286,13,updated stim.csv,Version13.csv,Version 13,List 13,soil,NA,380,5.703703704,2445,381,BOI,-,-,Please name all of the ways you could use this object. Keep in mind that one object can have many uses. Separate your responses with a comma.,NA,y,19771,NA,NA,6039,9316,NA,NA,NA,"plant flowers, ",1,MSU_TEXAS
m20278265_vas,w3tft8i3k1,Affordance Norms_MSU_TEX,1,31,2022-10-03T20:29:02+00:00,14.797508,13,updated stim.csv,Version13.csv,Version 13,List 13,cotton,NA,379,5.28,660,380,BOI,-,-,Please name all of the ways you could use this object. Keep in mind that one object can have many uses. Separate your responses with a comma.,NA,y,14641,NA,NA,2096,14174,NA,NA,NA,"make clothes, cotton balls, decoration",1,MSU_TEXAS
m20278265_vas,w3tft8i3k1,Affordance Norms_MSU_TEX,1,32,2022-10-03T20:29:27+00:00,25.59419298,13,updated stim.csv,Version13.csv,Version 13,List 13,vest,NA,378,6,2853,379,BOI,-,-,Please name all of the ways you could use this object. Keep in mind that one object can have many uses. Separate your responses with a comma.,NA,y,25437,NA,NA,1770,24884,NA,NA,NA,"wear, use as safety gear, protection ",1,MSU_TEXAS
m20278265_vas,w3tft8i3k1,Affordance Norms_MSU_TEX,1,33,2022-10-03T20:29:40+00:00,12.48572016,13,updated stim.csv,Version13.csv,Version 13,List 13,wagon,NA,364,5.375,2879,365,BOI,-,-,Please name all of the ways you could use this object. Keep in mind that one object can have many uses. Separate your responses with a comma.,NA,y,12328,NA,NA,1760,11597,NA,NA,NA,"pull things, farming",1,MSU_TEXAS
m20278265_vas,w3tft8i3k1,Affordance Norms_MSU_TEX,1,34,2022-10-03T20:29:57+00:00,16.94354796,13,updated stim.csv,Version13.csv,Version 13,List 13,addict,NA,366,4.391304348,14,367,BOI,-,-,Please name all of the ways you could use this object. Keep in mind that one object can have many uses. Separate your responses with a comma.,NA,y,16784,NA,NA,5674,16357,NA,NA,NA,"use as an example, help in recovery",1,MSU_TEXAS
m20278265_vas,w3tft8i3k1,Affordance Norms_MSU_TEX,1,35,2022-10-03T20:30:13+00:00,16.74920988,13,updated stim.csv,Version13.csv,Version 13,List 13,playroom,NA,361,4.52,2002,362,BOI,-,-,Please name all of the ways you could use this object. Keep in mind that one object can have many uses. Separate your responses with a comma.,NA,y,16596,NA,NA,1770,10983,NA,NA,NA,"store toys, ",1,MSU_TEXAS
m20278265_vas,w3tft8i3k1,Affordance Norms_MSU_TEX,1,36,2022-10-03T20:30:31+00:00,17.40714908,13,updated stim.csv,Version13.csv,Version 13,List 13,eraser,NA,384,5.791666667,918,385,BOI,-,-,Please name all of the ways you could use this object. Keep in mind that one object can have many uses. Separate your responses with a comma.,NA,y,17246,NA,NA,3804,15740,NA,NA,NA,"erase things, chew on",1,MSU_TEXAS
m20278265_vas,w3tft8i3k1,Affordance Norms_MSU_TEX,1,37,2022-10-03T20:30:33+00:00,1.893285036,13,updated stim.csv,Version13.csv,Version 13,List 13,kelp,NA,373,4.826086957,1405,374,BOI,-,-,Please name all of the ways you could use this object. Keep in mind that one object can have many uses. Separate your responses with a comma.,NA,y,1747,NA,NA,-1,-1,NA,NA,NA,,1,MSU_TEXAS
m20278265_vas,w3tft8i3k1,Affordance Norms_MSU_TEX,1,38,2022-10-03T20:30:55+00:00,22.11514497,13,updated stim.csv,Version13.csv,Version 13,List 13,copybook,NA,388,5,639,389,BOI,-,-,Please name all of the ways you could use this object. Keep in mind that one object can have many uses. Separate your responses with a comma.,NA,y,21967,NA,NA,16183,21169,NA,NA,NA,help with handwriting,1,MSU_TEXAS
m20278265_vas,w3tft8i3k1,Affordance Norms_MSU_TEX,1,39,2022-10-03T20:31:08+00:00,13.71115804,13,updated stim.csv,Version13.csv,Version 13,List 13,crawfish,NA,383,4.666666667,685,384,BOI,-,-,Please name all of the ways you could use this object. Keep in mind that one object can have many uses. Separate your responses with a comma.,NA,y,13560,NA,NA,2979,12004,NA,NA,NA,"crawfish boil, eat, catch",1,MSU_TEXAS
m20278265_vas,w3tft8i3k1,Affordance Norms_MSU_TEX,1,40,2022-10-03T20:31:17+00:00,8.229218006,13,updated stim.csv,Version13.csv,Version 13,List 13,topsoil,NA,369,4.92,2736,370,BOI,-,-,Please name all of the ways you could use this object. Keep in mind that one object can have many uses. Separate your responses with a comma.,NA,y,8080,NA,NA,3284,5921,NA,NA,NA,"grow grass, ",1,MSU_TEXAS
M20278334_eah,heco7wwqup,Affordance Norms_MSU_TEX,1,11,2022-10-13T03:53:19+00:00,73.98192501,22,updated stim.csv,Version22.csv,Version 22,List 22,dress,NA,658,6.16,843,659,BOI,-,-,Please name all of the ways you could use this object. Keep in mind that one object can have many uses. Separate your responses with a comma.,NA,y,73430,NA,NA,2837,64579,NA,NA,NA,"wearing, warming, covering, flowing, burning, cutting, layering",1,MSU_TEXAS
M20278334_eah,heco7wwqup,Affordance Norms_MSU_TEX,1,12,2022-10-13T03:54:23+00:00,63.81368399,22,updated stim.csv,Version22.csv,Version 22,List 22,clipper,NA,650,4.923076923,562,651,BOI,-,-,Please name all of the ways you could use this object. Keep in mind that one object can have many uses. Separate your responses with a comma.,NA,y,63437,NA,NA,2205,58034,NA,NA,NA,"clipping, cutting, hitting, throwing, breaking, trimming",1,MSU_TEXAS
M20278334_eah,heco7wwqup,Affordance Norms_MSU_TEX,1,13,2022-10-13T03:56:23+00:00,120.209902,22,updated stim.csv,Version22.csv,Version 22,List 22,pumpernickel,NA,646,5.130434783,2097,647,BOI,-,-,Please name all of the ways you could use this object. Keep in mind that one object can have many uses. Separate your responses with a comma.,NA,y,50760,NA,NA,2825,49908,NA,NA,NA,"cooking, slicing, eating, baking, kneeding, sandwiching",1,MSU_TEXAS
M20278334_eah,heco7wwqup,Affordance Norms_MSU_TEX,1,14,2022-10-13T03:57:40+00:00,77.38203692,22,updated stim.csv,Version22.csv,Version 22,List 22,nightstick,NA,638,5.434782609,1774,639,BOI,-,-,Please name all of the ways you could use this object. Keep in mind that one object can have many uses. Separate your responses with a comma.,NA,y,76997,NA,NA,15811,74966,NA,NA,NA,"hitting, breaking, beating, defending, throwing, swinging, defensive, weapon",1,MSU_TEXAS
M20278334_eah,heco7wwqup,Affordance Norms_MSU_TEX,1,15,2022-10-13T03:58:36+00:00,55.15456986,22,updated stim.csv,Version22.csv,Version 22,List 22,boat,NA,644,5.130434783,255,645,BOI,-,-,Please name all of the ways you could use this object. Keep in mind that one object can have many uses. Separate your responses with a comma.,NA,y,54732,NA,NA,3745,49898,NA,NA,NA,"carrying, traveling, sinking, floating, boarding, sailing, steering",1,MSU_TEXAS
M20278334_eah,heco7wwqup,Affordance Norms_MSU_TEX,1,16,2022-10-13T03:59:58+00:00,82.09112811,22,updated stim.csv,Version22.csv,Version 22,List 22,shed,NA,653,4.333333333,2327,654,BOI,-,-,Please name all of the ways you could use this object. Keep in mind that one object can have many uses. Separate your responses with a comma.,NA,y,81683,NA,NA,2052,77912,NA,NA,NA,"shelter, storage, hiding, escape",1,MSU_TEXAS
M20278334_eah,heco7wwqup,Affordance Norms_MSU_TEX,1,17,2022-10-13T04:02:05+00:00,127.2997241,22,updated stim.csv,Version22.csv,Version 22,List 22,rabbit,NA,642,5,2117,643,BOI,-,-,Please name all of the ways you could use this object. Keep in mind that one object can have many uses. Separate your responses with a comma.,NA,y,126892,NA,NA,27465,118438,NA,NA,NA,"petting, chasing, eat, breed, sell, show",1,MSU_TEXAS
M20278334_eah,heco7wwqup,Affordance Norms_MSU_TEX,1,18,2022-10-13T04:03:36+00:00,90.68080688,22,updated stim.csv,Version22.csv,Version 22,List 22,peephole,NA,643,4.875,1907,644,BOI,-,-,Please name all of the ways you could use this object. Keep in mind that one object can have many uses. Separate your responses with a comma.,NA,y,90225,NA,NA,2066,78022,NA,NA,NA,"looking, stalking, eyeing, avoiding, see outside",1,MSU_TEXAS
M20278334_eah,heco7wwqup,Affordance Norms_MSU_TEX,1,19,2022-10-13T04:04:38+00:00,62.49888611,22,updated stim.csv,Version22.csv,Version 22,List 22,stool,NA,659,6.076923077,2547,660,BOI,-,-,Please name all of the ways you could use this object. Keep in mind that one object can have many uses. Separate your responses with a comma.,NA,y,62093,NA,NA,1455,56159,NA,NA,NA,"sitting, throwing, breaking, resting, burning, painting, support",1,MSU_TEXAS
M20278334_eah,heco7wwqup,Affordance Norms_MSU_TEX,1,20,2022-10-13T04:05:17+00:00,38.80948186,22,updated stim.csv,Version22.csv,Version 22,List 22,carport,NA,632,4.28,439,633,BOI,-,-,Please name all of the ways you could use this object. Keep in mind that one object can have many uses. Separate your responses with a comma.,NA,y,38421,NA,NA,3111,31030,NA,NA,NA,"cover, parking, storage, protection",1,MSU_TEXAS
M20278334_eah,heco7wwqup,Affordance Norms_MSU_TEX,1,21,2022-10-13T04:06:12+00:00,54.5909481,22,updated stim.csv,Version22.csv,Version 22,List 22,junk,NA,656,4.962962963,1396,657,BOI,-,-,Please name all of the ways you could use this object. Keep in mind that one object can have many uses. Separate your responses with a comma.,NA,y,54206,NA,NA,3534,41303,NA,NA,NA,"hording, throw, burn, discard, clutter",1,MSU_TEXAS
M20278334_eah,heco7wwqup,Affordance Norms_MSU_TEX,1,22,2022-10-13T04:07:03+00:00,51.30345798,22,updated stim.csv,Version22.csv,Version 22,List 22,buckwheat,NA,639,4.44,343,640,BOI,-,-,Please name all of the ways you could use this object. Keep in mind that one object can have many uses. Separate your responses with a comma.,NA,y,50915,NA,NA,18427,40372,NA,NA,NA,"food, baking, medicine, cooking, eating",1,MSU_TEXAS
M20278334_eah,heco7wwqup,Affordance Norms_MSU_TEX,1,23,2022-10-13T04:07:55+00:00,51.8026669,22,updated stim.csv,Version22.csv,Version 22,List 22,parachute,NA,636,4.68,1868,637,BOI,-,-,Please name all of the ways you could use this object. Keep in mind that one object can have many uses. Separate your responses with a comma.,NA,y,51439,NA,NA,10921,46840,NA,NA,NA,"resistance, protecting, blanket, coverage, life support, flying",1,MSU_TEXAS
M20278334_eah,heco7wwqup,Affordance Norms_MSU_TEX,1,24,2022-10-13T04:08:45+00:00,50.69328213,22,updated stim.csv,Version22.csv,Version 22,List 22,shield,NA,647,5.037037037,2338,648,BOI,-,-,Please name all of the ways you could use this object. Keep in mind that one object can have many uses. Separate your responses with a comma.,NA,y,50320,NA,NA,2008,38356,NA,NA,NA,"protection, hitting, cover, barricade, block, sitting, support ",1,MSU_TEXAS
M20278334_eah,heco7wwqup,Affordance Norms_MSU_TEX,1,25,2022-10-13T04:09:56+00:00,71.07074785,22,updated stim.csv,Version22.csv,Version 22,List 22,stockbroker,NA,649,4.851851852,2540,650,BOI,-,-,Please name all of the ways you could use this object. Keep in mind that one object can have many uses. Separate your responses with a comma.,NA,y,70690,NA,NA,18159,65389,NA,NA,NA,"investing, finances, money, guide, helper",1,MSU_TEXAS
M20278334_eah,heco7wwqup,Affordance Norms_MSU_TEX,1,26,2022-10-13T04:10:50+00:00,54.05702019,22,updated stim.csv,Version22.csv,Version 22,List 22,drone,NA,660,4.291666667,851,661,BOI,-,-,Please name all of the ways you could use this object. Keep in mind that one object can have many uses. Separate your responses with a comma.,NA,y,53687,NA,NA,3127,52775,NA,NA,NA,"spying, recording, listening, flying, lifting, carrying, dropping, capturing ",1,MSU_TEXAS
M20278334_eah,heco7wwqup,Affordance Norms_MSU_TEX,1,27,2022-10-13T04:11:44+00:00,53.70879793,22,updated stim.csv,Version22.csv,Version 22,List 22,television,NA,652,5.6,2660,653,BOI,-,-,Please name all of the ways you could use this object. Keep in mind that one object can have many uses. Separate your responses with a comma.,NA,y,53332,NA,NA,1656,46947,NA,NA,NA,"watching, listening, entainment, distraction, background noise, binding",1,MSU_TEXAS
M20278334_eah,heco7wwqup,Affordance Norms_MSU_TEX,1,28,2022-10-13T04:12:08+00:00,23.49210906,22,updated stim.csv,Version22.csv,Version 22,List 22,boomerang,NA,648,5.666666667,280,649,BOI,-,-,Please name all of the ways you could use this object. Keep in mind that one object can have many uses. Separate your responses with a comma.,NA,y,23106,NA,NA,3730,14430,NA,NA,NA,"throwing, cutting, hitting, weapon",1,MSU_TEXAS
M20278334_eah,heco7wwqup,Affordance Norms_MSU_TEX,1,29,2022-10-13T04:12:43+00:00,35.27184701,22,updated stim.csv,Version22.csv,Version 22,List 22,artist,NA,651,4.782608696,80,652,BOI,-,-,Please name all of the ways you could use this object. Keep in mind that one object can have many uses. Separate your responses with a comma.,NA,y,34895,NA,NA,3650,28061,NA,NA,NA,"painting, drawing, creating, making, sculpting",1,MSU_TEXAS
M20278334_eah,heco7wwqup,Affordance Norms_MSU_TEX,1,30,2022-10-13T04:13:20+00:00,36.77760196,22,updated stim.csv,Version22.csv,Version 22,List 22,diaphragm,NA,641,4.269230769,788,642,BOI,-,-,Please name all of the ways you could use this object. Keep in mind that one object can have many uses. Separate your responses with a comma.,NA,y,36353,NA,NA,2240,29820,NA,NA,NA,"breathing, support",1,MSU_TEXAS
M20278334_eah,heco7wwqup,Affordance Norms_MSU_TEX,1,31,2022-10-13T04:13:59+00:00,39.16157389,22,updated stim.csv,Version22.csv,Version 22,List 22,wigmaker,NA,645,4.36,2936,646,BOI,-,-,Please name all of the ways you could use this object. Keep in mind that one object can have many uses. Separate your responses with a comma.,NA,y,38790,NA,NA,5890,33193,NA,NA,NA,"creator, buying",1,MSU_TEXAS
M20278334_eah,heco7wwqup,Affordance Norms_MSU_TEX,1,32,2022-10-13T04:14:36+00:00,37.40092611,22,updated stim.csv,Version22.csv,Version 22,List 22,puddle,NA,655,5,2089,656,BOI,-,-,Please name all of the ways you could use this object. Keep in mind that one object can have many uses. Separate your responses with a comma.,NA,y,37015,NA,NA,1627,31324,NA,NA,NA,"stomping, splashing, kicking",1,MSU_TEXAS
M20278334_eah,heco7wwqup,Affordance Norms_MSU_TEX,1,33,2022-10-13T04:15:43+00:00,67.11749887,22,updated stim.csv,Version22.csv,Version 22,List 22,rosebush,NA,654,5.333333333,2195,655,BOI,-,-,Please name all of the ways you could use this object. Keep in mind that one object can have many uses. Separate your responses with a comma.,NA,y,66754,NA,NA,20788,60970,NA,NA,NA,"gardening, hiding, cutting, planting",1,MSU_TEXAS
M20278334_eah,heco7wwqup,Affordance Norms_MSU_TEX,1,34,2022-10-13T04:16:27+00:00,43.96139407,22,updated stim.csv,Version22.csv,Version 22,List 22,tutor,NA,634,4.608695652,2807,635,BOI,-,-,Please name all of the ways you could use this object. Keep in mind that one object can have many uses. Separate your responses with a comma.,NA,y,43587,NA,NA,3707,42678,NA,NA,NA,"help, mentor, homework, answers, support, teacher, information ",1,MSU_TEXAS
M20278334_eah,heco7wwqup,Affordance Norms_MSU_TEX,1,35,2022-10-13T04:16:58+00:00,30.66341496,22,updated stim.csv,Version22.csv,Version 22,List 22,needlepoint,NA,640,4.576923077,1746,641,BOI,-,-,Please name all of the ways you could use this object. Keep in mind that one object can have many uses. Separate your responses with a comma.,NA,y,30287,NA,NA,6571,24402,NA,NA,NA,"sewing, making, crafting, crochet",1,MSU_TEXAS
M20278334_eah,heco7wwqup,Affordance Norms_MSU_TEX,1,36,2022-10-13T04:17:41+00:00,42.90728402,22,updated stim.csv,Version22.csv,Version 22,List 22,clam,NA,657,4.375,545,658,BOI,-,-,Please name all of the ways you could use this object. Keep in mind that one object can have many uses. Separate your responses with a comma.,NA,y,42527,NA,NA,3260,41676,NA,NA,NA,"eating, steamed, baked, fried, boiled",1,MSU_TEXAS
M20278334_eah,heco7wwqup,Affordance Norms_MSU_TEX,1,37,2022-10-13T04:18:27+00:00,46.42289114,22,updated stim.csv,Version22.csv,Version 22,List 22,trunk,NA,631,5.217391304,2788,632,BOI,-,-,Please name all of the ways you could use this object. Keep in mind that one object can have many uses. Separate your responses with a comma.,NA,y,46034,NA,NA,2355,41995,NA,NA,NA,"storage, carrying, holding, transferring",1,MSU_TEXAS
M20278334_eah,heco7wwqup,Affordance Norms_MSU_TEX,1,38,2022-10-13T04:19:15+00:00,47.36420989,22,updated stim.csv,Version22.csv,Version 22,List 22,beach,NA,637,5.666666667,176,638,BOI,-,-,Please name all of the ways you could use this object. Keep in mind that one object can have many uses. Separate your responses with a comma.,NA,y,46974,NA,NA,2762,38712,NA,NA,NA,"vacation, swimming, tanning, sand castles, snorkeling, diving ",1,MSU_TEXAS
M20278334_eah,heco7wwqup,Affordance Norms_MSU_TEX,1,39,2022-10-13T04:19:48+00:00,33.2461679,22,updated stim.csv,Version22.csv,Version 22,List 22,seawater,NA,633,4.961538462,2303,634,BOI,-,-,Please name all of the ways you could use this object. Keep in mind that one object can have many uses. Separate your responses with a comma.,NA,y,32861,NA,NA,3733,28856,NA,NA,NA,"drinking, swimming, boating, fishing",1,MSU_TEXAS
M20278334_eah,heco7wwqup,Affordance Norms_MSU_TEX,1,40,2022-10-13T04:20:16+00:00,28.5461781,22,updated stim.csv,Version22.csv,Version 22,List 22,mountainside,NA,635,4.708333333,1700,636,BOI,-,-,Please name all of the ways you could use this object. Keep in mind that one object can have many uses. Separate your responses with a comma.,NA,y,27469,NA,NA,8659,17044,NA,NA,NA,"climbing, hiking, exploring",1,MSU_TEXAS
M20286751,1hqpywdfge,Affordance Norms_MSU_TEX,1,11,2022-10-13T15:59:17+00:00,16.37526107,23,updated stim.csv,Version23.csv,Version 23,List 23,lodge,NA,677,4.833333333,1539,678,BOI,-,-,Please name all of the ways you could use this object. Keep in mind that one object can have many uses. Separate your responses with a comma.,NA,y,16074,NA,NA,6402,14315,NA,NA,NA,"live,sleep,visit",1,MSU_TEXAS
M20286751,1hqpywdfge,Affordance Norms_MSU_TEX,1,12,2022-10-13T15:59:59+00:00,41.92395806,23,updated stim.csv,Version23.csv,Version 23,List 23,woodcraft,NA,664,4.296296296,2959,665,BOI,-,-,Please name all of the ways you could use this object. Keep in mind that one object can have many uses. Separate your responses with a comma.,NA,y,41622,NA,NA,25404,27697,NA,NA,NA,build,1,MSU_TEXAS
M20286751,1hqpywdfge,Affordance Norms_MSU_TEX,1,13,2022-10-13T16:00:19+00:00,20.07071996,23,updated stim.csv,Version23.csv,Version 23,List 23,pill,NA,666,6.36,1960,667,BOI,-,-,Please name all of the ways you could use this object. Keep in mind that one object can have many uses. Separate your responses with a comma.,NA,y,19794,NA,NA,1719,17898,NA,NA,NA,"swallow, throw, spit",1,MSU_TEXAS
M20286751,1hqpywdfge,Affordance Norms_MSU_TEX,1,14,2022-10-13T16:00:33+00:00,13.71384287,23,updated stim.csv,Version23.csv,Version 23,List 23,shovel,NA,688,5.925925926,2363,689,BOI,-,-,Please name all of the ways you could use this object. Keep in mind that one object can have many uses. Separate your responses with a comma.,NA,y,13418,NA,NA,1833,10078,NA,NA,NA,"dig, fill up ",1,MSU_TEXAS
M20286751,1hqpywdfge,Affordance Norms_MSU_TEX,1,15,2022-10-13T16:00:49+00:00,15.98475599,23,updated stim.csv,Version23.csv,Version 23,List 23,suture,NA,686,4.652173913,2600,687,BOI,-,-,Please name all of the ways you could use this object. Keep in mind that one object can have many uses. Separate your responses with a comma.,NA,y,15718,NA,NA,4257,14199,NA,NA,NA,"wound, sew ,tool",1,MSU_TEXAS
M20286751,1hqpywdfge,Affordance Norms_MSU_TEX,1,16,2022-10-13T16:01:05+00:00,16.26722217,23,updated stim.csv,Version23.csv,Version 23,List 23,flowerbed,NA,670,5.041666667,1016,671,BOI,-,-,Please name all of the ways you could use this object. Keep in mind that one object can have many uses. Separate your responses with a comma.,NA,y,15991,NA,NA,12165,13831,NA,NA,NA,smell,1,MSU_TEXAS
M20286751,1hqpywdfge,Affordance Norms_MSU_TEX,1,17,2022-10-13T16:01:27+00:00,21.999125,23,updated stim.csv,Version23.csv,Version 23,List 23,Shirt,NA,676,6.473045822,2346,677,BOI,-,-,Please name all of the ways you could use this object. Keep in mind that one object can have many uses. Separate your responses with a comma.,NA,y,21728,NA,NA,1639,16781,NA,NA,NA,"wear, cut, throw , donate",1,MSU_TEXAS
M20286751,1hqpywdfge,Affordance Norms_MSU_TEX,1,18,2022-10-13T16:01:41+00:00,14.16293597,23,updated stim.csv,Version23.csv,Version 23,List 23,ice,NA,685,5.458333333,1344,686,BOI,-,-,Please name all of the ways you could use this object. Keep in mind that one object can have many uses. Separate your responses with a comma.,NA,y,13836,NA,NA,1478,11974,NA,NA,NA,"eat, melt, throw",1,MSU_TEXAS
M20286751,1hqpywdfge,Affordance Norms_MSU_TEX,1,19,2022-10-13T16:02:01+00:00,20.035815,23,updated stim.csv,Version23.csv,Version 23,List 23,actress,NA,684,4.92,11,685,BOI,-,-,Please name all of the ways you could use this object. Keep in mind that one object can have many uses. Separate your responses with a comma.,NA,y,19740,NA,NA,6911,17907,NA,NA,NA,"to sing, play a trick, act ",1,MSU_TEXAS
M20286751,1hqpywdfge,Affordance Norms_MSU_TEX,1,20,2022-10-13T16:03:11+00:00,70.19778585,23,updated stim.csv,Version23.csv,Version 23,List 23,journal,NA,674,6,1390,675,BOI,-,-,Please name all of the ways you could use this object. Keep in mind that one object can have many uses. Separate your responses with a comma.,NA,y,69728,NA,NA,51602,67953,NA,NA,NA,"write, read, draw, paint , throw ",1,MSU_TEXAS
M20286751,1hqpywdfge,Affordance Norms_MSU_TEX,1,21,2022-10-13T16:03:29+00:00,17.70204806,23,updated stim.csv,Version23.csv,Version 23,List 23,pantaloons,NA,690,4.695652174,1858,691,BOI,-,-,Please name all of the ways you could use this object. Keep in mind that one object can have many uses. Separate your responses with a comma.,NA,y,17354,NA,NA,4346,15879,NA,NA,NA,"underwear, bottoms",1,MSU_TEXAS
M20286751,1hqpywdfge,Affordance Norms_MSU_TEX,1,22,2022-10-13T16:03:47+00:00,17.5110631,23,updated stim.csv,Version23.csv,Version 23,List 23,slide,NA,675,5.130434783,2411,676,BOI,-,-,Please name all of the ways you could use this object. Keep in mind that one object can have many uses. Separate your responses with a comma.,NA,y,17097,NA,NA,13401,14486,NA,NA,NA,play,1,MSU_TEXAS
M20286751,1hqpywdfge,Affordance Norms_MSU_TEX,1,23,2022-10-13T16:05:29+00:00,101.9543738,23,updated stim.csv,Version23.csv,Version 23,List 23,brick,NA,671,5.64,317,672,BOI,-,-,Please name all of the ways you could use this object. Keep in mind that one object can have many uses. Separate your responses with a comma.,NA,y,101489,NA,NA,1362,6332,NA,NA,NA,"throw, build",1,MSU_TEXAS
M20286751,1hqpywdfge,Affordance Norms_MSU_TEX,1,24,2022-10-13T16:05:36+00:00,7.891947031,23,updated stim.csv,Version23.csv,Version 23,List 23,honeydew,NA,667,5.444444444,1304,668,BOI,-,-,Please name all of the ways you could use this object. Keep in mind that one object can have many uses. Separate your responses with a comma.,NA,y,7609,NA,NA,5902,6501,NA,NA,NA,eat,1,MSU_TEXAS
M20286751,1hqpywdfge,Affordance Norms_MSU_TEX,1,25,2022-10-13T16:06:03+00:00,26.85272312,23,updated stim.csv,Version23.csv,Version 23,List 23,lasso,NA,663,5.555555556,1468,664,BOI,-,-,Please name all of the ways you could use this object. Keep in mind that one object can have many uses. Separate your responses with a comma.,NA,y,26559,NA,NA,2539,25252,NA,NA,NA,"rope animals, rope people, grab beer ",1,MSU_TEXAS
M20286751,1hqpywdfge,Affordance Norms_MSU_TEX,1,26,2022-10-13T16:06:22+00:00,19.01699185,23,updated stim.csv,Version23.csv,Version 23,List 23,earplug,NA,689,6.111111111,879,690,BOI,-,-,Please name all of the ways you could use this object. Keep in mind that one object can have many uses. Separate your responses with a comma.,NA,y,18735,NA,NA,2834,14612,NA,NA,NA,block noise,1,MSU_TEXAS
M20286751,1hqpywdfge,Affordance Norms_MSU_TEX,1,27,2022-10-13T16:06:49+00:00,26.77075315,23,updated stim.csv,Version23.csv,Version 23,List 23,bucket,NA,669,6,341,670,BOI,-,-,Please name all of the ways you could use this object. Keep in mind that one object can have many uses. Separate your responses with a comma.,NA,y,26476,NA,NA,2391,24306,NA,NA,NA,"put ice in, put clothes in , put food in, shovel snow",1,MSU_TEXAS
M20286751,1hqpywdfge,Affordance Norms_MSU_TEX,1,28,2022-10-13T16:08:14+00:00,85.09433103,23,updated stim.csv,Version23.csv,Version 23,List 23,auditorium,NA,683,4.392857143,97,684,BOI,-,-,Please name all of the ways you could use this object. Keep in mind that one object can have many uses. Separate your responses with a comma.,NA,y,84581,NA,NA,2947,17018,NA,NA,NA,"listen to music, watch a play, take a test ",1,MSU_TEXAS
M20286751,1hqpywdfge,Affordance Norms_MSU_TEX,1,29,2022-10-13T16:10:02+00:00,108.2680759,23,updated stim.csv,Version23.csv,Version 23,List 23,shaker,NA,673,4.36,2318,674,BOI,-,-,Please name all of the ways you could use this object. Keep in mind that one object can have many uses. Separate your responses with a comma.,NA,y,107742,NA,NA,3708,11285,NA,NA,NA,put seasoning in ,1,MSU_TEXAS
M20286751,1hqpywdfge,Affordance Norms_MSU_TEX,1,30,2022-10-13T16:10:12+00:00,9.666306019,23,updated stim.csv,Version23.csv,Version 23,List 23,heroin,NA,665,4.423076923,1282,666,BOI,-,-,Please name all of the ways you could use this object. Keep in mind that one object can have many uses. Separate your responses with a comma.,NA,y,9326,NA,NA,2268,7579,NA,NA,NA,"smoke, cook , sale ",1,MSU_TEXAS
M20286751,1hqpywdfge,Affordance Norms_MSU_TEX,1,31,2022-10-13T16:10:58+00:00,45.52968192,23,updated stim.csv,Version23.csv,Version 23,List 23,box,NA,668,6.291666667,294,669,BOI,-,-,Please name all of the ways you could use this object. Keep in mind that one object can have many uses. Separate your responses with a comma.,NA,y,45236,NA,NA,3226,9256,NA,NA,NA,storage ,1,MSU_TEXAS
M20286751,1hqpywdfge,Affordance Norms_MSU_TEX,1,32,2022-10-13T16:11:11+00:00,13.36685705,23,updated stim.csv,Version23.csv,Version 23,List 23,prize,NA,687,4.916666667,2069,688,BOI,-,-,Please name all of the ways you could use this object. Keep in mind that one object can have many uses. Separate your responses with a comma.,NA,y,13026,NA,NA,4952,11429,NA,NA,NA,"a reward, a gift ",1,MSU_TEXAS
M20286751,1hqpywdfge,Affordance Norms_MSU_TEX,1,33,2022-10-13T16:11:37+00:00,25.73620296,23,updated stim.csv,Version23.csv,Version 23,List 23,child,NA,661,5.695652174,520,662,BOI,-,-,Please name all of the ways you could use this object. Keep in mind that one object can have many uses. Separate your responses with a comma.,NA,y,25443,NA,NA,2827,22205,NA,NA,NA,"to ask for something, play with, ",1,MSU_TEXAS
M20286751,1hqpywdfge,Affordance Norms_MSU_TEX,1,34,2022-10-13T16:11:52+00:00,15.70107603,23,updated stim.csv,Version23.csv,Version 23,List 23,breadbasket,NA,680,5.222222222,309,681,BOI,-,-,Please name all of the ways you could use this object. Keep in mind that one object can have many uses. Separate your responses with a comma.,NA,y,15356,NA,NA,5387,12729,NA,NA,NA,"sale, give away ,eat",1,MSU_TEXAS
M20286751,1hqpywdfge,Affordance Norms_MSU_TEX,1,35,2022-10-13T16:12:25+00:00,33.03017688,23,updated stim.csv,Version23.csv,Version 23,List 23,crown,NA,679,6.173913043,711,680,BOI,-,-,Please name all of the ways you could use this object. Keep in mind that one object can have many uses. Separate your responses with a comma.,NA,y,32737,NA,NA,1771,8781,NA,NA,NA,"wear, melt, give away ",1,MSU_TEXAS
M20286751,1hqpywdfge,Affordance Norms_MSU_TEX,1,36,2022-10-13T16:12:47+00:00,21.64910221,23,updated stim.csv,Version23.csv,Version 23,List 23,diaper,NA,678,5.64,787,679,BOI,-,-,Please name all of the ways you could use this object. Keep in mind that one object can have many uses. Separate your responses with a comma.,NA,y,21389,NA,NA,2994,18270,NA,NA,NA,"change, put on a baby, put on old person, throw in trash ",1,MSU_TEXAS
M20286751,1hqpywdfge,Affordance Norms_MSU_TEX,1,37,2022-10-13T16:12:55+00:00,8.333129883,23,updated stim.csv,Version23.csv,Version 23,List 23,podiatrist,NA,662,4.791666667,2016,663,BOI,-,-,Please name all of the ways you could use this object. Keep in mind that one object can have many uses. Separate your responses with a comma.,NA,y,8017,NA,NA,-1,-1,NA,NA,NA,,1,MSU_TEXAS
M20286751,1hqpywdfge,Affordance Norms_MSU_TEX,1,38,2022-10-13T16:13:33+00:00,37.282516,23,updated stim.csv,Version23.csv,Version 23,List 23,stapler,NA,682,6.458333333,2508,683,BOI,-,-,Please name all of the ways you could use this object. Keep in mind that one object can have many uses. Separate your responses with a comma.,NA,y,37001,NA,NA,3049,35970,NA,NA,NA,"put papers together, throw , give to friend ",1,MSU_TEXAS
M20286751,1hqpywdfge,Affordance Norms_MSU_TEX,1,39,2022-10-13T16:13:50+00:00,17.17707992,23,updated stim.csv,Version23.csv,Version 23,List 23,turtleneck,NA,681,5.375,2806,682,BOI,-,-,Please name all of the ways you could use this object. Keep in mind that one object can have many uses. Separate your responses with a comma.,NA,y,16886,NA,NA,2891,15211,NA,NA,NA,"wear, make a hairtie",1,MSU_TEXAS
M20286751,1hqpywdfge,Affordance Norms_MSU_TEX,1,40,2022-10-13T16:14:01+00:00,11.03525615,23,updated stim.csv,Version23.csv,Version 23,List 23,bifocals,NA,672,5.875,212,673,BOI,-,-,Please name all of the ways you could use this object. Keep in mind that one object can have many uses. Separate your responses with a comma.,NA,y,10727,NA,NA,1979,8104,NA,NA,NA,"to see, maginfy glass",1,MSU_TEXAS
M20289110JT,qopg2bwokw,Affordance Norms_MSU_TEX,1,11,2022-09-29T16:48:49+00:00,29.05129194,3,updated stim.csv,Version3.csv,Version 3,List 3,businesswoman,NA,86,5.08,371,87,BOI,-,-,Please name all of the ways you could use this object. Keep in mind that one object can have many uses. Separate your responses with a comma.,NA,y,28674,NA,NA,18677,22017,NA,NA,NA,Not an object ,1,MSU_TEXAS
M20289110JT,qopg2bwokw,Affordance Norms_MSU_TEX,1,12,2022-09-29T16:49:27+00:00,38.59509611,3,updated stim.csv,Version3.csv,Version 3,List 3,rink,NA,71,4.333333333,2171,72,BOI,-,-,Please name all of the ways you could use this object. Keep in mind that one object can have many uses. Separate your responses with a comma.,NA,y,38121,NA,NA,4400,35618,NA,NA,NA,"To rollerskate, ice skating, rollerblading, ",1,MSU_TEXAS
M20289110JT,qopg2bwokw,Affordance Norms_MSU_TEX,1,13,2022-09-29T16:50:58+00:00,91.07375598,3,updated stim.csv,Version3.csv,Version 3,List 3,rack,NA,73,4.68,2119,74,BOI,-,-,Please name all of the ways you could use this object. Keep in mind that one object can have many uses. Separate your responses with a comma.,NA,y,89572,NA,NA,9104,86987,NA,NA,NA,"To keep sauces, place condiments, place dishes, hold clothes, hold towels, hold bikes, ",1,MSU_TEXAS
M20289110JT,qopg2bwokw,Affordance Norms_MSU_TEX,1,14,2022-09-29T16:51:18+00:00,19.38119602,3,updated stim.csv,Version3.csv,Version 3,List 3,dogcatcher,NA,74,4.72,812,75,BOI,-,-,Please name all of the ways you could use this object. Keep in mind that one object can have many uses. Separate your responses with a comma.,NA,y,18987,NA,NA,4545,16610,NA,NA,NA,"Catch dogs, catch cats, ",1,MSU_TEXAS
M20289110JT,qopg2bwokw,Affordance Norms_MSU_TEX,1,15,2022-09-29T16:52:16+00:00,58.044137,3,updated stim.csv,Version3.csv,Version 3,List 3,fastener,NA,82,4.347826087,950,83,BOI,-,-,Please name all of the ways you could use this object. Keep in mind that one object can have many uses. Separate your responses with a comma.,NA,y,57624,NA,NA,2458,56760,NA,NA,NA,"Tighten clothes, loosen clothes, tighten bags, loosen bags, strap things together, loosen seatbelts, tighten seatbelts",1,MSU_TEXAS
M20289110JT,qopg2bwokw,Affordance Norms_MSU_TEX,1,16,2022-09-29T16:52:39+00:00,23.42807698,3,updated stim.csv,Version3.csv,Version 3,List 3,stake,NA,66,4.36,2503,67,BOI,-,-,Please name all of the ways you could use this object. Keep in mind that one object can have many uses. Separate your responses with a comma.,NA,y,23033,NA,NA,12095,20818,NA,NA,NA,"Hunting, make fires, protection ",1,MSU_TEXAS
M20289110JT,qopg2bwokw,Affordance Norms_MSU_TEX,1,17,2022-09-29T16:53:28+00:00,48.66667295,3,updated stim.csv,Version3.csv,Version 3,List 3,curtain,NA,84,5.875,732,85,BOI,-,-,Please name all of the ways you could use this object. Keep in mind that one object can have many uses. Separate your responses with a comma.,NA,y,47905,NA,NA,4575,44735,NA,NA,NA,"Block out sun, block out light, allow privacy, close, open , decoration, aesthetic ",1,MSU_TEXAS
M20289110JT,qopg2bwokw,Affordance Norms_MSU_TEX,1,18,2022-09-29T16:55:07+00:00,98.61333895,3,updated stim.csv,Version3.csv,Version 3,List 3,sash,NA,79,4.916666667,2244,80,BOI,-,-,Please name all of the ways you could use this object. Keep in mind that one object can have many uses. Separate your responses with a comma.,NA,y,97933,NA,NA,7348,26564,NA,NA,NA,"Birthdays, homecoming, prom, pageants, style, ",1,MSU_TEXAS
M20289110JT,qopg2bwokw,Affordance Norms_MSU_TEX,1,19,2022-09-29T16:57:18+00:00,131.508749,3,updated stim.csv,Version3.csv,Version 3,List 3,overcoat,NA,85,6.52,1832,86,BOI,-,-,Please name all of the ways you could use this object. Keep in mind that one object can have many uses. Separate your responses with a comma.,NA,y,131090,NA,NA,6418,128284,NA,NA,NA,"To keep warm, to pair with outfit, to keep clean, to protect from rain, to protect from snow, ",1,MSU_TEXAS
M20289110JT,qopg2bwokw,Affordance Norms_MSU_TEX,1,20,2022-09-29T16:59:16+00:00,117.7624462,3,updated stim.csv,Version3.csv,Version 3,List 3,stone,NA,67,5.875,2545,68,BOI,-,-,Please name all of the ways you could use this object. Keep in mind that one object can have many uses. Separate your responses with a comma.,NA,y,117295,NA,NA,3201,114683,NA,NA,NA,"Start fire, skip across water, shape into objects, collect",1,MSU_TEXAS
M20289110JT,qopg2bwokw,Affordance Norms_MSU_TEX,1,21,2022-09-29T16:59:58+00:00,41.96957493,3,updated stim.csv,Version3.csv,Version 3,List 3,perfume,NA,78,4.96,1926,79,BOI,-,-,Please name all of the ways you could use this object. Keep in mind that one object can have many uses. Separate your responses with a comma.,NA,y,41454,NA,NA,3760,39725,NA,NA,NA,"Can be sprayed, can be poured, to smell good, to mask other smells , to feel good ",1,MSU_TEXAS
M20289110JT,qopg2bwokw,Affordance Norms_MSU_TEX,1,22,2022-09-29T17:00:28+00:00,30.12139201,3,updated stim.csv,Version3.csv,Version 3,List 3,lilac,NA,80,5,1508,81,BOI,-,-,Please name all of the ways you could use this object. Keep in mind that one object can have many uses. Separate your responses with a comma.,NA,y,29485,NA,NA,5622,27521,NA,NA,NA,"Placed in a bouquet, planted , grown, nurtured ",1,MSU_TEXAS
M20289110JT,qopg2bwokw,Affordance Norms_MSU_TEX,1,23,2022-09-29T17:01:30+00:00,62.16056895,3,updated stim.csv,Version3.csv,Version 3,List 3,plastics,NA,61,5,1995,62,BOI,-,-,Please name all of the ways you could use this object. Keep in mind that one object can have many uses. Separate your responses with a comma.,NA,y,61212,NA,NA,3279,59775,NA,NA,NA,"Used for water bottles, made into bags, made into containers , used in clothes, used in shoes, made into toys, used in video games",1,MSU_TEXAS
M20289110JT,qopg2bwokw,Affordance Norms_MSU_TEX,1,24,2022-09-29T17:03:18+00:00,107.628171,3,updated stim.csv,Version3.csv,Version 3,List 3,postmaster,NA,64,5.2,2045,65,BOI,-,-,Please name all of the ways you could use this object. Keep in mind that one object can have many uses. Separate your responses with a comma.,NA,y,107034,NA,NA,92964,104618,NA,NA,NA,"Send mail, receive mail, ",1,MSU_TEXAS
M20289110JT,qopg2bwokw,Affordance Norms_MSU_TEX,1,25,2022-09-29T17:03:50+00:00,31.98475099,3,updated stim.csv,Version3.csv,Version 3,List 3,cart,NA,70,5.4,442,71,BOI,-,-,Please name all of the ways you could use this object. Keep in mind that one object can have many uses. Separate your responses with a comma.,NA,y,31588,NA,NA,3113,27135,NA,NA,NA,"For shopping, for moving, for holding items, to be rolled ",1,MSU_TEXAS
M20289110JT,qopg2bwokw,Affordance Norms_MSU_TEX,1,26,2022-09-29T17:04:12+00:00,21.90534306,3,updated stim.csv,Version3.csv,Version 3,List 3,footplate,NA,90,4.875,1038,91,BOI,-,-,Please name all of the ways you could use this object. Keep in mind that one object can have many uses. Separate your responses with a comma.,NA,y,21504,NA,NA,17095,20377,NA,NA,NA,To place feet on,1,MSU_TEXAS
M20289110JT,qopg2bwokw,Affordance Norms_MSU_TEX,1,27,2022-09-29T17:04:47+00:00,34.83830905,3,updated stim.csv,Version3.csv,Version 3,List 3,sportswriter,NA,69,4.32,2484,70,BOI,-,-,Please name all of the ways you could use this object. Keep in mind that one object can have many uses. Separate your responses with a comma.,NA,y,34419,NA,NA,3751,33573,NA,NA,NA,"To cover sports news, publish articles, write blogs, be a sports anchor",1,MSU_TEXAS
M20289110JT,qopg2bwokw,Affordance Norms_MSU_TEX,1,28,2022-09-29T17:04:59+00:00,12.53287792,3,updated stim.csv,Version3.csv,Version 3,List 3,limestone,NA,81,4.565217391,1515,82,BOI,-,-,Please name all of the ways you could use this object. Keep in mind that one object can have many uses. Separate your responses with a comma.,NA,y,12130,NA,NA,4121,10262,NA,NA,NA,"Used to make jewelry, ",1,MSU_TEXAS
M20289110JT,qopg2bwokw,Affordance Norms_MSU_TEX,1,29,2022-09-29T17:05:13+00:00,13.68801093,3,updated stim.csv,Version3.csv,Version 3,List 3,postage,NA,83,4.32,2041,84,BOI,-,-,Please name all of the ways you could use this object. Keep in mind that one object can have many uses. Separate your responses with a comma.,NA,y,13250,NA,NA,7521,12468,NA,NA,NA,Used to send packages,1,MSU_TEXAS
M20289110JT,qopg2bwokw,Affordance Norms_MSU_TEX,1,30,2022-09-29T17:05:54+00:00,41.10201621,3,updated stim.csv,Version3.csv,Version 3,List 3,lumber,NA,88,5.217391304,1557,89,BOI,-,-,Please name all of the ways you could use this object. Keep in mind that one object can have many uses. Separate your responses with a comma.,NA,y,40454,NA,NA,4583,39714,NA,NA,NA,"Can be chopped down, may be sold, placed in lumber yards, used for firewood, used to build shelter",1,MSU_TEXAS
M20289110JT,qopg2bwokw,Affordance Norms_MSU_TEX,1,31,2022-09-29T17:06:12+00:00,17.98060894,3,updated stim.csv,Version3.csv,Version 3,List 3,plow,NA,68,5,2008,69,BOI,-,-,Please name all of the ways you could use this object. Keep in mind that one object can have many uses. Separate your responses with a comma.,NA,y,17568,NA,NA,2883,16795,NA,NA,NA,"Used to plow trees, used in farming",1,MSU_TEXAS
M20289110JT,qopg2bwokw,Affordance Norms_MSU_TEX,1,32,2022-09-29T17:06:48+00:00,36.25370884,3,updated stim.csv,Version3.csv,Version 3,List 3,tights,NA,63,5.956521739,2696,64,BOI,-,-,Please name all of the ways you could use this object. Keep in mind that one object can have many uses. Separate your responses with a comma.,NA,y,35353,NA,NA,3101,34151,NA,NA,NA,"To keep warm, give an extra layer, keep covered, helps with compression ",1,MSU_TEXAS
M20289110JT,qopg2bwokw,Affordance Norms_MSU_TEX,1,33,2022-09-29T17:07:15+00:00,26.78066421,3,updated stim.csv,Version3.csv,Version 3,List 3,crumb,NA,89,4.45,714,90,BOI,-,-,Please name all of the ways you could use this object. Keep in mind that one object can have many uses. Separate your responses with a comma.,NA,y,26374,NA,NA,2245,25110,NA,NA,NA,"Can be eaten, cleaned, thrown away, used in meals",1,MSU_TEXAS
M20289110JT,qopg2bwokw,Affordance Norms_MSU_TEX,1,34,2022-09-29T17:07:40+00:00,25.44309902,3,updated stim.csv,Version3.csv,Version 3,List 3,litter,NA,75,5.034482759,1526,76,BOI,-,-,Please name all of the ways you could use this object. Keep in mind that one object can have many uses. Separate your responses with a comma.,NA,y,25005,NA,NA,2712,23434,NA,NA,NA,"For cats to go to restroom, may be sold, can be cleaned,",1,MSU_TEXAS
M20289110JT,qopg2bwokw,Affordance Norms_MSU_TEX,1,35,2022-09-29T17:08:00+00:00,19.81322694,3,updated stim.csv,Version3.csv,Version 3,List 3,delicatessen,NA,87,4.347826087,768,88,BOI,-,-,Please name all of the ways you could use this object. Keep in mind that one object can have many uses. Separate your responses with a comma.,NA,y,19295,NA,NA,15623,18308,NA,NA,NA,N/A,1,MSU_TEXAS
M20289110JT,qopg2bwokw,Affordance Norms_MSU_TEX,1,36,2022-09-29T17:08:50+00:00,49.61188793,3,updated stim.csv,Version3.csv,Version 3,List 3,spit,NA,76,4.391304348,2476,77,BOI,-,-,Please name all of the ways you could use this object. Keep in mind that one object can have many uses. Separate your responses with a comma.,NA,y,48975,NA,NA,8480,47245,NA,NA,NA,"Spit out, keep mouth not dry, keep lips not dry, used for breaking down foods, mastication",1,MSU_TEXAS
M20289110JT,qopg2bwokw,Affordance Norms_MSU_TEX,1,37,2022-09-29T17:09:10+00:00,20.08128405,3,updated stim.csv,Version3.csv,Version 3,List 3,police,NA,72,4.739130435,2021,73,BOI,-,-,Please name all of the ways you could use this object. Keep in mind that one object can have many uses. Separate your responses with a comma.,NA,y,19635,NA,NA,3358,19000,NA,NA,NA,"Keep people safe, respond to emergency, jumpstart car",1,MSU_TEXAS
M20289110JT,qopg2bwokw,Affordance Norms_MSU_TEX,1,38,2022-09-29T17:09:29+00:00,18.77738309,3,updated stim.csv,Version3.csv,Version 3,List 3,pinecone,NA,62,5.821428571,1972,63,BOI,-,-,Please name all of the ways you could use this object. Keep in mind that one object can have many uses. Separate your responses with a comma.,NA,y,18170,NA,NA,2902,12343,NA,NA,NA,"May be eaten, used for scent, ",1,MSU_TEXAS
M20289110JT,qopg2bwokw,Affordance Norms_MSU_TEX,1,39,2022-09-29T17:10:03+00:00,34.47577,3,updated stim.csv,Version3.csv,Version 3,List 3,stuff,NA,77,4.391304348,2574,78,BOI,-,-,Please name all of the ways you could use this object. Keep in mind that one object can have many uses. Separate your responses with a comma.,NA,y,33908,NA,NA,7944,30200,NA,NA,NA,"Used for anything, cleaned, hoarded, thrown away,gifted, ",1,MSU_TEXAS
M20289110JT,qopg2bwokw,Affordance Norms_MSU_TEX,1,40,2022-09-29T17:10:28+00:00,24.55994582,3,updated stim.csv,Version3.csv,Version 3,List 3,backbone,NA,65,4.64,113,66,BOI,-,-,Please name all of the ways you could use this object. Keep in mind that one object can have many uses. Separate your responses with a comma.,NA,y,22245,NA,NA,2429,21455,NA,NA,NA,"To support you back, hold body upright, posture",1,MSU_TEXAS
M20294450mmv,0yccq4ctz4,Affordance Norms_MSU_TEX,1,11,2022-10-04T03:26:27+00:00,53.24404907,14,updated stim.csv,Version14.csv,Version 14,List 14,earring,NA,405,6.428571429,881,406,BOI,-,-,Please name all of the ways you could use this object. Keep in mind that one object can have many uses. Separate your responses with a comma.,NA,y,52023,NA,NA,7032,46831,NA,NA,NA,"jewelry, accessory, piercing",1,MSU_TEXAS
M20294450mmv,0yccq4ctz4,Affordance Norms_MSU_TEX,1,12,2022-10-04T03:26:55+00:00,27.83276796,14,updated stim.csv,Version14.csv,Version 14,List 14,flannels,NA,413,5.681818182,999,414,BOI,-,-,Please name all of the ways you could use this object. Keep in mind that one object can have many uses. Separate your responses with a comma.,NA,y,27650,NA,NA,4345,25926,NA,NA,NA,"wear, keep warm, style, for fall",1,MSU_TEXAS
M20294450mmv,0yccq4ctz4,Affordance Norms_MSU_TEX,1,13,2022-10-04T03:27:46+00:00,51.24014497,14,updated stim.csv,Version14.csv,Version 14,List 14,brassiere,NA,409,5.666666667,306,410,BOI,-,-,Please name all of the ways you could use this object. Keep in mind that one object can have many uses. Separate your responses with a comma.,NA,y,51057,NA,NA,34019,48987,NA,NA,NA,"support, wear, cover, comfortable",1,MSU_TEXAS
M20294450mmv,0yccq4ctz4,Affordance Norms_MSU_TEX,1,14,2022-10-04T03:28:44+00:00,57.55703902,14,updated stim.csv,Version14.csv,Version 14,List 14,hairpin,NA,397,6.125,1216,398,BOI,-,-,Please name all of the ways you could use this object. Keep in mind that one object can have many uses. Separate your responses with a comma.,NA,y,57374,NA,NA,4664,19101,NA,NA,NA,"accessories, get hair out of the way, ",1,MSU_TEXAS
M20294450mmv,0yccq4ctz4,Affordance Norms_MSU_TEX,1,15,2022-10-04T03:30:03+00:00,78.87277603,14,updated stim.csv,Version14.csv,Version 14,List 14,vagina,NA,399,6.041666667,2832,400,BOI,-,-,Please name all of the ways you could use this object. Keep in mind that one object can have many uses. Separate your responses with a comma.,NA,y,78562,NA,NA,44157,76928,NA,NA,NA,"pee, bleed, to have children, hygiene ",1,MSU_TEXAS
M20294450mmv,0yccq4ctz4,Affordance Norms_MSU_TEX,1,16,2022-10-04T03:31:24+00:00,81.67390084,14,updated stim.csv,Version14.csv,Version 14,List 14,driftwood,NA,395,5.416666667,847,396,BOI,-,-,Please name all of the ways you could use this object. Keep in mind that one object can have many uses. Separate your responses with a comma.,NA,y,81364,NA,NA,17739,69215,NA,NA,NA,"make a fire, burn, shelter, ",1,MSU_TEXAS
M20294450mmv,0yccq4ctz4,Affordance Norms_MSU_TEX,1,17,2022-10-04T03:32:54+00:00,89.88666105,14,updated stim.csv,Version14.csv,Version 14,List 14,cord,NA,420,6.103448276,640,421,BOI,-,-,Please name all of the ways you could use this object. Keep in mind that one object can have many uses. Separate your responses with a comma.,NA,y,89598,NA,NA,2158,87597,NA,NA,NA,"charger, hair straightener, computer charger, lights, fans, ",1,MSU_TEXAS
M20294450mmv,0yccq4ctz4,Affordance Norms_MSU_TEX,1,18,2022-10-04T03:33:30+00:00,35.47680998,14,updated stim.csv,Version14.csv,Version 14,List 14,tuba,NA,401,5.130434783,2790,402,BOI,-,-,Please name all of the ways you could use this object. Keep in mind that one object can have many uses. Separate your responses with a comma.,NA,y,35292,NA,NA,2589,29761,NA,NA,NA,"play music, make money, be in a band",1,MSU_TEXAS
M20294450mmv,0yccq4ctz4,Affordance Norms_MSU_TEX,1,19,2022-10-04T03:34:32+00:00,62.29565215,14,updated stim.csv,Version14.csv,Version 14,List 14,booth,NA,403,4.92,282,404,BOI,-,-,Please name all of the ways you could use this object. Keep in mind that one object can have many uses. Separate your responses with a comma.,NA,y,62007,NA,NA,2208,52633,NA,NA,NA,"take pictures, sell food, sell drinks, sell prizes",1,MSU_TEXAS
M20294450mmv,0yccq4ctz4,Affordance Norms_MSU_TEX,1,20,2022-10-04T03:34:48+00:00,15.53344893,14,updated stim.csv,Version14.csv,Version 14,List 14,fisherman,NA,418,4.851851852,991,419,BOI,-,-,Please name all of the ways you could use this object. Keep in mind that one object can have many uses. Separate your responses with a comma.,NA,y,15338,NA,NA,1736,10393,NA,NA,NA,"catch fish, make money",1,MSU_TEXAS
M20294450mmv,0yccq4ctz4,Affordance Norms_MSU_TEX,1,21,2022-10-04T03:35:11+00:00,23.88533592,14,updated stim.csv,Version14.csv,Version 14,List 14,Cheeseburger,NA,402,NA,3001,403,BOI,-,-,Please name all of the ways you could use this object. Keep in mind that one object can have many uses. Separate your responses with a comma.,NA,y,23698,NA,NA,1250,14996,NA,NA,NA,"eat, sell, throw away, draw",1,MSU_TEXAS
M20294450mmv,0yccq4ctz4,Affordance Norms_MSU_TEX,1,22,2022-10-04T03:35:55+00:00,43.77204514,14,updated stim.csv,Version14.csv,Version 14,List 14,hamstring,NA,408,5.08,1227,409,BOI,-,-,Please name all of the ways you could use this object. Keep in mind that one object can have many uses. Separate your responses with a comma.,NA,y,43594,NA,NA,4216,41995,NA,NA,NA,"muscle, pulled muscle, human muscle",1,MSU_TEXAS
M20294450mmv,0yccq4ctz4,Affordance Norms_MSU_TEX,1,23,2022-10-04T03:37:07+00:00,71.58623099,14,updated stim.csv,Version14.csv,Version 14,List 14,granddaughter,NA,392,5,1146,393,BOI,-,-,Please name all of the ways you could use this object. Keep in mind that one object can have many uses. Separate your responses with a comma.,NA,y,71298,NA,NA,9625,66772,NA,NA,NA,"help with cooking, buy gifts, spoil, take on vacations",1,MSU_TEXAS
M20294450mmv,0yccq4ctz4,Affordance Norms_MSU_TEX,1,24,2022-10-04T03:37:23+00:00,16.04794192,14,updated stim.csv,Version14.csv,Version 14,List 14,seasoning,NA,411,4.47826087,2300,412,BOI,-,-,Please name all of the ways you could use this object. Keep in mind that one object can have many uses. Separate your responses with a comma.,NA,y,15866,NA,NA,3406,12645,NA,NA,NA,"season food, measure, cook",1,MSU_TEXAS
M20294450mmv,0yccq4ctz4,Affordance Norms_MSU_TEX,1,25,2022-10-04T03:37:40+00:00,17.26713896,14,updated stim.csv,Version14.csv,Version 14,List 14,doorstep,NA,396,5.333333333,828,397,BOI,-,-,Please name all of the ways you could use this object. Keep in mind that one object can have many uses. Separate your responses with a comma.,NA,y,17083,NA,NA,1839,10548,NA,NA,NA,"walk to the door, decorate, clean",1,MSU_TEXAS
M20294450mmv,0yccq4ctz4,Affordance Norms_MSU_TEX,1,26,2022-10-04T03:38:11+00:00,30.48182201,14,updated stim.csv,Version14.csv,Version 14,List 14,suede,NA,391,5,2579,392,BOI,-,-,Please name all of the ways you could use this object. Keep in mind that one object can have many uses. Separate your responses with a comma.,NA,y,30247,NA,NA,4735,26677,NA,NA,NA,"used for blanket, shirts, shorts, pants, socks, pillows, jackets",1,MSU_TEXAS
M20294450mmv,0yccq4ctz4,Affordance Norms_MSU_TEX,1,27,2022-10-04T03:38:45+00:00,34.64117694,14,updated stim.csv,Version14.csv,Version 14,List 14,hutch,NA,400,4.708333333,1342,401,BOI,-,-,Please name all of the ways you could use this object. Keep in mind that one object can have many uses. Separate your responses with a comma.,NA,y,34457,NA,NA,15141,33193,NA,NA,NA,"serve food, serve drinks, display",1,MSU_TEXAS
M20294450mmv,0yccq4ctz4,Affordance Norms_MSU_TEX,1,28,2022-10-04T03:39:00+00:00,14.72957516,14,updated stim.csv,Version14.csv,Version 14,List 14,clip,NA,406,4.833333333,560,407,BOI,-,-,Please name all of the ways you could use this object. Keep in mind that one object can have many uses. Separate your responses with a comma.,NA,y,14541,NA,NA,2689,9915,NA,NA,NA,"hold hair, hold papers",1,MSU_TEXAS
M20294450mmv,0yccq4ctz4,Affordance Norms_MSU_TEX,1,29,2022-10-04T03:39:16+00:00,15.77931786,14,updated stim.csv,Version14.csv,Version 14,List 14,turnip,NA,412,6.12,2802,413,BOI,-,-,Please name all of the ways you could use this object. Keep in mind that one object can have many uses. Separate your responses with a comma.,NA,y,15602,NA,NA,2326,13816,NA,NA,NA,"to eat, make smoothies, make meals",1,MSU_TEXAS
M20294450mmv,0yccq4ctz4,Affordance Norms_MSU_TEX,1,30,2022-10-04T03:40:27+00:00,70.91723514,14,updated stim.csv,Version14.csv,Version 14,List 14,pedestal,NA,419,4.88,1901,420,BOI,-,-,Please name all of the ways you could use this object. Keep in mind that one object can have many uses. Separate your responses with a comma.,NA,y,70623,NA,NA,23537,50357,NA,NA,NA,"support a statue, place laundry detergent, ",1,MSU_TEXAS
M20294450mmv,0yccq4ctz4,Affordance Norms_MSU_TEX,1,31,2022-10-04T03:41:01+00:00,34.09893298,14,updated stim.csv,Version14.csv,Version 14,List 14,crayon,NA,394,6.36,687,395,BOI,-,-,Please name all of the ways you could use this object. Keep in mind that one object can have many uses. Separate your responses with a comma.,NA,y,33912,NA,NA,1736,32573,NA,NA,NA,"to color, to trace, to write, to learn",1,MSU_TEXAS
M20294450mmv,0yccq4ctz4,Affordance Norms_MSU_TEX,1,32,2022-10-04T03:41:37+00:00,36.43239689,14,updated stim.csv,Version14.csv,Version 14,List 14,broker,NA,404,4.464285714,330,405,BOI,-,-,Please name all of the ways you could use this object. Keep in mind that one object can have many uses. Separate your responses with a comma.,NA,y,36252,NA,NA,20945,34915,NA,NA,NA,"trading, sell orders",1,MSU_TEXAS
M20294450mmv,0yccq4ctz4,Affordance Norms_MSU_TEX,1,33,2022-10-04T03:42:05+00:00,27.52218699,14,updated stim.csv,Version14.csv,Version 14,List 14,cocktail,NA,415,5.481481481,588,416,BOI,-,-,Please name all of the ways you could use this object. Keep in mind that one object can have many uses. Separate your responses with a comma.,NA,y,27339,NA,NA,8879,23927,NA,NA,NA,"to drink, spend time with friends, to make",1,MSU_TEXAS
M20294450mmv,0yccq4ctz4,Affordance Norms_MSU_TEX,1,34,2022-10-04T03:42:24+00:00,19.29041815,14,updated stim.csv,Version14.csv,Version 14,List 14,milkshake,NA,393,6.4,1661,394,BOI,-,-,Please name all of the ways you could use this object. Keep in mind that one object can have many uses. Separate your responses with a comma.,NA,y,19108,NA,NA,3636,16899,NA,NA,NA,"to drink, to make, add different flavors ",1,MSU_TEXAS
M20294450mmv,0yccq4ctz4,Affordance Norms_MSU_TEX,1,35,2022-10-04T03:44:27+00:00,123.4496019,14,updated stim.csv,Version14.csv,Version 14,List 14,paperhanger,NA,410,4.625,1864,411,BOI,-,-,Please name all of the ways you could use this object. Keep in mind that one object can have many uses. Separate your responses with a comma.,NA,y,123158,NA,NA,95645,116672,NA,NA,NA,"decorate, hang stuff on the wall ",1,MSU_TEXAS
M20294450mmv,0yccq4ctz4,Affordance Norms_MSU_TEX,1,36,2022-10-04T03:45:43+00:00,75.40167999,14,updated stim.csv,Version14.csv,Version 14,List 14,pellet,NA,416,4.296296296,1910,417,BOI,-,-,Please name all of the ways you could use this object. Keep in mind that one object can have many uses. Separate your responses with a comma.,NA,y,75113,NA,NA,4620,73810,NA,NA,NA,"cooking, fuel, soak of water, for fires",1,MSU_TEXAS
M20294450mmv,0yccq4ctz4,Affordance Norms_MSU_TEX,1,37,2022-10-04T03:46:19+00:00,36.01581216,14,updated stim.csv,Version14.csv,Version 14,List 14,tonic,NA,414,5.086956522,2729,415,BOI,-,-,Please name all of the ways you could use this object. Keep in mind that one object can have many uses. Separate your responses with a comma.,NA,y,35834,NA,NA,12631,34469,NA,NA,NA,"drinking, treatment, cleaning",1,MSU_TEXAS
