"Username","ID","ExperimentName","Session","Trial","Date","TimeDif","Condition.Number","Stimuli.File","Order.File","Condition.Description","Condition.Notes","Stimuli.Cue","Stimuli.Answer","Stimuli.Shuffle","Stimuli.Stimuli.Notes","Stimuli.Value","Stimuli.Rand","Procedure.Item","Procedure.Trial.Type","Procedure.Max.Time","Procedure.Min.Time","Procedure.Text","Procedure.Procedure.Notes","Procedure.Shuffle","Response.RT","Response.Response","Response.Accuracy","Response.RTfirst","Response.RTlast","Response.strictAcc","Response.lenientAcc","Response.focus","Response.JOL","Response.Focus"
"55b0ecccfdf99b2116e4123f","i8nnvkjsd5","Affordance Norms_Prolific",1,11,"2023-07-21T18:38:13+00:00",41.010163068771,20,"updated stim.csv","Version20.csv","Version 20","List 20","textile",NA,575,4.96,1073,0.507161058,576,"BOI","-","-","Please name all of the ways you could use this object. Keep in mind that one object can have many uses. Separate your responses with a comma.",NA,"y",40171,NA,NA,4618,38884,NA,NA,NA,"clothing, bedding, curtains, sewing, projects",1
"55b0ecccfdf99b2116e4123f","i8nnvkjsd5","Affordance Norms_Prolific",1,12,"2023-07-21T18:38:46+00:00",33.273777961731,20,"updated stim.csv","Version20.csv","Version 20","List 20","godfather",NA,586,5.565217391,2306,0.20374677,587,"BOI","-","-","Please name all of the ways you could use this object. Keep in mind that one object can have many uses. Separate your responses with a comma.",NA,"y",32299,NA,NA,4712,30953,NA,NA,NA,"family member, friend, religious guidance",1
"55b0ecccfdf99b2116e4123f","i8nnvkjsd5","Affordance Norms_Prolific",1,13,"2023-07-21T18:39:18+00:00",31.740379095078,20,"updated stim.csv","Version20.csv","Version 20","List 20","document",NA,596,4.714285714,706,0.39617836,597,"BOI","-","-","Please name all of the ways you could use this object. Keep in mind that one object can have many uses. Separate your responses with a comma.",NA,"y",30771,NA,NA,7787,24004,NA,NA,NA,"information, evidence, form",1
"55b0ecccfdf99b2116e4123f","i8nnvkjsd5","Affordance Norms_Prolific",1,14,"2023-07-21T18:39:42+00:00",23.969398021698,20,"updated stim.csv","Version20.csv","Version 20","List 20","model",NA,588,4.916666667,344,0.678293363,589,"BOI","-","-","Please name all of the ways you could use this object. Keep in mind that one object can have many uses. Separate your responses with a comma.",NA,"y",23047,NA,NA,8157,20085,NA,NA,NA,"to look at, studying, practice",1
"55b0ecccfdf99b2116e4123f","i8nnvkjsd5","Affordance Norms_Prolific",1,15,"2023-07-21T18:39:55+00:00",13.645188808441,20,"updated stim.csv","Version20.csv","Version 20","List 20","oilcloth",NA,590,6.086956522,1886,0.101584578,591,"BOI","-","-","Please name all of the ways you could use this object. Keep in mind that one object can have many uses. Separate your responses with a comma.",NA,"y",12761,NA,NA,2865,10920,NA,NA,NA,"wipe spills, cleaning",1
"55b0ecccfdf99b2116e4123f","i8nnvkjsd5","Affordance Norms_Prolific",1,16,"2023-07-21T18:40:18+00:00",22.706693172455,20,"updated stim.csv","Version20.csv","Version 20","List 20","enemy",NA,582,5.083333333,2309,0.909423363,583,"BOI","-","-","Please name all of the ways you could use this object. Keep in mind that one object can have many uses. Separate your responses with a comma.",NA,"y",21673,NA,NA,10476,20209,NA,NA,NA,"to ignore, be mean to",1
"55b0ecccfdf99b2116e4123f","i8nnvkjsd5","Affordance Norms_Prolific",1,17,"2023-07-21T18:40:30+00:00",12.503906965256,20,"updated stim.csv","Version20.csv","Version 20","List 20","feather",NA,583,5.125,2317,0.345258516,584,"BOI","-","-","Please name all of the ways you could use this object. Keep in mind that one object can have many uses. Separate your responses with a comma.",NA,"y",11729,NA,NA,1523,9529,NA,NA,NA,"tickle, art, play with",1
"55b0ecccfdf99b2116e4123f","i8nnvkjsd5","Affordance Norms_Prolific",1,18,"2023-07-21T18:41:06+00:00",35.73258805275,20,"updated stim.csv","Version20.csv","Version 20","List 20","wart",NA,577,5,2401,0.959116035,578,"BOI","-","-","Please name all of the ways you could use this object. Keep in mind that one object can have many uses. Separate your responses with a comma.",NA,"y",34755,NA,NA,13622,33245,NA,NA,NA,"repeling people, showing people",1
"55b0ecccfdf99b2116e4123f","i8nnvkjsd5","Affordance Norms_Prolific",1,19,"2023-07-21T18:41:43+00:00",36.55304980278,20,"updated stim.csv","Version20.csv","Version 20","List 20","geranium",NA,597,5.517241379,1093,0.914098667,598,"BOI","-","-","Please name all of the ways you could use this object. Keep in mind that one object can have many uses. Separate your responses with a comma.",NA,"y",35361,NA,NA,11023,30171,NA,NA,NA,"looking at, smelling, planting, cutting, ",0.968
"55b0ecccfdf99b2116e4123f","i8nnvkjsd5","Affordance Norms_Prolific",1,20,"2023-07-21T18:42:02+00:00",19.044822216034,20,"updated stim.csv","Version20.csv","Version 20","List 20","steroids",NA,573,5.173913043,1372,0.856688434,574,"BOI","-","-","Please name all of the ways you could use this object. Keep in mind that one object can have many uses. Separate your responses with a comma.",NA,"y",18008,NA,NA,3363,15156,NA,NA,NA,"getting bigger muscles, for illness",1
"55b0ecccfdf99b2116e4123f","i8nnvkjsd5","Affordance Norms_Prolific",1,21,"2023-07-21T18:42:24+00:00",22.122975826263,20,"updated stim.csv","Version20.csv","Version 20","List 20","gymnast",NA,587,4.538461538,47,0.730388709,588,"BOI","-","-","Please name all of the ways you could use this object. Keep in mind that one object can have many uses. Separate your responses with a comma.",NA,"y",21221,NA,NA,3516,20139,NA,NA,NA,"doing gymnastics, competing, demonstrating, getting fit",1
"55b0ecccfdf99b2116e4123f","i8nnvkjsd5","Affordance Norms_Prolific",1,22,"2023-07-21T18:42:48+00:00",23.772219181061,20,"updated stim.csv","Version20.csv","Version 20","List 20","feline",NA,584,4.909090909,1257,0.234929947,585,"BOI","-","-","Please name all of the ways you could use this object. Keep in mind that one object can have many uses. Separate your responses with a comma.",NA,"y",22954,NA,NA,5422,20586,NA,NA,NA,"pet, stroke, feed, play with",1
"55b0ecccfdf99b2116e4123f","i8nnvkjsd5","Affordance Norms_Prolific",1,23,"2023-07-21T18:43:02+00:00",14.415592908859,20,"updated stim.csv","Version20.csv","Version 20","List 20","cheerleader",NA,579,5.916666667,2628,0.900070154,580,"BOI","-","-","Please name all of the ways you could use this object. Keep in mind that one object can have many uses. Separate your responses with a comma.",NA,"y",13530,NA,NA,2045,12236,NA,NA,NA,"cheering, dancing, enteraining",1
"55b0ecccfdf99b2116e4123f","i8nnvkjsd5","Affordance Norms_Prolific",1,24,"2023-07-21T18:43:32+00:00",29.900093078613,20,"updated stim.csv","Version20.csv","Version 20","List 20","laboratory",NA,600,5.125,1803,0.545634211,601,"BOI","-","-","Please name all of the ways you could use this object. Keep in mind that one object can have many uses. Separate your responses with a comma.",NA,"y",28957,NA,NA,2046,27288,NA,NA,NA,"doing experiments, testing drugs, collecting samples, reporting",1
"55b0ecccfdf99b2116e4123f","i8nnvkjsd5","Affordance Norms_Prolific",1,25,"2023-07-21T18:43:55+00:00",23.369804859161,20,"updated stim.csv","Version20.csv","Version 20","List 20","hairline",NA,599,6.130434783,2527,0.499161262,600,"BOI","-","-","Please name all of the ways you could use this object. Keep in mind that one object can have many uses. Separate your responses with a comma.",NA,"y",22313,NA,NA,15146,20609,NA,NA,NA,"brushing, styling",1
"55b0ecccfdf99b2116e4123f","i8nnvkjsd5","Affordance Norms_Prolific",1,26,"2023-07-21T18:44:23+00:00",27.732696056366,20,"updated stim.csv","Version20.csv","Version 20","List 20","girlfriend",NA,598,5.04,1798,0.141308746,599,"BOI","-","-","Please name all of the ways you could use this object. Keep in mind that one object can have many uses. Separate your responses with a comma.",NA,"y",26692,NA,NA,5587,25129,NA,NA,NA,"hugging, kissing, chatting to, living with",1
"55b0ecccfdf99b2116e4123f","i8nnvkjsd5","Affordance Norms_Prolific",1,27,"2023-07-21T18:44:42+00:00",18.84011387825,20,"updated stim.csv","Version20.csv","Version 20","List 20","shamrock",NA,572,5.545454545,795,0.224312152,573,"BOI","-","-","Please name all of the ways you could use this object. Keep in mind that one object can have many uses. Separate your responses with a comma.",NA,"y",17820,NA,NA,4144,15294,NA,NA,NA,"looking at, admiring",1
"55b0ecccfdf99b2116e4123f","i8nnvkjsd5","Affordance Norms_Prolific",1,28,"2023-07-21T18:45:11+00:00",29.160928010941,20,"updated stim.csv","Version20.csv","Version 20","List 20","politician",NA,591,5.041666667,2186,0.950545873,592,"BOI","-","-","Please name all of the ways you could use this object. Keep in mind that one object can have many uses. Separate your responses with a comma.",NA,"y",28282,NA,NA,5734,26764,NA,NA,NA,"representing people, making changes, debating, working",1
"55b0ecccfdf99b2116e4123f","i8nnvkjsd5","Affordance Norms_Prolific",1,29,"2023-07-21T18:45:26+00:00",15.073230028152,20,"updated stim.csv","Version20.csv","Version 20","List 20","programmer",NA,571,5.2,1000,0.795806976,572,"BOI","-","-","Please name all of the ways you could use this object. Keep in mind that one object can have many uses. Separate your responses with a comma.",NA,"y",13975,NA,NA,4169,12877,NA,NA,NA,"writing code, testing, designing",1
"55b0ecccfdf99b2116e4123f","i8nnvkjsd5","Affordance Norms_Prolific",1,30,"2023-07-21T18:45:45+00:00",18.843145132065,20,"updated stim.csv","Version20.csv","Version 20","List 20","footboard",NA,585,4.833333333,679,0.422256989,586,"BOI","-","-","Please name all of the ways you could use this object. Keep in mind that one object can have many uses. Separate your responses with a comma.",NA,"y",17770,NA,NA,5409,14983,NA,NA,NA,"putting feet on, holding up structure",1
"55b0ecccfdf99b2116e4123f","i8nnvkjsd5","Affordance Norms_Prolific",1,31,"2023-07-21T18:45:58+00:00",13.208906888962,20,"updated stim.csv","Version20.csv","Version 20","List 20","enamel",NA,581,5,2673,0.209563183,582,"BOI","-","-","Please name all of the ways you could use this object. Keep in mind that one object can have many uses. Separate your responses with a comma.",NA,"y",12200,NA,NA,2459,11099,NA,NA,NA,"protects teeth, strengthens",1
"55b0ecccfdf99b2116e4123f","i8nnvkjsd5","Affordance Norms_Prolific",1,32,"2023-07-21T18:46:17+00:00",18.434615135193,20,"updated stim.csv","Version20.csv","Version 20","List 20","newsagent",NA,589,6.173913043,315,0.727607181,590,"BOI","-","-","Please name all of the ways you could use this object. Keep in mind that one object can have many uses. Separate your responses with a comma.",NA,"y",17311,NA,NA,5796,16010,NA,NA,NA,"buy things from, sell news",1
"55b0ecccfdf99b2116e4123f","i8nnvkjsd5","Affordance Norms_Prolific",1,33,"2023-07-21T18:46:41+00:00",24.584342002869,20,"updated stim.csv","Version20.csv","Version 20","List 20","alfalfa",NA,595,4.384615385,1753,0.636652588,596,"BOI","-","-","Please name all of the ways you could use this object. Keep in mind that one object can have many uses. Separate your responses with a comma.",NA,"y",23532,NA,NA,14421,20960,NA,NA,NA,"eating, growing, feeding",0.875
"55b0ecccfdf99b2116e4123f","i8nnvkjsd5","Affordance Norms_Prolific",1,34,"2023-07-21T18:47:13+00:00",31.535168886185,20,"updated stim.csv","Version20.csv","Version 20","List 20","viola",NA,576,5.347826087,2018,0.660986177,577,"BOI","-","-","Please name all of the ways you could use this object. Keep in mind that one object can have many uses. Separate your responses with a comma.",NA,"y",30503,NA,NA,15744,28458,NA,NA,NA,"playing, tuning, entertaining",0.887
"55b0ecccfdf99b2116e4123f","i8nnvkjsd5","Affordance Norms_Prolific",1,35,"2023-07-21T18:47:21+00:00",7.8823180198669,20,"updated stim.csv","Version20.csv","Version 20","List 20","sarong",NA,594,5.08,2421,0.292298633,595,"BOI","-","-","Please name all of the ways you could use this object. Keep in mind that one object can have many uses. Separate your responses with a comma.",NA,"y",6902,NA,NA,1628,5811,NA,NA,NA,"wearing, covering",1
"55b0ecccfdf99b2116e4123f","i8nnvkjsd5","Affordance Norms_Prolific",1,36,"2023-07-21T18:47:39+00:00",18.222007036209,20,"updated stim.csv","Version20.csv","Version 20","List 20","strongbox",NA,574,5.625,589,0.771924307,575,"BOI","-","-","Please name all of the ways you could use this object. Keep in mind that one object can have many uses. Separate your responses with a comma.",NA,"y",17194,NA,NA,5897,15100,NA,NA,NA,"storing, carrying",1
"55b0ecccfdf99b2116e4123f","i8nnvkjsd5","Affordance Norms_Prolific",1,37,"2023-07-21T18:47:58+00:00",18.958450078964,20,"updated stim.csv","Version20.csv","Version 20","List 20","racket",NA,592,5.833333333,2394,0.383818306,593,"BOI","-","-","Please name all of the ways you could use this object. Keep in mind that one object can have many uses. Separate your responses with a comma.",NA,"y",17942,NA,NA,2107,15606,NA,NA,NA,"playing, swinging, holding",1
"55b0ecccfdf99b2116e4123f","i8nnvkjsd5","Affordance Norms_Prolific",1,38,"2023-07-21T18:48:15+00:00",16.890954971313,20,"updated stim.csv","Version20.csv","Version 20","List 20","capes",NA,578,5.4,1783,0.135347184,579,"BOI","-","-","Please name all of the ways you could use this object. Keep in mind that one object can have many uses. Separate your responses with a comma.",NA,"y",15854,NA,NA,1699,14689,NA,NA,NA,"wearing, keeping warm",1
"55b0ecccfdf99b2116e4123f","i8nnvkjsd5","Affordance Norms_Prolific",1,39,"2023-07-21T18:48:36+00:00",20.992968797684,20,"updated stim.csv","Version20.csv","Version 20","List 20","receptionist",NA,593,5.72,987,0.915415576,594,"BOI","-","-","Please name all of the ways you could use this object. Keep in mind that one object can have many uses. Separate your responses with a comma.",NA,"y",20093,NA,NA,1821,18654,NA,NA,NA,"taking phone calls, making notes, organising",1
"55b0ecccfdf99b2116e4123f","i8nnvkjsd5","Affordance Norms_Prolific",1,40,"2023-07-21T18:48:53+00:00",17.103353023529,20,"updated stim.csv","Version20.csv","Version 20","List 20","costumer",NA,580,4.583333333,1360,0.834414594,581,"BOI","-","-","Please name all of the ways you could use this object. Keep in mind that one object can have many uses. Separate your responses with a comma.",NA,"y",16039,NA,NA,4861,14693,NA,NA,NA,"makimg costumes, fitting costumes",1
"57c957626736cf0001b31f39","svt8bk3gt3","Affordance Norms_Prolific",1,11,"2023-07-21T19:19:31+00:00",34.916140079498,13,"updated stim.csv","Version13.csv","Version 13","List 13","quarterback",NA,388,5,639,0.154773771,389,"BOI","-","-","Please name all of the ways you could use this object. Keep in mind that one object can have many uses. Separate your responses with a comma.",NA,"y",34137,NA,NA,5238,32562,NA,NA,NA,"watch, get fit",1
"57c957626736cf0001b31f39","svt8bk3gt3","Affordance Norms_Prolific",1,12,"2023-07-21T19:20:37+00:00",65.402894973755,13,"updated stim.csv","Version13.csv","Version 13","List 13","sackcloth",NA,390,5.64,389,0.578190345,391,"BOI","-","-","Please name all of the ways you could use this object. Keep in mind that one object can have many uses. Separate your responses with a comma.",NA,"y",64581,NA,NA,38779,63683,NA,NA,NA,"wear, dress",1
"57c957626736cf0001b31f39","svt8bk3gt3","Affordance Norms_Prolific",1,13,"2023-07-21T19:21:04+00:00",27.130500078201,13,"updated stim.csv","Version13.csv","Version 13","List 13","drink",NA,377,5,1388,0.230792378,378,"BOI","-","-","Please name all of the ways you could use this object. Keep in mind that one object can have many uses. Separate your responses with a comma.",NA,"y",25525,NA,NA,7582,15619,NA,NA,NA,"swallow, taste, ",1
"57c957626736cf0001b31f39","svt8bk3gt3","Affordance Norms_Prolific",1,14,"2023-07-21T19:21:57+00:00",52.83034491539,13,"updated stim.csv","Version13.csv","Version 13","List 13","breastplate",NA,375,5.416666667,227,0.420605991,376,"BOI","-","-","Please name all of the ways you could use this object. Keep in mind that one object can have many uses. Separate your responses with a comma.",NA,"y",52068,NA,NA,27042,34944,NA,NA,NA,"riding, protection",1
"57c957626736cf0001b31f39","svt8bk3gt3","Affordance Norms_Prolific",1,15,"2023-07-21T19:22:31+00:00",33.967521905899,13,"updated stim.csv","Version13.csv","Version 13","List 13","sister",NA,365,6.043478261,1429,0.453664291,366,"BOI","-","-","Please name all of the ways you could use this object. Keep in mind that one object can have many uses. Separate your responses with a comma.",NA,"y",33208,NA,NA,9000,31449,NA,NA,NA,"chat, love, entrust",1
"57c957626736cf0001b31f39","svt8bk3gt3","Affordance Norms_Prolific",1,16,"2023-07-21T19:23:12+00:00",41.017009019852,13,"updated stim.csv","Version13.csv","Version 13","List 13","wheelhouse",NA,369,4.92,2736,0.060076604,370,"BOI","-","-","Please name all of the ways you could use this object. Keep in mind that one object can have many uses. Separate your responses with a comma.",NA,"y",40238,NA,NA,30303,39108,NA,NA,NA,"shelter, bridge",1
"57c957626736cf0001b31f39","svt8bk3gt3","Affordance Norms_Prolific",1,17,"2023-07-21T19:23:33+00:00",21.775872945786,13,"updated stim.csv","Version13.csv","Version 13","List 13","leather",NA,383,4.666666667,685,0.801608849,384,"BOI","-","-","Please name all of the ways you could use this object. Keep in mind that one object can have many uses. Separate your responses with a comma.",NA,"y",20984,NA,NA,2957,19818,NA,NA,NA,"sofa, shoes, belts, bags",1
"57c957626736cf0001b31f39","svt8bk3gt3","Affordance Norms_Prolific",1,18,"2023-07-21T19:23:51+00:00",17.255773067474,13,"updated stim.csv","Version13.csv","Version 13","List 13","barley",NA,372,5.666666667,1523,0.514690223,373,"BOI","-","-","Please name all of the ways you could use this object. Keep in mind that one object can have many uses. Separate your responses with a comma.",NA,"y",16463,NA,NA,4263,14982,NA,NA,NA,"cooking, tasting, drink",1
"57c957626736cf0001b31f39","svt8bk3gt3","Affordance Norms_Prolific",1,19,"2023-07-21T19:24:07+00:00",16.333266973495,13,"updated stim.csv","Version13.csv","Version 13","List 13","cardigan",NA,376,5.083333333,2670,0.365065355,377,"BOI","-","-","Please name all of the ways you could use this object. Keep in mind that one object can have many uses. Separate your responses with a comma.",NA,"y",15579,NA,NA,2603,10540,NA,NA,NA,"warmth, comfort",1
"57c957626736cf0001b31f39","svt8bk3gt3","Affordance Norms_Prolific",1,20,"2023-07-21T19:25:40+00:00",92.809395074844,13,"updated stim.csv","Version13.csv","Version 13","List 13","midget",NA,385,6.136363636,2135,0.130502969,386,"BOI","-","-","Please name all of the ways you could use this object. Keep in mind that one object can have many uses. Separate your responses with a comma.",NA,"y",92033,NA,NA,46329,88235,NA,NA,NA,"tv, showbusiness, friendship",1
"57c957626736cf0001b31f39","svt8bk3gt3","Affordance Norms_Prolific",1,21,"2023-07-21T19:26:23+00:00",43.307372093201,13,"updated stim.csv","Version13.csv","Version 13","List 13","lamplighter",NA,382,4.434782609,1119,0.669574034,383,"BOI","-","-","Please name all of the ways you could use this object. Keep in mind that one object can have many uses. Separate your responses with a comma.",NA,"y",42540,NA,NA,26736,41530,NA,NA,NA,"lampposts, lighting",1
"57c957626736cf0001b31f39","svt8bk3gt3","Affordance Norms_Prolific",1,22,"2023-07-21T19:27:00+00:00",36.70800280571,13,"updated stim.csv","Version13.csv","Version 13","List 13","thimble",NA,367,4.44,2845,0.79635902,368,"BOI","-","-","Please name all of the ways you could use this object. Keep in mind that one object can have many uses. Separate your responses with a comma.",NA,"y",35932,NA,NA,23078,34233,NA,NA,NA,"sewing, protection",1
"57c957626736cf0001b31f39","svt8bk3gt3","Affordance Norms_Prolific",1,23,"2023-07-21T19:27:20+00:00",19.853803157806,13,"updated stim.csv","Version13.csv","Version 13","List 13","gangster",NA,379,5.28,660,0.699170843,380,"BOI","-","-","Please name all of the ways you could use this object. Keep in mind that one object can have many uses. Separate your responses with a comma.",NA,"y",19094,NA,NA,4100,18063,NA,NA,NA,"fights, wars, gangs",1
"57c957626736cf0001b31f39","svt8bk3gt3","Affordance Norms_Prolific",1,24,"2023-07-21T19:28:40+00:00",80.626909017563,13,"updated stim.csv","Version13.csv","Version 13","List 13","bloke",NA,374,4.92,1857,0.743916508,375,"BOI","-","-","Please name all of the ways you could use this object. Keep in mind that one object can have many uses. Separate your responses with a comma.",NA,"y",79848,NA,NA,50249,78621,NA,NA,NA,"friend, husband, father, brother",1
"57c957626736cf0001b31f39","svt8bk3gt3","Affordance Norms_Prolific",1,25,"2023-07-21T19:29:01+00:00",20.786553859711,13,"updated stim.csv","Version13.csv","Version 13","List 13","meadow",NA,384,5.791666667,918,0.580572305,385,"BOI","-","-","Please name all of the ways you could use this object. Keep in mind that one object can have many uses. Separate your responses with a comma.",NA,"y",20001,NA,NA,2867,18357,NA,NA,NA,"relaxation, flowers, grass, cows",1
"57c957626736cf0001b31f39","svt8bk3gt3","Affordance Norms_Prolific",1,26,"2023-07-21T19:29:24+00:00",23.33643913269,13,"updated stim.csv","Version13.csv","Version 13","List 13","employer",NA,378,6,2853,0.512853941,379,"BOI","-","-","Please name all of the ways you could use this object. Keep in mind that one object can have many uses. Separate your responses with a comma.",NA,"y",22505,NA,NA,2942,21375,NA,NA,NA,"job, wages, security",1
"57c957626736cf0001b31f39","svt8bk3gt3","Affordance Norms_Prolific",1,27,"2023-07-21T19:30:10+00:00",45.093412876129,13,"updated stim.csv","Version13.csv","Version 13","List 13","windsock",NA,370,5.16,53,0.855006191,371,"BOI","-","-","Please name all of the ways you could use this object. Keep in mind that one object can have many uses. Separate your responses with a comma.",NA,"y",44348,NA,NA,19663,33011,NA,NA,NA,"wind speed, direction",1
"57c957626736cf0001b31f39","svt8bk3gt3","Affordance Norms_Prolific",1,28,"2023-07-21T19:30:11+00:00",1.7667639255524,13,"updated stim.csv","Version13.csv","Version 13","List 13","root",NA,389,4.346153846,2494,0.26351966,390,"BOI","-","-","Please name all of the ways you could use this object. Keep in mind that one object can have many uses. Separate your responses with a comma.",NA,"y",1326,NA,NA,-1,-1,NA,NA,NA,"",1
"57c957626736cf0001b31f39","svt8bk3gt3","Affordance Norms_Prolific",1,29,"2023-07-21T19:30:54+00:00",42.776531219482,13,"updated stim.csv","Version13.csv","Version 13","List 13","roosters",NA,363,4.444444444,1833,0.689826492,364,"BOI","-","-","Please name all of the ways you could use this object. Keep in mind that one object can have many uses. Separate your responses with a comma.",NA,"y",42027,NA,NA,29175,40405,NA,NA,NA,"protection, alarm, eggs",1
"57c957626736cf0001b31f39","svt8bk3gt3","Affordance Norms_Prolific",1,30,"2023-07-21T19:31:30+00:00",36.018900871277,13,"updated stim.csv","Version13.csv","Version 13","List 13","ham",NA,381,5.869565217,1646,0.96657729,382,"BOI","-","-","Please name all of the ways you could use this object. Keep in mind that one object can have many uses. Separate your responses with a comma.",NA,"y",35264,NA,NA,3288,34260,NA,NA,NA,"food, sandwich",1
"57c957626736cf0001b31f39","svt8bk3gt3","Affordance Norms_Prolific",1,31,"2023-07-21T19:31:43+00:00",13.044862985611,13,"updated stim.csv","Version13.csv","Version 13","List 13","toast",NA,368,5.291666667,38,0.945444984,369,"BOI","-","-","Please name all of the ways you could use this object. Keep in mind that one object can have many uses. Separate your responses with a comma.",NA,"y",12293,NA,NA,2927,9809,NA,NA,NA,"food, buttered",1
"57c957626736cf0001b31f39","svt8bk3gt3","Affordance Norms_Prolific",1,32,"2023-07-21T19:32:31+00:00",48.113909006119,13,"updated stim.csv","Version13.csv","Version 13","List 13","plaque",NA,361,4.52,2002,0.997042581,362,"BOI","-","-","Please name all of the ways you could use this object. Keep in mind that one object can have many uses. Separate your responses with a comma.",NA,"y",47353,NA,NA,33867,41684,NA,NA,NA,"bacteria, dirt",1
"57c957626736cf0001b31f39","svt8bk3gt3","Affordance Norms_Prolific",1,33,"2023-07-21T19:32:46+00:00",15.187474012375,13,"updated stim.csv","Version13.csv","Version 13","List 13","mud",NA,386,5.041666667,1938,0.613609609,387,"BOI","-","-","Please name all of the ways you could use this object. Keep in mind that one object can have many uses. Separate your responses with a comma.",NA,"y",14375,NA,NA,3487,12475,NA,NA,NA,"bath, slide",1
"57c957626736cf0001b31f39","svt8bk3gt3","Affordance Norms_Prolific",1,34,"2023-07-21T19:33:14+00:00",27.808928012848,13,"updated stim.csv","Version13.csv","Version 13","List 13","blackheads",NA,373,4.826086957,1405,0.939151548,374,"BOI","-","-","Please name all of the ways you could use this object. Keep in mind that one object can have many uses. Separate your responses with a comma.",NA,"y",26985,NA,NA,16886,21553,NA,NA,NA,"dirt, ",1
"57c957626736cf0001b31f39","svt8bk3gt3","Affordance Norms_Prolific",1,35,"2023-07-21T19:33:42+00:00",27.797610998154,13,"updated stim.csv","Version13.csv","Version 13","List 13","parcel",NA,387,4.869565217,2462,0.762225704,388,"BOI","-","-","Please name all of the ways you could use this object. Keep in mind that one object can have many uses. Separate your responses with a comma.",NA,"y",26992,NA,NA,3791,25971,NA,NA,NA,"present, gifts, deliveries",1
"57c957626736cf0001b31f39","svt8bk3gt3","Affordance Norms_Prolific",1,36,"2023-07-21T19:33:57+00:00",15.108714103699,13,"updated stim.csv","Version13.csv","Version 13","List 13","sax",NA,364,5.375,2879,0.532098663,365,"BOI","-","-","Please name all of the ways you could use this object. Keep in mind that one object can have many uses. Separate your responses with a comma.",NA,"y",14362,NA,NA,3101,13190,NA,NA,NA,"play, band, music",1
"57c957626736cf0001b31f39","svt8bk3gt3","Affordance Norms_Prolific",1,37,"2023-07-21T19:34:28+00:00",30.441290855408,13,"updated stim.csv","Version13.csv","Version 13","List 13","wrestler",NA,371,4.791666667,2777,0.513796891,372,"BOI","-","-","Please name all of the ways you could use this object. Keep in mind that one object can have many uses. Separate your responses with a comma.",NA,"y",29668,NA,NA,5520,11705,NA,NA,NA,"watch, fun, ",1
"57c957626736cf0001b31f39","svt8bk3gt3","Affordance Norms_Prolific",1,38,"2023-07-21T19:35:05+00:00",37.109719991684,13,"updated stim.csv","Version13.csv","Version 13","List 13","riverboat",NA,362,5,2861,0.61166655,363,"BOI","-","-","Please name all of the ways you could use this object. Keep in mind that one object can have many uses. Separate your responses with a comma.",NA,"y",36328,NA,NA,7009,35235,NA,NA,NA,"boating, enjoyment, cruise",1
"57c957626736cf0001b31f39","svt8bk3gt3","Affordance Norms_Prolific",1,39,"2023-07-21T19:35:34+00:00",29.773709058762,13,"updated stim.csv","Version13.csv","Version 13","List 13","girl",NA,380,5.703703704,2445,0.661757319,381,"BOI","-","-","Please name all of the ways you could use this object. Keep in mind that one object can have many uses. Separate your responses with a comma.",NA,"y",28939,NA,NA,6591,27942,NA,NA,NA,"flower, daughter, dress",1
"57c957626736cf0001b31f39","svt8bk3gt3","Affordance Norms_Prolific",1,40,"2023-07-21T19:35:48+00:00",13.613089084625,13,"updated stim.csv","Version13.csv","Version 13","List 13","strawberry",NA,366,4.391304348,14,0.936846179,367,"BOI","-","-","Please name all of the ways you could use this object. Keep in mind that one object can have many uses. Separate your responses with a comma.",NA,"y",12809,NA,NA,2859,10395,NA,NA,NA,"eat, jam,trifle",1
"587a3b7bd6df70000187510b","jetlcqq3nl","Affordance Norms_Prolific",1,11,"2023-07-21T19:45:47+00:00",17.369230985641,16,"updated stim.csv","Version16.csv","Version 16","List 16","booze",NA,464,5.826086957,1095,0.838010994,465,"BOI","-","-","Please name all of the ways you could use this object. Keep in mind that one object can have many uses. Separate your responses with a comma.",NA,"y",16793,NA,NA,2100,11398,NA,NA,NA,"drink, distill, shot, pour, cook",1
"587a3b7bd6df70000187510b","jetlcqq3nl","Affordance Norms_Prolific",1,12,"2023-07-21T19:45:57+00:00",10.285947084427,16,"updated stim.csv","Version16.csv","Version 16","List 16","fingernail",NA,452,6.434782609,2437,0.273714235,453,"BOI","-","-","Please name all of the ways you could use this object. Keep in mind that one object can have many uses. Separate your responses with a comma.",NA,"y",9699,NA,NA,2071,9260,NA,NA,NA,"pick, paint, scratch, dig",1
"587a3b7bd6df70000187510b","jetlcqq3nl","Affordance Norms_Prolific",1,13,"2023-07-21T19:46:06+00:00",8.9754040241241,16,"updated stim.csv","Version16.csv","Version 16","List 16","leotard",NA,470,4.72,885,0.908131854,471,"BOI","-","-","Please name all of the ways you could use this object. Keep in mind that one object can have many uses. Separate your responses with a comma.",NA,"y",7970,NA,NA,1774,7273,NA,NA,NA,"wear, prance, dance, vault",1
"587a3b7bd6df70000187510b","jetlcqq3nl","Affordance Norms_Prolific",1,14,"2023-07-21T19:46:18+00:00",11.186980962753,16,"updated stim.csv","Version16.csv","Version 16","List 16","equipment",NA,451,4.833333333,1686,0.045579899,452,"BOI","-","-","Please name all of the ways you could use this object. Keep in mind that one object can have many uses. Separate your responses with a comma.",NA,"y",10581,NA,NA,1651,7091,NA,NA,NA,"use, buy, store",1
"587a3b7bd6df70000187510b","jetlcqq3nl","Affordance Norms_Prolific",1,15,"2023-07-21T19:46:29+00:00",10.960569858551,16,"updated stim.csv","Version16.csv","Version 16","List 16","ukulele",NA,460,5.208333333,2131,0.395585786,461,"BOI","-","-","Please name all of the ways you could use this object. Keep in mind that one object can have many uses. Separate your responses with a comma.",NA,"y",10424,NA,NA,2143,9756,NA,NA,NA,"play, string, smash, sing",1
"587a3b7bd6df70000187510b","jetlcqq3nl","Affordance Norms_Prolific",1,16,"2023-07-21T19:46:43+00:00",14.463054180145,16,"updated stim.csv","Version16.csv","Version 16","List 16","horse",NA,455,5.125,2246,0.101934862,456,"BOI","-","-","Please name all of the ways you could use this object. Keep in mind that one object can have many uses. Separate your responses with a comma.",NA,"y",13908,NA,NA,1111,13366,NA,NA,NA,"ride, groom, eat, cook, slap",1
"587a3b7bd6df70000187510b","jetlcqq3nl","Affordance Norms_Prolific",1,17,"2023-07-21T19:47:00+00:00",16.98236489296,16,"updated stim.csv","Version16.csv","Version 16","List 16","props",NA,457,4.464285714,501,0.535152959,458,"BOI","-","-","Please name all of the ways you could use this object. Keep in mind that one object can have many uses. Separate your responses with a comma.",NA,"y",16405,NA,NA,3449,14925,NA,NA,NA,"show, use, story",1
"587a3b7bd6df70000187510b","jetlcqq3nl","Affordance Norms_Prolific",1,18,"2023-07-21T19:47:11+00:00",10.85470199585,16,"updated stim.csv","Version16.csv","Version 16","List 16","cheesecloth",NA,465,5.035714286,1452,0.957672416,466,"BOI","-","-","Please name all of the ways you could use this object. Keep in mind that one object can have many uses. Separate your responses with a comma.",NA,"y",10308,NA,NA,1425,9894,NA,NA,NA,"cover, strain, cook, enhance, present",1
"587a3b7bd6df70000187510b","jetlcqq3nl","Affordance Norms_Prolific",1,19,"2023-07-21T19:47:20+00:00",9.0680940151215,16,"updated stim.csv","Version16.csv","Version 16","List 16","pelvis",NA,477,5.956521739,1378,0.274659644,478,"BOI","-","-","Please name all of the ways you could use this object. Keep in mind that one object can have many uses. Separate your responses with a comma.",NA,"y",8499,NA,NA,2151,6772,NA,NA,NA,"sit, scratch",1
"587a3b7bd6df70000187510b","jetlcqq3nl","Affordance Norms_Prolific",1,20,"2023-07-21T19:47:29+00:00",9.5441279411316,16,"updated stim.csv","Version16.csv","Version 16","List 16","tinderbox",NA,458,4.875,579,0.494851678,459,"BOI","-","-","Please name all of the ways you could use this object. Keep in mind that one object can have many uses. Separate your responses with a comma.",NA,"y",8575,NA,NA,1744,6262,NA,NA,NA,"light, kindle",1
"587a3b7bd6df70000187510b","jetlcqq3nl","Affordance Norms_Prolific",1,21,"2023-07-21T19:47:41+00:00",11.438861131668,16,"updated stim.csv","Version16.csv","Version 16","List 16","pimento",NA,480,4.826086957,2208,0.272774302,481,"BOI","-","-","Please name all of the ways you could use this object. Keep in mind that one object can have many uses. Separate your responses with a comma.",NA,"y",10869,NA,NA,4588,10534,NA,NA,NA,"cook, season, sniff, rub",1
"587a3b7bd6df70000187510b","jetlcqq3nl","Affordance Norms_Prolific",1,22,"2023-07-21T19:47:53+00:00",11.828138828278,16,"updated stim.csv","Version16.csv","Version 16","List 16","bedclothes",NA,462,5.875,1517,0.282871373,463,"BOI","-","-","Please name all of the ways you could use this object. Keep in mind that one object can have many uses. Separate your responses with a comma.",NA,"y",10214,NA,NA,3003,9581,NA,NA,NA,"wash, sleep, dry, hang",1
"587a3b7bd6df70000187510b","jetlcqq3nl","Affordance Norms_Prolific",1,23,"2023-07-21T19:48:06+00:00",13.393313169479,16,"updated stim.csv","Version16.csv","Version 16","List 16","paperweight",NA,475,5.32,2020,0.760021962,476,"BOI","-","-","Please name all of the ways you could use this object. Keep in mind that one object can have many uses. Separate your responses with a comma.",NA,"y",12849,NA,NA,2938,12319,NA,NA,NA,"throw, hold, weigh down",1
"587a3b7bd6df70000187510b","jetlcqq3nl","Affordance Norms_Prolific",1,24,"2023-07-21T19:48:22+00:00",16.203378915787,16,"updated stim.csv","Version16.csv","Version 16","List 16","meal",NA,471,4.916666667,174,0.190081034,472,"BOI","-","-","Please name all of the ways you could use this object. Keep in mind that one object can have many uses. Separate your responses with a comma.",NA,"y",15627,NA,NA,942,13196,NA,NA,NA,"eat, prepare, cook, consume, devour, purchase, enjoy",1
"587a3b7bd6df70000187510b","jetlcqq3nl","Affordance Norms_Prolific",1,25,"2023-07-21T19:48:29+00:00",6.2825701236725,16,"updated stim.csv","Version16.csv","Version 16","List 16","pike",NA,479,4.904761905,2023,0.204056132,480,"BOI","-","-","Please name all of the ways you could use this object. Keep in mind that one object can have many uses. Separate your responses with a comma.",NA,"y",5743,NA,NA,4535,5289,NA,NA,NA,"coffee",1
"587a3b7bd6df70000187510b","jetlcqq3nl","Affordance Norms_Prolific",1,26,"2023-07-21T19:48:39+00:00",10.375750780106,16,"updated stim.csv","Version16.csv","Version 16","List 16","tissue",NA,459,5.434782609,1781,0.11652109,460,"BOI","-","-","Please name all of the ways you could use this object. Keep in mind that one object can have many uses. Separate your responses with a comma.",NA,"y",9840,NA,NA,1683,9526,NA,NA,NA,"blow, wipe, blotch, cry",1
"587a3b7bd6df70000187510b","jetlcqq3nl","Affordance Norms_Prolific",1,27,"2023-07-21T19:48:50+00:00",11.377082109451,16,"updated stim.csv","Version16.csv","Version 16","List 16","flyswatter",NA,453,4.869565217,2242,0.892913517,454,"BOI","-","-","Please name all of the ways you could use this object. Keep in mind that one object can have many uses. Separate your responses with a comma.",NA,"y",10843,NA,NA,2801,9749,NA,NA,NA,"swat, kill, destroy",1
"587a3b7bd6df70000187510b","jetlcqq3nl","Affordance Norms_Prolific",1,28,"2023-07-21T19:49:00+00:00",9.2176079750061,16,"updated stim.csv","Version16.csv","Version 16","List 16","eyewash",NA,468,5.913043478,585,0.903342053,469,"BOI","-","-","Please name all of the ways you could use this object. Keep in mind that one object can have many uses. Separate your responses with a comma.",NA,"y",8646,NA,NA,1556,8511,NA,NA,NA,"clean, disinfect, sanitise",1
"587a3b7bd6df70000187510b","jetlcqq3nl","Affordance Norms_Prolific",1,29,"2023-07-21T19:49:08+00:00",8.0599429607391,16,"updated stim.csv","Version16.csv","Version 16","List 16","chronograph",NA,466,4.321428571,65,0.613222279,467,"BOI","-","-","Please name all of the ways you could use this object. Keep in mind that one object can have many uses. Separate your responses with a comma.",NA,"y",7510,NA,NA,2102,7133,NA,NA,NA,"measure, develop, plan",1
"587a3b7bd6df70000187510b","jetlcqq3nl","Affordance Norms_Prolific",1,30,"2023-07-21T19:49:16+00:00",8.4226360321045,16,"updated stim.csv","Version16.csv","Version 16","List 16","derriere",NA,467,5.814814815,1766,0.592286248,468,"BOI","-","-","Please name all of the ways you could use this object. Keep in mind that one object can have many uses. Separate your responses with a comma.",NA,"y",7887,NA,NA,7407,7694,NA,NA,NA,"plan",1
"587a3b7bd6df70000187510b","jetlcqq3nl","Affordance Norms_Prolific",1,31,"2023-07-21T19:49:30+00:00",14.008531093597,16,"updated stim.csv","Version16.csv","Version 16","List 16","balloonist",NA,461,5.708333333,2463,0.284019134,462,"BOI","-","-","Please name all of the ways you could use this object. Keep in mind that one object can have many uses. Separate your responses with a comma.",NA,"y",13426,NA,NA,1967,13165,NA,NA,NA,"create, tie, illusion",1
"587a3b7bd6df70000187510b","jetlcqq3nl","Affordance Norms_Prolific",1,32,"2023-07-21T19:49:39+00:00",9.1604118347168,16,"updated stim.csv","Version16.csv","Version 16","List 16","ophthalmologist",NA,473,4.5,2548,0.965520337,474,"BOI","-","-","Please name all of the ways you could use this object. Keep in mind that one object can have many uses. Separate your responses with a comma.",NA,"y",8610,NA,NA,4606,7291,NA,NA,NA,"advise, assess",1
"587a3b7bd6df70000187510b","jetlcqq3nl","Affordance Norms_Prolific",1,33,"2023-07-21T19:49:59+00:00",19.747591018677,16,"updated stim.csv","Version16.csv","Version 16","List 16","orgy",NA,474,5,1729,0.300420837,475,"BOI","-","-","Please name all of the ways you could use this object. Keep in mind that one object can have many uses. Separate your responses with a comma.",NA,"y",19199,NA,NA,2697,18537,NA,NA,NA,"sex, enjoy, detest, eat",1
"587a3b7bd6df70000187510b","jetlcqq3nl","Affordance Norms_Prolific",1,34,"2023-07-21T19:50:12+00:00",13.460334062576,16,"updated stim.csv","Version16.csv","Version 16","List 16","penthouse",NA,478,4.44,1848,0.023317079,479,"BOI","-","-","Please name all of the ways you could use this object. Keep in mind that one object can have many uses. Separate your responses with a comma.",NA,"y",12323,NA,NA,4243,11567,NA,NA,NA,"home, apartment, luxury",1
"587a3b7bd6df70000187510b","jetlcqq3nl","Affordance Norms_Prolific",1,35,"2023-07-21T19:50:21+00:00",8.3986580371857,16,"updated stim.csv","Version16.csv","Version 16","List 16","grill",NA,454,5.76,2680,0.793867773,455,"BOI","-","-","Please name all of the ways you could use this object. Keep in mind that one object can have many uses. Separate your responses with a comma.",NA,"y",7750,NA,NA,1359,6009,NA,NA,NA,"cook, clean, steam, char",1
"587a3b7bd6df70000187510b","jetlcqq3nl","Affordance Norms_Prolific",1,36,"2023-07-21T19:50:29+00:00",7.6617770195007,16,"updated stim.csv","Version16.csv","Version 16","List 16","handcart",NA,469,5.12,600,0.026191584,470,"BOI","-","-","Please name all of the ways you could use this object. Keep in mind that one object can have many uses. Separate your responses with a comma.",NA,"y",7123,NA,NA,2490,6319,NA,NA,NA,"carry, push, store",1
"587a3b7bd6df70000187510b","jetlcqq3nl","Affordance Norms_Prolific",1,37,"2023-07-21T19:50:38+00:00",9.6203770637512,16,"updated stim.csv","Version16.csv","Version 16","List 16","lunchroom",NA,456,4.47826087,2274,0.507361683,457,"BOI","-","-","Please name all of the ways you could use this object. Keep in mind that one object can have many uses. Separate your responses with a comma.",NA,"y",9086,NA,NA,2833,8655,NA,NA,NA,"eat, consume, cook, chat",1
"587a3b7bd6df70000187510b","jetlcqq3nl","Affordance Norms_Prolific",1,38,"2023-07-21T19:50:47+00:00",8.3964328765869,16,"updated stim.csv","Version16.csv","Version 16","List 16","bodyguard",NA,463,5.52173913,1521,0.029003979,464,"BOI","-","-","Please name all of the ways you could use this object. Keep in mind that one object can have many uses. Separate your responses with a comma.",NA,"y",7810,NA,NA,3351,7452,NA,NA,NA,"protect, safety",1
"587a3b7bd6df70000187510b","jetlcqq3nl","Affordance Norms_Prolific",1,39,"2023-07-21T19:50:53+00:00",6.8534209728241,16,"updated stim.csv","Version16.csv","Version 16","List 16","moustache",NA,472,4.5,1871,0.999105159,473,"BOI","-","-","Please name all of the ways you could use this object. Keep in mind that one object can have many uses. Separate your responses with a comma.",NA,"y",6306,NA,NA,2999,5702,NA,NA,NA,"groom and trim",1
"587a3b7bd6df70000187510b","jetlcqq3nl","Affordance Norms_Prolific",1,40,"2023-07-21T19:51:00+00:00",6.9375720024109,16,"updated stim.csv","Version16.csv","Version 16","List 16","parsley",NA,476,4.6,472,0.992638044,477,"BOI","-","-","Please name all of the ways you could use this object. Keep in mind that one object can have many uses. Separate your responses with a comma.",NA,"y",6405,NA,NA,2176,5896,NA,NA,NA,"cook, season, taste",1
"58df90cecc6d9800018c5d58","x3yhi4u3hz","Affordance Norms_Prolific",1,11,"2023-07-21T18:39:19+00:00",37.621999979019,21,"updated stim.csv","Version21.csv","Version 21","List 21","desk",NA,627,4.913043478,1189,0.51706315,628,"BOI","-","-","Please name all of the ways you could use this object. Keep in mind that one object can have many uses. Separate your responses with a comma.",NA,"y",37213,NA,NA,5292,24362,NA,NA,NA,"computer, work, play, homework, studying, ",1
"58df90cecc6d9800018c5d58","x3yhi4u3hz","Affordance Norms_Prolific",1,12,"2023-07-21T18:39:43+00:00",24.158130884171,21,"updated stim.csv","Version21.csv","Version 21","List 21","reptile",NA,604,5.125,1058,0.312710997,605,"BOI","-","-","Please name all of the ways you could use this object. Keep in mind that one object can have many uses. Separate your responses with a comma.",NA,"y",23737,NA,NA,4683,13384,NA,NA,NA,"pet, zoo, wild",1
"58df90cecc6d9800018c5d58","x3yhi4u3hz","Affordance Norms_Prolific",1,13,"2023-07-21T18:40:39+00:00",56.542690038681,21,"updated stim.csv","Version21.csv","Version 21","List 21","wildcat",NA,613,4.565217391,2115,0.894304697,614,"BOI","-","-","Please name all of the ways you could use this object. Keep in mind that one object can have many uses. Separate your responses with a comma.",NA,"y",56120,NA,NA,2173,54802,NA,NA,NA,"zoo, wild, mascot",1
"58df90cecc6d9800018c5d58","x3yhi4u3hz","Affordance Norms_Prolific",1,14,"2023-07-21T18:41:12+00:00",32.124444007874,21,"updated stim.csv","Version21.csv","Version 21","List 21","poultry",NA,609,5.391304348,500,0.472581554,610,"BOI","-","-","Please name all of the ways you could use this object. Keep in mind that one object can have many uses. Separate your responses with a comma.",NA,"y",31706,NA,NA,2150,7947,NA,NA,NA,"food, pets, eggs, ",1
"58df90cecc6d9800018c5d58","x3yhi4u3hz","Affordance Norms_Prolific",1,15,"2023-07-21T18:41:45+00:00",33.611269950867,21,"updated stim.csv","Version21.csv","Version 21","List 21","airplane",NA,619,4.88,408,0.104956358,620,"BOI","-","-","Please name all of the ways you could use this object. Keep in mind that one object can have many uses. Separate your responses with a comma.",NA,"y",33165,NA,NA,2296,26412,NA,NA,NA,"travel, business, holiday, army, RAF, skydiving, ",1
"58df90cecc6d9800018c5d58","x3yhi4u3hz","Affordance Norms_Prolific",1,16,"2023-07-21T18:42:05+00:00",19.692280054092,21,"updated stim.csv","Version21.csv","Version 21","List 21","sideboard",NA,605,5.541666667,2436,0.966183453,606,"BOI","-","-","Please name all of the ways you could use this object. Keep in mind that one object can have many uses. Separate your responses with a comma.",NA,"y",19277,NA,NA,2540,6363,NA,NA,NA,"storage, decoration, ",1
"58df90cecc6d9800018c5d58","x3yhi4u3hz","Affordance Norms_Prolific",1,17,"2023-07-21T18:42:34+00:00",29.325241088867,21,"updated stim.csv","Version21.csv","Version 21","List 21","orchid",NA,608,4.782608696,2933,0.200273959,609,"BOI","-","-","Please name all of the ways you could use this object. Keep in mind that one object can have many uses. Separate your responses with a comma.",NA,"y",28898,NA,NA,6949,19412,NA,NA,NA,"decoration, present, grow, ",1
"58df90cecc6d9800018c5d58","x3yhi4u3hz","Affordance Norms_Prolific",1,18,"2023-07-21T18:42:58+00:00",23.415011882782,21,"updated stim.csv","Version21.csv","Version 21","List 21","balm",NA,614,5.76,196,0.555805327,615,"BOI","-","-","Please name all of the ways you could use this object. Keep in mind that one object can have many uses. Separate your responses with a comma.",NA,"y",23003,NA,NA,1447,16713,NA,NA,NA,"lip balm, moisturize, protect, embalm, ",1
"58df90cecc6d9800018c5d58","x3yhi4u3hz","Affordance Norms_Prolific",1,19,"2023-07-21T18:43:26+00:00",28.248152971268,21,"updated stim.csv","Version21.csv","Version 21","List 21","talisman",NA,615,5.333333333,2587,0.961970071,616,"BOI","-","-","Please name all of the ways you could use this object. Keep in mind that one object can have many uses. Separate your responses with a comma.",NA,"y",27821,NA,NA,14399,23240,NA,NA,NA,"present, meaning, ",0.904
"58df90cecc6d9800018c5d58","x3yhi4u3hz","Affordance Norms_Prolific",1,20,"2023-07-21T18:43:51+00:00",24.770715236664,21,"updated stim.csv","Version21.csv","Version 21","List 21","chestnut",NA,617,5.166666667,1350,0.213044893,618,"BOI","-","-","Please name all of the ways you could use this object. Keep in mind that one object can have many uses. Separate your responses with a comma.",NA,"y",24353,NA,NA,2158,23022,NA,NA,NA,"roast, eat, grow into a tree",1
"58df90cecc6d9800018c5d58","x3yhi4u3hz","Affordance Norms_Prolific",1,22,"2023-07-21T18:44:33+00:00",11.307808876038,21,"updated stim.csv","Version21.csv","Version 21","List 21","boomerang",NA,623,4.52,2532,0.748126488,624,"BOI","-","-","Please name all of the ways you could use this object. Keep in mind that one object can have many uses. Separate your responses with a comma.",NA,"y",10883,NA,NA,3658,6844,NA,NA,NA,"throw, fun, game, ",1
"58df90cecc6d9800018c5d58","x3yhi4u3hz","Affordance Norms_Prolific",1,23,"2023-07-21T18:44:50+00:00",17.213243961334,21,"updated stim.csv","Version21.csv","Version 21","List 21","tag",NA,606,4.925925926,1529,0.691592618,607,"BOI","-","-","Please name all of the ways you could use this object. Keep in mind that one object can have many uses. Separate your responses with a comma.",NA,"y",16803,NA,NA,3327,12501,NA,NA,NA,"presents, game, label",1
"58df90cecc6d9800018c5d58","x3yhi4u3hz","Affordance Norms_Prolific",1,24,"2023-07-21T18:45:07+00:00",17.005758047104,21,"updated stim.csv","Version21.csv","Version 21","List 21","democrat",NA,607,5.913043478,738,0.205029454,608,"BOI","-","-","Please name all of the ways you could use this object. Keep in mind that one object can have many uses. Separate your responses with a comma.",NA,"y",16573,NA,NA,10232,15133,NA,NA,NA,"you can use them to get into power",1
"58df90cecc6d9800018c5d58","x3yhi4u3hz","Affordance Norms_Prolific",1,25,"2023-07-21T18:45:26+00:00",18.698238134384,21,"updated stim.csv","Version21.csv","Version 21","List 21","nun",NA,603,5.32,34,0.622457557,604,"BOI","-","-","Please name all of the ways you could use this object. Keep in mind that one object can have many uses. Separate your responses with a comma.",NA,"y",18282,NA,NA,8562,16736,NA,NA,NA,"advice, talk to, serve god",1
"58df90cecc6d9800018c5d58","x3yhi4u3hz","Affordance Norms_Prolific",1,26,"2023-07-21T18:45:42+00:00",15.831017971039,21,"updated stim.csv","Version21.csv","Version 21","List 21","cannonball",NA,625,5.037037037,2901,0.496721159,626,"BOI","-","-","Please name all of the ways you could use this object. Keep in mind that one object can have many uses. Separate your responses with a comma.",NA,"y",15122,NA,NA,4520,13867,NA,NA,NA,"fire, entertainment, war",1
"58df90cecc6d9800018c5d58","x3yhi4u3hz","Affordance Norms_Prolific",1,27,"2023-07-21T18:46:06+00:00",24.169050931931,21,"updated stim.csv","Version21.csv","Version 21","List 21","livestock",NA,601,4.36,1072,0.054989468,602,"BOI","-","-","Please name all of the ways you could use this object. Keep in mind that one object can have many uses. Separate your responses with a comma.",NA,"y",23189,NA,NA,5348,18417,NA,NA,NA,"wool, eggs, milk, butter, cheese, meat, breeding",1
"58df90cecc6d9800018c5d58","x3yhi4u3hz","Affordance Norms_Prolific",1,28,"2023-07-21T18:46:24+00:00",17.493205070496,21,"updated stim.csv","Version21.csv","Version 21","List 21","corridor",NA,626,4.96,2474,0.316902867,627,"BOI","-","-","Please name all of the ways you could use this object. Keep in mind that one object can have many uses. Separate your responses with a comma.",NA,"y",16370,NA,NA,3781,14757,NA,NA,NA,"seperate rooms, hang pictures, show achievements,",1
"58df90cecc6d9800018c5d58","x3yhi4u3hz","Affordance Norms_Prolific",1,29,"2023-07-21T18:46:51+00:00",27.681058883667,21,"updated stim.csv","Version21.csv","Version 21","List 21","caterpillar",NA,610,4.458333333,2304,0.605127755,611,"BOI","-","-","Please name all of the ways you could use this object. Keep in mind that one object can have many uses. Separate your responses with a comma.",NA,"y",26252,NA,NA,6116,24975,NA,NA,NA,"feed birds, wind up gardeners, turn into butterflies",1
"58df90cecc6d9800018c5d58","x3yhi4u3hz","Affordance Norms_Prolific",1,30,"2023-07-21T18:47:08+00:00",17.177571058273,21,"updated stim.csv","Version21.csv","Version 21","List 21","lunch",NA,629,4.28,1984,0.391387386,630,"BOI","-","-","Please name all of the ways you could use this object. Keep in mind that one object can have many uses. Separate your responses with a comma.",NA,"y",16069,NA,NA,3332,14774,NA,NA,NA,"eat, read, work, rest, play, socialise",1
"58df90cecc6d9800018c5d58","x3yhi4u3hz","Affordance Norms_Prolific",1,31,"2023-07-21T18:47:28+00:00",19.316587924957,21,"updated stim.csv","Version21.csv","Version 21","List 21","beachwear",NA,621,5.12,395,0.211302837,622,"BOI","-","-","Please name all of the ways you could use this object. Keep in mind that one object can have many uses. Separate your responses with a comma.",NA,"y",18225,NA,NA,2193,13591,NA,NA,NA,"wear, lounge in sun, swimming, ",1
"58df90cecc6d9800018c5d58","x3yhi4u3hz","Affordance Norms_Prolific",1,32,"2023-07-21T18:47:45+00:00",17.029474020004,21,"updated stim.csv","Version21.csv","Version 21","List 21","bagpipe",NA,620,4.678571429,623,0.282304847,621,"BOI","-","-","Please name all of the ways you could use this object. Keep in mind that one object can have many uses. Separate your responses with a comma.",NA,"y",15539,NA,NA,1693,8570,NA,NA,NA,"music, wake up king, ",1
"58df90cecc6d9800018c5d58","x3yhi4u3hz","Affordance Norms_Prolific",1,33,"2023-07-21T18:47:55+00:00",10.400800943375,21,"updated stim.csv","Version21.csv","Version 21","List 21","sangria",NA,618,4.958333333,2477,0.375782064,619,"BOI","-","-","Please name all of the ways you could use this object. Keep in mind that one object can have many uses. Separate your responses with a comma.",NA,"y",8770,NA,NA,1812,7157,NA,NA,NA,"drink, get drunk",1
"58df90cecc6d9800018c5d58","x3yhi4u3hz","Affordance Norms_Prolific",1,34,"2023-07-21T18:48:23+00:00",27.984394073486,21,"updated stim.csv","Version21.csv","Version 21","List 21","candy",NA,624,6.130434783,2170,0.00520631,625,"BOI","-","-","Please name all of the ways you could use this object. Keep in mind that one object can have many uses. Separate your responses with a comma.",NA,"y",27557,NA,NA,1283,22870,NA,NA,NA,"eat, sell, make, treats for children, ",1
"58df90cecc6d9800018c5d58","x3yhi4u3hz","Affordance Norms_Prolific",1,35,"2023-07-21T18:48:58+00:00",34.953428030014,21,"updated stim.csv","Version21.csv","Version 21","List 21","silk",NA,616,4.75,1712,0.151193811,617,"BOI","-","-","Please name all of the ways you could use this object. Keep in mind that one object can have many uses. Separate your responses with a comma.",NA,"y",34539,NA,NA,1994,33394,NA,NA,NA,"scarf, lingerie, pyjamas, bedding, curtains",1
"58df90cecc6d9800018c5d58","x3yhi4u3hz","Affordance Norms_Prolific",1,36,"2023-07-21T18:49:10+00:00",12.201817989349,21,"updated stim.csv","Version21.csv","Version 21","List 21","flypaper",NA,628,5.875,1197,0.232209206,629,"BOI","-","-","Please name all of the ways you could use this object. Keep in mind that one object can have many uses. Separate your responses with a comma.",NA,"y",11449,NA,NA,2597,9026,NA,NA,NA,"catch flys, get caught in hair",1
"58df90cecc6d9800018c5d58","x3yhi4u3hz","Affordance Norms_Prolific",1,37,"2023-07-21T18:49:31+00:00",20.788130044937,21,"updated stim.csv","Version21.csv","Version 21","List 21","manicurist",NA,602,5.222222222,2720,0.520201344,603,"BOI","-","-","Please name all of the ways you could use this object. Keep in mind that one object can have many uses. Separate your responses with a comma.",NA,"y",20080,NA,NA,2977,18624,NA,NA,NA,"trim nails, acrylic nails, paint nails, clean nails, look after nails",1
"58df90cecc6d9800018c5d58","x3yhi4u3hz","Affordance Norms_Prolific",1,38,"2023-07-21T18:49:47+00:00",15.677057027817,21,"updated stim.csv","Version21.csv","Version 21","List 21","bomb",NA,622,4.541666667,348,0.410731421,623,"BOI","-","-","Please name all of the ways you could use this object. Keep in mind that one object can have many uses. Separate your responses with a comma.",NA,"y",15211,NA,NA,1246,13804,NA,NA,NA,"explode, threaten, kill, destroy, murder, war",1
"58df90cecc6d9800018c5d58","x3yhi4u3hz","Affordance Norms_Prolific",1,39,"2023-07-21T18:50:05+00:00",18.362977027893,21,"updated stim.csv","Version21.csv","Version 21","List 21","entree",NA,612,5.291666667,2272,0.759838801,613,"BOI","-","-","Please name all of the ways you could use this object. Keep in mind that one object can have many uses. Separate your responses with a comma.",NA,"y",17380,NA,NA,5272,15366,NA,NA,NA,"starter",1
"58df90cecc6d9800018c5d58","x3yhi4u3hz","Affordance Norms_Prolific",1,40,"2023-07-21T18:50:14+00:00",9.127781867981,21,"updated stim.csv","Version21.csv","Version 21","List 21","cousin",NA,611,5.185185185,1820,0.477300305,612,"BOI","-","-","Please name all of the ways you could use this object. Keep in mind that one object can have many uses. Separate your responses with a comma.",NA,"y",8079,NA,NA,4107,6401,NA,NA,NA,"friend, relative",1
"5adc532809eae2000112bfb7","tynatvzzfl","Affordance Norms_Prolific",1,11,"2023-07-21T18:29:26+00:00",46.131309986115,18,"updated stim.csv","Version18.csv","Version 18","List 18","candlestick",NA,524,5.038461538,1838,0.013887713,525,"BOI","-","-","Please name all of the ways you could use this object. Keep in mind that one object can have many uses. Separate your responses with a comma.",NA,"y",45947,NA,NA,9895,43510,NA,NA,NA,"fire, create, art",0.986
"5adc532809eae2000112bfb7","tynatvzzfl","Affordance Norms_Prolific",1,12,"2023-07-21T18:30:29+00:00",62.73418211937,18,"updated stim.csv","Version18.csv","Version 18","List 18","protractor",NA,539,4.962962963,2663,0.710184563,540,"BOI","-","-","Please name all of the ways you could use this object. Keep in mind that one object can have many uses. Separate your responses with a comma.",NA,"y",62458,NA,NA,11350,59205,NA,NA,NA,"measure, geometry tool, solve math question ",0.934
"5adc532809eae2000112bfb7","tynatvzzfl","Affordance Norms_Prolific",1,13,"2023-07-21T18:31:27+00:00",58.426079034805,18,"updated stim.csv","Version18.csv","Version 18","List 18","curry",NA,526,5.461538462,2827,0.065017905,527,"BOI","-","-","Please name all of the ways you could use this object. Keep in mind that one object can have many uses. Separate your responses with a comma.",NA,"y",58248,NA,NA,8860,55195,NA,NA,NA,"tea, add to food, healthy",0.757
"5adc532809eae2000112bfb7","tynatvzzfl","Affordance Norms_Prolific",1,14,"2023-07-21T18:32:12+00:00",44.310075044632,18,"updated stim.csv","Version18.csv","Version 18","List 18","jelly",NA,531,6.592592593,2604,0.037244496,532,"BOI","-","-","Please name all of the ways you could use this object. Keep in mind that one object can have many uses. Separate your responses with a comma.",NA,"y",44126,NA,NA,9177,41897,NA,NA,NA,"sandwich, art, make ",0.86
"5adc532809eae2000112bfb7","tynatvzzfl","Affordance Norms_Prolific",1,15,"2023-07-21T18:32:54+00:00",42.711935997009,18,"updated stim.csv","Version18.csv","Version 18","List 18","carport",NA,525,4.5,2396,0.276241995,526,"BOI","-","-","Please name all of the ways you could use this object. Keep in mind that one object can have many uses. Separate your responses with a comma.",NA,"y",41074,NA,NA,11182,30574,NA,NA,NA,"park car",0.927
"5adc532809eae2000112bfb7","tynatvzzfl","Affordance Norms_Prolific",1,16,"2023-07-21T18:33:24+00:00",29.288851976395,18,"updated stim.csv","Version18.csv","Version 18","List 18","sailboat",NA,540,4.821428571,667,0.305307499,541,"BOI","-","-","Please name all of the ways you could use this object. Keep in mind that one object can have many uses. Separate your responses with a comma.",NA,"y",29095,NA,NA,18339,26067,NA,NA,NA,"Sailing, exploring, fishing",0.944
"5adc532809eae2000112bfb7","tynatvzzfl","Affordance Norms_Prolific",1,17,"2023-07-21T18:34:09+00:00",45.089071035385,18,"updated stim.csv","Version18.csv","Version 18","List 18","item",NA,530,5.333333333,74,0.187270689,531,"BOI","-","-","Please name all of the ways you could use this object. Keep in mind that one object can have many uses. Separate your responses with a comma.",NA,"y",44898,NA,NA,31782,42629,NA,NA,NA,"one, part of list,",0.787
"5adc532809eae2000112bfb7","tynatvzzfl","Affordance Norms_Prolific",1,18,"2023-07-21T18:34:40+00:00",31.26785993576,18,"updated stim.csv","Version18.csv","Version 18","List 18","sesame",NA,513,6.12,60,0.088357206,514,"BOI","-","-","Please name all of the ways you could use this object. Keep in mind that one object can have many uses. Separate your responses with a comma.",NA,"y",31079,NA,NA,19299,25170,NA,NA,NA,"tea, add to bread, ",0.865
"5adc532809eae2000112bfb7","tynatvzzfl","Affordance Norms_Prolific",1,19,"2023-07-21T18:35:04+00:00",23.496937036514,18,"updated stim.csv","Version18.csv","Version 18","List 18","prostitute",NA,511,4.695652174,2071,0.979417302,512,"BOI","-","-","Please name all of the ways you could use this object. Keep in mind that one object can have many uses. Separate your responses with a comma.",NA,"y",23318,NA,NA,12802,19169,NA,NA,NA,"Female, sex, payment",0.95
"5adc532809eae2000112bfb7","tynatvzzfl","Affordance Norms_Prolific",1,20,"2023-07-21T18:35:19+00:00",15.729312896729,18,"updated stim.csv","Version18.csv","Version 18","List 18","rosemary",NA,512,4.260869565,525,0.027839326,513,"BOI","-","-","Please name all of the ways you could use this object. Keep in mind that one object can have many uses. Separate your responses with a comma.",NA,"y",15544,NA,NA,6868,12259,NA,NA,NA,"herb, add to food, tea",1
"5adc532809eae2000112bfb7","tynatvzzfl","Affordance Norms_Prolific",1,21,"2023-07-21T18:35:48+00:00",29.002535104752,18,"updated stim.csv","Version18.csv","Version 18","List 18","soup",NA,516,5.555555556,930,0.887767133,517,"BOI","-","-","Please name all of the ways you could use this object. Keep in mind that one object can have many uses. Separate your responses with a comma.",NA,"y",28808,NA,NA,2668,26763,NA,NA,NA,"eat, create, to cure illness",1
"5adc532809eae2000112bfb7","tynatvzzfl","Affordance Norms_Prolific",1,22,"2023-07-21T18:36:25+00:00",36.962705850601,18,"updated stim.csv","Version18.csv","Version 18","List 18","pitchfork",NA,537,5.486522911,901,0.750646332,538,"BOI","-","-","Please name all of the ways you could use this object. Keep in mind that one object can have many uses. Separate your responses with a comma.",NA,"y",36762,NA,NA,17285,33941,NA,NA,NA,"tool, garden, soil",0.796
"5adc532809eae2000112bfb7","tynatvzzfl","Affordance Norms_Prolific",1,23,"2023-07-21T18:36:58+00:00",32.589351177216,18,"updated stim.csv","Version18.csv","Version 18","List 18","vibrator",NA,520,4.8,655,0.584332234,521,"BOI","-","-","Please name all of the ways you could use this object. Keep in mind that one object can have many uses. Separate your responses with a comma.",NA,"y",32404,NA,NA,19351,27479,NA,NA,NA,"sex toy, pain reliever,",0.964
"5adc532809eae2000112bfb7","tynatvzzfl","Affordance Norms_Prolific",1,24,"2023-07-21T18:37:25+00:00",26.671875,18,"updated stim.csv","Version18.csv","Version 18","List 18","suede",NA,517,4.84,701,0.291263355,518,"BOI","-","-","Please name all of the ways you could use this object. Keep in mind that one object can have many uses. Separate your responses with a comma.",NA,"y",26489,NA,NA,15084,24460,NA,NA,NA,"leather, material, shoes, clothing",0.909
"5adc532809eae2000112bfb7","tynatvzzfl","Affordance Norms_Prolific",1,25,"2023-07-21T18:37:42+00:00",17.827884912491,18,"updated stim.csv","Version18.csv","Version 18","List 18","kid",NA,532,4.583333333,13,0.866092268,533,"BOI","-","-","Please name all of the ways you could use this object. Keep in mind that one object can have many uses. Separate your responses with a comma.",NA,"y",17640,NA,NA,4299,14971,NA,NA,NA,"Parent, father, mother, son, daughter",1
"5adc532809eae2000112bfb7","tynatvzzfl","Affordance Norms_Prolific",1,26,"2023-07-21T18:38:44+00:00",62.014998912811,18,"updated stim.csv","Version18.csv","Version 18","List 18","protester",NA,538,4.818181818,161,0.378920968,539,"BOI","-","-","Please name all of the ways you could use this object. Keep in mind that one object can have many uses. Separate your responses with a comma.",NA,"y",60643,NA,NA,16263,58711,NA,NA,NA,"objections, demonstrations, yelling, screaming, police, violence, ",0.929
"5adc532809eae2000112bfb7","tynatvzzfl","Affordance Norms_Prolific",1,27,"2023-07-21T18:39:24+00:00",39.890710115433,18,"updated stim.csv","Version18.csv","Version 18","List 18","ductwork",NA,527,4.375,423,0.29017358,528,"BOI","-","-","Please name all of the ways you could use this object. Keep in mind that one object can have many uses. Separate your responses with a comma.",NA,"y",39688,NA,NA,11260,38364,NA,NA,NA,"Homes, buildings, system of ducts,",0.903
"5adc532809eae2000112bfb7","tynatvzzfl","Affordance Norms_Prolific",1,28,"2023-07-21T18:40:35+00:00",71.036068916321,18,"updated stim.csv","Version18.csv","Version 18","List 18","thermos",NA,518,6,699,0.195516583,519,"BOI","-","-","Please name all of the ways you could use this object. Keep in mind that one object can have many uses. Separate your responses with a comma.",NA,"y",70746,NA,NA,43798,66085,NA,NA,NA,"measuring tool, ",0.662
"5adc532809eae2000112bfb7","tynatvzzfl","Affordance Norms_Prolific",1,29,"2023-07-21T18:41:18+00:00",42.90619301796,18,"updated stim.csv","Version18.csv","Version 18","List 18","meteorologist",NA,535,4.8,197,0.341449251,536,"BOI","-","-","Please name all of the ways you could use this object. Keep in mind that one object can have many uses. Separate your responses with a comma.",NA,"y",42670,NA,NA,12721,22658,NA,NA,NA,"predict weather, advise on weather, atmospheric scientists",0.912
"5adc532809eae2000112bfb7","tynatvzzfl","Affordance Norms_Prolific",1,30,"2023-07-21T18:41:56+00:00",38.140388965607,18,"updated stim.csv","Version18.csv","Version 18","List 18","gondola",NA,529,4.391304348,1366,0.759903521,530,"BOI","-","-","Please name all of the ways you could use this object. Keep in mind that one object can have many uses. Separate your responses with a comma.",NA,"y",37956,NA,NA,31727,35551,NA,NA,NA,"lift, ski, boat",0.705
"5adc532809eae2000112bfb7","tynatvzzfl","Affordance Norms_Prolific",1,31,"2023-07-21T18:42:18+00:00",21.247887134552,18,"updated stim.csv","Version18.csv","Version 18","List 18","loudspeaker",NA,534,5.260869565,1492,0.304149864,535,"BOI","-","-","Please name all of the ways you could use this object. Keep in mind that one object can have many uses. Separate your responses with a comma.",NA,"y",21052,NA,NA,10175,12847,NA,NA,NA,"sound, music, ",0.946
"5adc532809eae2000112bfb7","tynatvzzfl","Affordance Norms_Prolific",1,32,"2023-07-21T18:42:47+00:00",29.811897993088,18,"updated stim.csv","Version18.csv","Version 18","List 18","boutique",NA,523,5.269230769,2310,0.728002682,524,"BOI","-","-","Please name all of the ways you could use this object. Keep in mind that one object can have many uses. Separate your responses with a comma.",NA,"y",29630,NA,NA,9418,27194,NA,NA,NA,"clothing store, shop, condo building",0.971
"5adc532809eae2000112bfb7","tynatvzzfl","Affordance Norms_Prolific",1,33,"2023-07-21T18:43:55+00:00",67.616861820221,18,"updated stim.csv","Version18.csv","Version 18","List 18","lice",NA,533,5.24,921,0.53592974,534,"BOI","-","-","Please name all of the ways you could use this object. Keep in mind that one object can have many uses. Separate your responses with a comma.",NA,"y",67323,NA,NA,9863,64678,NA,NA,NA,"insects, feed on blood, wingless",0.922
"5adc532809eae2000112bfb7","tynatvzzfl","Affordance Norms_Prolific",1,34,"2023-07-21T18:44:54+00:00",58.952389001846,18,"updated stim.csv","Version18.csv","Version 18","List 18","nightdress",NA,536,5.730769231,1109,0.219592421,537,"BOI","-","-","Please name all of the ways you could use this object. Keep in mind that one object can have many uses. Separate your responses with a comma.",NA,"y",58765,NA,NA,18657,56512,NA,NA,NA,"female, sleep wear",0.722
"5adc532809eae2000112bfb7","tynatvzzfl","Affordance Norms_Prolific",1,35,"2023-07-21T18:45:29+00:00",35.008515119553,18,"updated stim.csv","Version18.csv","Version 18","List 18","wax",NA,521,4.962962963,296,0.235786191,522,"BOI","-","-","Please name all of the ways you could use this object. Keep in mind that one object can have many uses. Separate your responses with a comma.",NA,"y",34791,NA,NA,12499,32594,NA,NA,NA,"inside ear, removal of hair, floor cleaner",0.954
"5adc532809eae2000112bfb7","tynatvzzfl","Affordance Norms_Prolific",1,36,"2023-07-21T18:45:58+00:00",29.459058046341,18,"updated stim.csv","Version18.csv","Version 18","List 18","slipper",NA,514,5.259259259,1824,0.409410216,515,"BOI","-","-","Please name all of the ways you could use this object. Keep in mind that one object can have many uses. Separate your responses with a comma.",NA,"y",29269,NA,NA,11545,26248,NA,NA,NA,"outside wear, indoor wear, rubber shoe",0.971
"5adc532809eae2000112bfb7","tynatvzzfl","Affordance Norms_Prolific",1,37,"2023-07-21T18:46:22+00:00",23.676226854324,18,"updated stim.csv","Version18.csv","Version 18","List 18","socket",NA,515,5,1184,0.014898881,516,"BOI","-","-","Please name all of the ways you could use this object. Keep in mind that one object can have many uses. Separate your responses with a comma.",NA,"y",23482,NA,NA,14678,21045,NA,NA,NA,"plug, electricity,",0.89
"5adc532809eae2000112bfb7","tynatvzzfl","Affordance Norms_Prolific",1,38,"2023-07-21T18:47:00+00:00",38.208669185638,18,"updated stim.csv","Version18.csv","Version 18","List 18","winch",NA,522,5.592592593,803,0.012255055,523,"BOI","-","-","Please name all of the ways you could use this object. Keep in mind that one object can have many uses. Separate your responses with a comma.",NA,"y",38035,NA,NA,25271,35334,NA,NA,NA,"wire cable, pulling in, ",0.811
"5adc532809eae2000112bfb7","tynatvzzfl","Affordance Norms_Prolific",1,39,"2023-07-21T18:48:22+00:00",81.41185092926,18,"updated stim.csv","Version18.csv","Version 18","List 18","turtle",NA,519,5.136363636,314,0.791797957,520,"BOI","-","-","Please name all of the ways you could use this object. Keep in mind that one object can have many uses. Separate your responses with a comma.",NA,"y",81122,NA,NA,23358,77806,NA,NA,NA,"Reptile, pet, ",0.743
"5adc532809eae2000112bfb7","tynatvzzfl","Affordance Norms_Prolific",1,40,"2023-07-21T18:48:56+00:00",34.32027387619,18,"updated stim.csv","Version18.csv","Version 18","List 18","floss",NA,528,4.76,2684,0.433773044,529,"BOI","-","-","Please name all of the ways you could use this object. Keep in mind that one object can have many uses. Separate your responses with a comma.",NA,"y",34131,NA,NA,2423,3895,NA,NA,NA,"teeth, ",0.753
"5bb0f624a1c73d0001b9d62d","8rk4qjxqgf","Affordance Norms_Prolific",1,11,"2023-07-21T19:50:35+00:00",18.696845054626,17,"updated stim.csv","Version17.csv","Version 17","List 17","contraceptive",NA,499,5.782608696,1231,0.767395268,500,"BOI","-","-","Please name all of the ways you could use this object. Keep in mind that one object can have many uses. Separate your responses with a comma.",NA,"y",18408,NA,NA,1984,16748,NA,NA,NA,"take, perscribe, use, loose",1
"5bb0f624a1c73d0001b9d62d","8rk4qjxqgf","Affordance Norms_Prolific",1,12,"2023-07-21T19:51:05+00:00",29.737915039062,17,"updated stim.csv","Version17.csv","Version 17","List 17","window",NA,492,6.4,1428,0.954803536,493,"BOI","-","-","Please name all of the ways you could use this object. Keep in mind that one object can have many uses. Separate your responses with a comma.",NA,"y",27488,NA,NA,3005,17719,NA,NA,NA,"fit, open, close, smash, cut, ",1
"5bb0f624a1c73d0001b9d62d","8rk4qjxqgf","Affordance Norms_Prolific",1,13,"2023-07-21T19:51:58+00:00",52.928893089294,17,"updated stim.csv","Version17.csv","Version 17","List 17","javelin",NA,506,5.15,978,0.460991121,507,"BOI","-","-","Please name all of the ways you could use this object. Keep in mind that one object can have many uses. Separate your responses with a comma.",NA,"y",52630,NA,NA,1442,51265,NA,NA,NA,"throw, carry, store, transport",0.933
"5bb0f624a1c73d0001b9d62d","8rk4qjxqgf","Affordance Norms_Prolific",1,14,"2023-07-21T19:52:35+00:00",36.558971881866,17,"updated stim.csv","Version17.csv","Version 17","List 17","salamander",NA,483,5,278,0.987732434,484,"BOI","-","-","Please name all of the ways you could use this object. Keep in mind that one object can have many uses. Separate your responses with a comma.",NA,"y",36266,NA,NA,1527,34340,NA,NA,NA,"keep, sell, watch, research ",0.947
"5bb0f624a1c73d0001b9d62d","8rk4qjxqgf","Affordance Norms_Prolific",1,15,"2023-07-21T19:52:44+00:00",9.742821931839,17,"updated stim.csv","Version17.csv","Version 17","List 17","merchandise",NA,508,6.518518519,824,0.694713047,509,"BOI","-","-","Please name all of the ways you could use this object. Keep in mind that one object can have many uses. Separate your responses with a comma.",NA,"y",9448,NA,NA,1648,7876,NA,NA,NA,"buy, sell, collect, ",1
"5bb0f624a1c73d0001b9d62d","8rk4qjxqgf","Affordance Norms_Prolific",1,16,"2023-07-21T19:53:07+00:00",22.560810089111,17,"updated stim.csv","Version17.csv","Version 17","List 17","tong",NA,488,4.703703704,1106,0.844195125,489,"BOI","-","-","Please name all of the ways you could use this object. Keep in mind that one object can have many uses. Separate your responses with a comma.",NA,"y",22251,NA,NA,14220,20738,NA,NA,NA,"cook with",0.843
"5bb0f624a1c73d0001b9d62d","8rk4qjxqgf","Affordance Norms_Prolific",1,17,"2023-07-21T19:53:29+00:00",21.914664983749,17,"updated stim.csv","Version17.csv","Version 17","List 17","housewife",NA,505,5.375,18,0.348121216,506,"BOI","-","-","Please name all of the ways you could use this object. Keep in mind that one object can have many uses. Separate your responses with a comma.",NA,"y",21610,NA,NA,1842,19693,NA,NA,NA,"have",1
"5bb0f624a1c73d0001b9d62d","8rk4qjxqgf","Affordance Norms_Prolific",1,18,"2023-07-21T19:54:14+00:00",45.428482055664,17,"updated stim.csv","Version17.csv","Version 17","List 17","splint",NA,487,5.041666667,1092,0.483566212,488,"BOI","-","-","Please name all of the ways you could use this object. Keep in mind that one object can have many uses. Separate your responses with a comma.",NA,"y",44184,NA,NA,2909,40277,NA,NA,NA,"wear, use, ",0.918
"5bb0f624a1c73d0001b9d62d","8rk4qjxqgf","Affordance Norms_Prolific",1,19,"2023-07-21T19:54:32+00:00",17.922627925873,17,"updated stim.csv","Version17.csv","Version 17","List 17","housefly",NA,504,5.083333333,1662,0.960305963,505,"BOI","-","-","Please name all of the ways you could use this object. Keep in mind that one object can have many uses. Separate your responses with a comma.",NA,"y",17628,NA,NA,4342,16378,NA,NA,NA,"swat, catch",1
"5bb0f624a1c73d0001b9d62d","8rk4qjxqgf","Affordance Norms_Prolific",1,20,"2023-07-21T19:55:00+00:00",27.839107990265,17,"updated stim.csv","Version17.csv","Version 17","List 17","dividers",NA,501,6,598,0.920044528,502,"BOI","-","-","Please name all of the ways you could use this object. Keep in mind that one object can have many uses. Separate your responses with a comma.",NA,"y",27530,NA,NA,1888,27378,NA,NA,NA,"seperate, store, file, preserve",1
"5bb0f624a1c73d0001b9d62d","8rk4qjxqgf","Affordance Norms_Prolific",1,21,"2023-07-21T19:56:33+00:00",92.767943143845,17,"updated stim.csv","Version17.csv","Version 17","List 17","athlete",NA,493,6.333333333,1370,0.521573786,494,"BOI","-","-","Please name all of the ways you could use this object. Keep in mind that one object can have many uses. Separate your responses with a comma.",NA,"y",92217,NA,NA,1657,90808,NA,NA,NA,"watch, compete, train, ",1
"5bb0f624a1c73d0001b9d62d","8rk4qjxqgf","Affordance Norms_Prolific",1,22,"2023-07-21T19:56:57+00:00",24.599342823029,17,"updated stim.csv","Version17.csv","Version 17","List 17","electrician",NA,502,4.956521739,1053,0.823962679,503,"BOI","-","-","Please name all of the ways you could use this object. Keep in mind that one object can have many uses. Separate your responses with a comma.",NA,"y",24300,NA,NA,3026,22909,NA,NA,NA,"train, hire, recruit review",1
"5bb0f624a1c73d0001b9d62d","8rk4qjxqgf","Affordance Norms_Prolific",1,23,"2023-07-21T19:58:10+00:00",72.649837970734,17,"updated stim.csv","Version17.csv","Version 17","List 17","cucumber",NA,500,4.375,1793,0.66125809,501,"BOI","-","-","Please name all of the ways you could use this object. Keep in mind that one object can have many uses. Separate your responses with a comma.",NA,"y",72103,NA,NA,1774,69556,NA,NA,NA,"eat, grow, sell, cook, ",1
"5bb0f624a1c73d0001b9d62d","8rk4qjxqgf","Affordance Norms_Prolific",1,24,"2023-07-21T19:58:21+00:00",10.627458095551,17,"updated stim.csv","Version17.csv","Version 17","List 17","attendant",NA,494,5.458333333,959,0.291234004,495,"BOI","-","-","Please name all of the ways you could use this object. Keep in mind that one object can have many uses. Separate your responses with a comma.",NA,"y",10320,NA,NA,2633,9249,NA,NA,NA,"help, hire, talk to, ",1
"5bb0f624a1c73d0001b9d62d","8rk4qjxqgf","Affordance Norms_Prolific",1,25,"2023-07-21T19:58:41+00:00",19.890373945236,17,"updated stim.csv","Version17.csv","Version 17","List 17","present",NA,510,4.55,2900,0.585234567,511,"BOI","-","-","Please name all of the ways you could use this object. Keep in mind that one object can have many uses. Separate your responses with a comma.",NA,"y",19585,NA,NA,1210,16829,NA,NA,NA,"buy, give, receive, wrap, send",1
"5bb0f624a1c73d0001b9d62d","8rk4qjxqgf","Affordance Norms_Prolific",1,26,"2023-07-21T19:58:47+00:00",6.2831151485443,17,"updated stim.csv","Version17.csv","Version 17","List 17","cacti",NA,497,4.52,494,0.136839401,498,"BOI","-","-","Please name all of the ways you could use this object. Keep in mind that one object can have many uses. Separate your responses with a comma.",NA,"y",5946,NA,NA,1563,4817,NA,NA,NA,"grow, sell",1
"5bb0f624a1c73d0001b9d62d","8rk4qjxqgf","Affordance Norms_Prolific",1,27,"2023-07-21T19:59:04+00:00",17.041152954102,17,"updated stim.csv","Version17.csv","Version 17","List 17","bicycle",NA,495,4.64,339,0.446014369,496,"BOI","-","-","Please name all of the ways you could use this object. Keep in mind that one object can have many uses. Separate your responses with a comma.",NA,"y",16761,NA,NA,1491,12558,NA,NA,NA,"ride, repair, buy, sell ",1
"5bb0f624a1c73d0001b9d62d","8rk4qjxqgf","Affordance Norms_Prolific",1,28,"2023-07-21T19:59:14+00:00",9.907613992691,17,"updated stim.csv","Version17.csv","Version 17","List 17","slaw",NA,486,6.083333333,1269,0.257158523,487,"BOI","-","-","Please name all of the ways you could use this object. Keep in mind that one object can have many uses. Separate your responses with a comma.",NA,"y",9592,NA,NA,2613,7184,NA,NA,NA,"eat, sell, buy",1
"5bb0f624a1c73d0001b9d62d","8rk4qjxqgf","Affordance Norms_Prolific",1,29,"2023-07-21T19:59:22+00:00",8.179563999176,17,"updated stim.csv","Version17.csv","Version 17","List 17","scallop",NA,484,6.217391304,2904,0.952578602,485,"BOI","-","-","Please name all of the ways you could use this object. Keep in mind that one object can have many uses. Separate your responses with a comma.",NA,"y",7878,NA,NA,1253,6802,NA,NA,NA,"eat, cook, buy, sell",1
"5bb0f624a1c73d0001b9d62d","8rk4qjxqgf","Affordance Norms_Prolific",1,30,"2023-07-21T19:59:36+00:00",14.038712978363,17,"updated stim.csv","Version17.csv","Version 17","List 17","carrot",NA,498,4.291666667,1484,0.291119552,499,"BOI","-","-","Please name all of the ways you could use this object. Keep in mind that one object can have many uses. Separate your responses with a comma.",NA,"y",13736,NA,NA,1345,12745,NA,NA,NA,"eat cook, cut, slice, peel,",1
"5bb0f624a1c73d0001b9d62d","8rk4qjxqgf","Affordance Norms_Prolific",1,31,"2023-07-21T19:59:52+00:00",15.684374094009,17,"updated stim.csv","Version17.csv","Version 17","List 17","pin",NA,481,5.875,1876,0.805264649,482,"BOI","-","-","Please name all of the ways you could use this object. Keep in mind that one object can have many uses. Separate your responses with a comma.",NA,"y",15371,NA,NA,9012,13954,NA,NA,NA,"wear, give, sell, buy",1
"5bb0f624a1c73d0001b9d62d","8rk4qjxqgf","Affordance Norms_Prolific",1,32,"2023-07-21T20:00:04+00:00",12.301296949387,17,"updated stim.csv","Version17.csv","Version 17","List 17","brush",NA,496,5.68,1414,0.836964408,497,"BOI","-","-","Please name all of the ways you could use this object. Keep in mind that one object can have many uses. Separate your responses with a comma.",NA,"y",11985,NA,NA,1931,10725,NA,NA,NA,"use, sell, buy",1
"5bb0f624a1c73d0001b9d62d","8rk4qjxqgf","Affordance Norms_Prolific",1,33,"2023-07-21T20:00:21+00:00",16.539355039597,17,"updated stim.csv","Version17.csv","Version 17","List 17","shelving",NA,485,5.739130435,848,0.55221895,486,"BOI","-","-","Please name all of the ways you could use this object. Keep in mind that one object can have many uses. Separate your responses with a comma.",NA,"y",16221,NA,NA,2160,15060,NA,NA,NA,"put up, craft, use",1
"5bb0f624a1c73d0001b9d62d","8rk4qjxqgf","Affordance Norms_Prolific",1,34,"2023-07-21T20:00:33+00:00",12.72381901741,17,"updated stim.csv","Version17.csv","Version 17","List 17","nightgown",NA,509,5.125,2470,0.414376322,510,"BOI","-","-","Please name all of the ways you could use this object. Keep in mind that one object can have many uses. Separate your responses with a comma.",NA,"y",12418,NA,NA,1569,7088,NA,NA,NA,"wear,",1
"5bb0f624a1c73d0001b9d62d","8rk4qjxqgf","Affordance Norms_Prolific",1,35,"2023-07-21T20:00:39+00:00",5.3255589008331,17,"updated stim.csv","Version17.csv","Version 17","List 17","kale",NA,507,4.84,2410,0.204229314,508,"BOI","-","-","Please name all of the ways you could use this object. Keep in mind that one object can have many uses. Separate your responses with a comma.",NA,"y",5026,NA,NA,1206,3904,NA,NA,NA,"eat, grow, ",1
"5bb0f624a1c73d0001b9d62d","8rk4qjxqgf","Affordance Norms_Prolific",1,36,"2023-07-21T20:00:48+00:00",9.7005109786987,17,"updated stim.csv","Version17.csv","Version 17","List 17","waxwork",NA,491,5.64,2206,0.418822922,492,"BOI","-","-","Please name all of the ways you could use this object. Keep in mind that one object can have many uses. Separate your responses with a comma.",NA,"y",9406,NA,NA,2574,5793,NA,NA,NA,"buy, admire, ",1
"5bb0f624a1c73d0001b9d62d","8rk4qjxqgf","Affordance Norms_Prolific",1,37,"2023-07-21T20:01:09+00:00",21.142559051514,17,"updated stim.csv","Version17.csv","Version 17","List 17","watchband",NA,490,4.434782609,1643,0.578632093,491,"BOI","-","-","Please name all of the ways you could use this object. Keep in mind that one object can have many uses. Separate your responses with a comma.",NA,"y",20843,NA,NA,2046,19207,NA,NA,NA,"wear, make, give",1
"5bb0f624a1c73d0001b9d62d","8rk4qjxqgf","Affordance Norms_Prolific",1,38,"2023-07-21T20:01:22+00:00",12.64789390564,17,"updated stim.csv","Version17.csv","Version 17","List 17","vocalist",NA,489,4.913043478,393,0.357783512,490,"BOI","-","-","Please name all of the ways you could use this object. Keep in mind that one object can have many uses. Separate your responses with a comma.",NA,"y",12352,NA,NA,2349,9186,NA,NA,NA,"listen, train",1
"5bb0f624a1c73d0001b9d62d","8rk4qjxqgf","Affordance Norms_Prolific",1,39,"2023-07-21T20:01:31+00:00",8.8565449714661,17,"updated stim.csv","Version17.csv","Version 17","List 17","pinball",NA,482,5,1181,0.795382639,483,"BOI","-","-","Please name all of the ways you could use this object. Keep in mind that one object can have many uses. Separate your responses with a comma.",NA,"y",8545,NA,NA,1339,6907,NA,NA,NA,"play, watch",1
"5bb0f624a1c73d0001b9d62d","8rk4qjxqgf","Affordance Norms_Prolific",1,40,"2023-07-21T20:01:41+00:00",10.01219701767,17,"updated stim.csv","Version17.csv","Version 17","List 17","guardrail",NA,503,4.56,2894,0.169280994,504,"BOI","-","-","Please name all of the ways you could use this object. Keep in mind that one object can have many uses. Separate your responses with a comma.",NA,"y",9715,NA,NA,1872,8616,NA,NA,NA,"use, install, inpspect",1
"5bec91e66cb00e00015b8a7b","m5xnsqtvi9","Affordance Norms_Prolific",1,11,"2023-07-21T19:19:06+00:00",18.517220973969,11,"updated stim.csv","Version11.csv","Version 11","List 11","publication",NA,326,6.409090909,1856,0.49712645,327,"BOI","-","-","Please name all of the ways you could use this object. Keep in mind that one object can have many uses. Separate your responses with a comma.",NA,"y",17652,NA,NA,5172,11745,NA,NA,NA,"art, books, ",1
"5bec91e66cb00e00015b8a7b","m5xnsqtvi9","Affordance Norms_Prolific",1,12,"2023-07-21T19:19:54+00:00",47.254412889481,11,"updated stim.csv","Version11.csv","Version 11","List 11","buttercup",NA,309,4.851851852,56,0.982478451,310,"BOI","-","-","Please name all of the ways you could use this object. Keep in mind that one object can have many uses. Separate your responses with a comma.",NA,"y",46461,NA,NA,3700,43162,NA,NA,NA,"make a chain, eat them, draw it, stick it, outline it, pluck it",1
"5bec91e66cb00e00015b8a7b","m5xnsqtvi9","Affordance Norms_Prolific",1,13,"2023-07-21T19:20:32+00:00",38.574173212051,11,"updated stim.csv","Version11.csv","Version 11","List 11","spyglass",NA,330,4.68,1066,0.954439673,331,"BOI","-","-","Please name all of the ways you could use this object. Keep in mind that one object can have many uses. Separate your responses with a comma.",NA,"y",36472,NA,NA,7095,34046,NA,NA,NA,"look at something small, be secretive, look close at plants, ",1
"5bec91e66cb00e00015b8a7b","m5xnsqtvi9","Affordance Norms_Prolific",1,14,"2023-07-21T19:21:45+00:00",73.088179826736,11,"updated stim.csv","Version11.csv","Version 11","List 11","camisole",NA,310,5.590909091,1004,0.687807092,311,"BOI","-","-","Please name all of the ways you could use this object. Keep in mind that one object can have many uses. Separate your responses with a comma.",NA,"y",72165,NA,NA,27077,70986,NA,NA,NA,"make a bag, wear it, draw it, use it for wamth, useit for fire, sit on it, use it for a head scalf",1
"5bec91e66cb00e00015b8a7b","m5xnsqtvi9","Affordance Norms_Prolific",1,15,"2023-07-21T19:22:13+00:00",27.297020196915,11,"updated stim.csv","Version11.csv","Version 11","List 11","cookhouse",NA,313,4.72,2525,0.735803548,314,"BOI","-","-","Please name all of the ways you could use this object. Keep in mind that one object can have many uses. Separate your responses with a comma.",NA,"y",26433,NA,NA,3944,25279,NA,NA,NA,"eat in there, learn to cook, gain skills",1
"5bec91e66cb00e00015b8a7b","m5xnsqtvi9","Affordance Norms_Prolific",1,16,"2023-07-21T19:22:48+00:00",35.26359295845,11,"updated stim.csv","Version11.csv","Version 11","List 11","blowgun",NA,305,5.88,452,0.300410442,306,"BOI","-","-","Please name all of the ways you could use this object. Keep in mind that one object can have many uses. Separate your responses with a comma.",NA,"y",34397,NA,NA,15339,33294,NA,NA,NA,"capture prey, self defence",1
"5bec91e66cb00e00015b8a7b","m5xnsqtvi9","Affordance Norms_Prolific",1,17,"2023-07-21T19:23:18+00:00",29.706895828247,11,"updated stim.csv","Version11.csv","Version 11","List 11","automotive",NA,302,5.75,784,0.029470498,303,"BOI","-","-","Please name all of the ways you could use this object. Keep in mind that one object can have many uses. Separate your responses with a comma.",NA,"y",28843,NA,NA,4110,27331,NA,NA,NA,"sleep in it, drive it, repair , service it, love it, enjoy it",1
"5bec91e66cb00e00015b8a7b","m5xnsqtvi9","Affordance Norms_Prolific",1,18,"2023-07-21T19:23:47+00:00",29.167391061783,11,"updated stim.csv","Version11.csv","Version 11","List 11","hound",NA,316,6,644,0.631792512,317,"BOI","-","-","Please name all of the ways you could use this object. Keep in mind that one object can have many uses. Separate your responses with a comma.",NA,"y",28358,NA,NA,2908,26923,NA,NA,NA,"walk it, feed it, stroke it, love it, talk to it",1
"5bec91e66cb00e00015b8a7b","m5xnsqtvi9","Affordance Norms_Prolific",1,19,"2023-07-21T19:24:20+00:00",33.571253061295,11,"updated stim.csv","Version11.csv","Version 11","List 11","garbage",NA,314,5,1017,0.528229772,315,"BOI","-","-","Please name all of the ways you could use this object. Keep in mind that one object can have many uses. Separate your responses with a comma.",NA,"y",32670,NA,NA,12951,32235,NA,NA,NA,"put it in the bin, set it on fire",1
"5bec91e66cb00e00015b8a7b","m5xnsqtvi9","Affordance Norms_Prolific",1,20,"2023-07-21T19:24:56+00:00",35.614598989487,11,"updated stim.csv","Version11.csv","Version 11","List 11","planner",NA,324,5.08,801,0.738677518,325,"BOI","-","-","Please name all of the ways you could use this object. Keep in mind that one object can have many uses. Separate your responses with a comma.",NA,"y",34666,NA,NA,2545,33031,NA,NA,NA,"plan your week, set dates, remember to pay bills, appointments",1
"5bec91e66cb00e00015b8a7b","m5xnsqtvi9","Affordance Norms_Prolific",1,21,"2023-07-21T19:25:15+00:00",18.698447942734,11,"updated stim.csv","Version11.csv","Version 11","List 11","prune",NA,325,5.954545455,2130,0.311146933,326,"BOI","-","-","Please name all of the ways you could use this object. Keep in mind that one object can have many uses. Separate your responses with a comma.",NA,"y",17827,NA,NA,2234,16323,NA,NA,NA,"eat it, draw with it, throw it, use it as bait",1
"5bec91e66cb00e00015b8a7b","m5xnsqtvi9","Affordance Norms_Prolific",1,22,"2023-07-21T19:25:40+00:00",24.977563142776,11,"updated stim.csv","Version11.csv","Version 11","List 11","paperhanger",NA,323,4.6,2622,0.044666984,324,"BOI","-","-","Please name all of the ways you could use this object. Keep in mind that one object can have many uses. Separate your responses with a comma.",NA,"y",24114,NA,NA,12443,22879,NA,NA,NA,"hang paper, dry art",1
"5bec91e66cb00e00015b8a7b","m5xnsqtvi9","Affordance Norms_Prolific",1,23,"2023-07-21T19:26:18+00:00",38.868221998215,11,"updated stim.csv","Version11.csv","Version 11","List 11","landlady",NA,318,4.304347826,1718,0.363544582,319,"BOI","-","-","Please name all of the ways you could use this object. Keep in mind that one object can have many uses. Separate your responses with a comma.",NA,"y",37985,NA,NA,3832,36918,NA,NA,NA,"pay them, arrange a meeting, discuss with them, argue with them, take to court",1
"5bec91e66cb00e00015b8a7b","m5xnsqtvi9","Affordance Norms_Prolific",1,24,"2023-07-21T19:27:06+00:00",47.377593994141,11,"updated stim.csv","Version11.csv","Version 11","List 11","clips",NA,311,5.652173913,374,0.608581961,312,"BOI","-","-","Please name all of the ways you could use this object. Keep in mind that one object can have many uses. Separate your responses with a comma.",NA,"y",46509,NA,NA,5012,45369,NA,NA,NA,"hang, open, pick, close things, collate things, seal things",1
"5bec91e66cb00e00015b8a7b","m5xnsqtvi9","Affordance Norms_Prolific",1,25,"2023-07-21T19:27:38+00:00",32.606554985046,11,"updated stim.csv","Version11.csv","Version 11","List 11","briefcase",NA,308,5.041666667,2150,0.369250805,309,"BOI","-","-","Please name all of the ways you could use this object. Keep in mind that one object can have many uses. Separate your responses with a comma.",NA,"y",31722,NA,NA,6141,29827,NA,NA,NA,"carry, store, hide, sit on it, set on fire",1
"5bec91e66cb00e00015b8a7b","m5xnsqtvi9","Affordance Norms_Prolific",1,26,"2023-07-21T19:28:27+00:00",48.378141880035,11,"updated stim.csv","Version11.csv","Version 11","List 11","pants",NA,322,4.4,2654,0.628822153,323,"BOI","-","-","Please name all of the ways you could use this object. Keep in mind that one object can have many uses. Separate your responses with a comma.",NA,"y",47410,NA,NA,7473,45967,NA,NA,NA,"wear as a hat, give a wedgie, rip them, fire material",1
"5bec91e66cb00e00015b8a7b","m5xnsqtvi9","Affordance Norms_Prolific",1,27,"2023-07-21T19:28:44+00:00",17.26020693779,11,"updated stim.csv","Version11.csv","Version 11","List 11","spine",NA,329,4.5,1679,0.318991097,330,"BOI","-","-","Please name all of the ways you could use this object. Keep in mind that one object can have many uses. Separate your responses with a comma.",NA,"y",16375,NA,NA,3828,14674,NA,NA,NA,"to bend, to carry, to support",1
"5bec91e66cb00e00015b8a7b","m5xnsqtvi9","Affordance Norms_Prolific",1,28,"2023-07-21T19:29:13+00:00",29.270876169205,11,"updated stim.csv","Version11.csv","Version 11","List 11","yourself",NA,301,5.285714286,12,0.916607563,302,"BOI","-","-","Please name all of the ways you could use this object. Keep in mind that one object can have many uses. Separate your responses with a comma.",NA,"y",27820,NA,NA,7459,26697,NA,NA,NA,"to live, learn, leave",1
"5bec91e66cb00e00015b8a7b","m5xnsqtvi9","Affordance Norms_Prolific",1,29,"2023-07-21T19:29:48+00:00",34.372424840927,11,"updated stim.csv","Version11.csv","Version 11","List 11","shellfish",NA,328,5.12,1870,0.759142375,329,"BOI","-","-","Please name all of the ways you could use this object. Keep in mind that one object can have many uses. Separate your responses with a comma.",NA,"y",33331,NA,NA,2535,15188,NA,NA,NA,"eat it, swin, exist, use as bait, ",1
"5bec91e66cb00e00015b8a7b","m5xnsqtvi9","Affordance Norms_Prolific",1,30,"2023-07-21T19:30:35+00:00",47.17552113533,11,"updated stim.csv","Version11.csv","Version 11","List 11","joint",NA,317,5.80952381,202,0.73583162,318,"BOI","-","-","Please name all of the ways you could use this object. Keep in mind that one object can have many uses. Separate your responses with a comma.",NA,"y",46329,NA,NA,25303,44625,NA,NA,NA,"move it, motion, twist",1
"5bec91e66cb00e00015b8a7b","m5xnsqtvi9","Affordance Norms_Prolific",1,31,"2023-07-21T19:31:12+00:00",36.684736967087,11,"updated stim.csv","Version11.csv","Version 11","List 11","brassiere",NA,306,5.555555556,1789,0.73002974,307,"BOI","-","-","Please name all of the ways you could use this object. Keep in mind that one object can have many uses. Separate your responses with a comma.",NA,"y",35748,NA,NA,3455,34678,NA,NA,NA,"support, protection, mask, carrier, melon holder, hat",1
"5bec91e66cb00e00015b8a7b","m5xnsqtvi9","Affordance Norms_Prolific",1,32,"2023-07-21T19:31:55+00:00",43.478749036789,11,"updated stim.csv","Version11.csv","Version 11","List 11","newsprint",NA,320,5,1675,0.906722331,321,"BOI","-","-","Please name all of the ways you could use this object. Keep in mind that one object can have many uses. Separate your responses with a comma.",NA,"y",42655,NA,NA,11336,40347,NA,NA,NA,"burn it, read it, take information, paper mache",1
"5bec91e66cb00e00015b8a7b","m5xnsqtvi9","Affordance Norms_Prolific",1,33,"2023-07-21T19:32:48+00:00",53.330388069153,11,"updated stim.csv","Version11.csv","Version 11","List 11","condominium",NA,312,4.666666667,1284,0.898411228,313,"BOI","-","-","Please name all of the ways you could use this object. Keep in mind that one object can have many uses. Separate your responses with a comma.",NA,"y",52536,NA,NA,28966,50586,NA,NA,NA,"sell it. live in it, renovate it ",1
"5bec91e66cb00e00015b8a7b","m5xnsqtvi9","Affordance Norms_Prolific",1,34,"2023-07-21T19:33:32+00:00",43.963614940643,11,"updated stim.csv","Version11.csv","Version 11","List 11","masseur",NA,319,5.16,2776,0.22608946,320,"BOI","-","-","Please name all of the ways you could use this object. Keep in mind that one object can have many uses. Separate your responses with a comma.",NA,"y",43183,NA,NA,28435,41894,NA,NA,NA,"book it, enjoy it, learn, heal, relax",1
"5bec91e66cb00e00015b8a7b","m5xnsqtvi9","Affordance Norms_Prolific",1,35,"2023-07-21T19:34:24+00:00",51.992071866989,11,"updated stim.csv","Version11.csv","Version 11","List 11","barman",NA,303,5.125,716,0.683574325,304,"BOI","-","-","Please name all of the ways you could use this object. Keep in mind that one object can have many uses. Separate your responses with a comma.",NA,"y",51122,NA,NA,3961,49727,NA,NA,NA,"serve it, make drinks, take money, reject it, eject it, look after it.",1
"5bec91e66cb00e00015b8a7b","m5xnsqtvi9","Affordance Norms_Prolific",1,36,"2023-07-21T19:34:49+00:00",24.708899021149,11,"updated stim.csv","Version11.csv","Version 11","List 11","punter",NA,327,4.925925926,216,0.526458122,328,"BOI","-","-","Please name all of the ways you could use this object. Keep in mind that one object can have many uses. Separate your responses with a comma.",NA,"y",23820,NA,NA,3132,22666,NA,NA,NA,"drink, loud, pay, fun, family",1
"5bec91e66cb00e00015b8a7b","m5xnsqtvi9","Affordance Norms_Prolific",1,37,"2023-07-21T19:35:43+00:00",53.867536067963,11,"updated stim.csv","Version11.csv","Version 11","List 11","noose",NA,321,4.44,2858,0.883973737,322,"BOI","-","-","Please name all of the ways you could use this object. Keep in mind that one object can have many uses. Separate your responses with a comma.",NA,"y",52950,NA,NA,6660,51522,NA,NA,NA,"capture animal, set it on fire, tie up, traps, tie up a boat, swing",1
"5bec91e66cb00e00015b8a7b","m5xnsqtvi9","Affordance Norms_Prolific",1,38,"2023-07-21T19:36:17+00:00",34.304378986359,11,"updated stim.csv","Version11.csv","Version 11","List 11","blanket",NA,304,4.916666667,1410,0.325157872,305,"BOI","-","-","Please name all of the ways you could use this object. Keep in mind that one object can have many uses. Separate your responses with a comma.",NA,"y",33397,NA,NA,3213,31492,NA,NA,NA,"sit on it, keep warn, keep animal warm, use as a pillow ",1
"5bec91e66cb00e00015b8a7b","m5xnsqtvi9","Affordance Norms_Prolific",1,39,"2023-07-21T19:36:51+00:00",34.038741111755,11,"updated stim.csv","Version11.csv","Version 11","List 11","handrail",NA,315,5.24,1145,0.440329114,316,"BOI","-","-","Please name all of the ways you could use this object. Keep in mind that one object can have many uses. Separate your responses with a comma.",NA,"y",33169,NA,NA,3261,32067,NA,NA,NA,"hold it, grind it, support, sturcture, help up",1
"5bec91e66cb00e00015b8a7b","m5xnsqtvi9","Affordance Norms_Prolific",1,40,"2023-07-21T19:37:15+00:00",23.950535774231,11,"updated stim.csv","Version11.csv","Version 11","List 11","bread",NA,307,4.416666667,266,0.076800302,308,"BOI","-","-","Please name all of the ways you could use this object. Keep in mind that one object can have many uses. Separate your responses with a comma.",NA,"y",22642,NA,NA,1854,17772,NA,NA,NA,"eat it, toast it, feed others, feed ducks, ",1
"5c2e3d9b2c95240001942439","0rk6fnnk0p","Affordance Norms_Prolific",1,11,"2023-07-21T19:47:09+00:00",15.047025918961,19,"updated stim.csv","Version19.csv","Version 19","List 19","tickler",NA,543,6.125,1131,0.800491874,544,"BOI","-","-","Please name all of the ways you could use this object. Keep in mind that one object can have many uses. Separate your responses with a comma.",NA,"y",13580,NA,NA,7323,10170,NA,NA,NA,"annoy someone",1
"5c2e3d9b2c95240001942439","0rk6fnnk0p","Affordance Norms_Prolific",1,12,"2023-07-21T19:47:26+00:00",16.627885103226,19,"updated stim.csv","Version19.csv","Version 19","List 19","wigmaker",NA,549,4.333333333,1555,0.460781999,550,"BOI","-","-","Please name all of the ways you could use this object. Keep in mind that one object can have many uses. Separate your responses with a comma.",NA,"y",15767,NA,NA,4264,14419,NA,NA,NA,"businessman,designer",1
"5c2e3d9b2c95240001942439","0rk6fnnk0p","Affordance Norms_Prolific",1,13,"2023-07-21T19:47:53+00:00",27.591011047363,19,"updated stim.csv","Version19.csv","Version 19","List 19","mascara",NA,566,5.625,1425,0.900817788,567,"BOI","-","-","Please name all of the ways you could use this object. Keep in mind that one object can have many uses. Separate your responses with a comma.",NA,"y",26665,NA,NA,5839,25182,NA,NA,NA,"as make up, to colour something in",1
"5c2e3d9b2c95240001942439","0rk6fnnk0p","Affordance Norms_Prolific",1,14,"2023-07-21T19:48:09+00:00",15.725800037384,19,"updated stim.csv","Version19.csv","Version 19","List 19","waist",NA,547,5.166666667,2768,0.711278044,548,"BOI","-","-","Please name all of the ways you could use this object. Keep in mind that one object can have many uses. Separate your responses with a comma.",NA,"y",14966,NA,NA,3442,13752,NA,NA,NA,"to hold, to make smaller, to make wider",1
"5c2e3d9b2c95240001942439","0rk6fnnk0p","Affordance Norms_Prolific",1,15,"2023-07-21T19:48:22+00:00",12.738922834396,19,"updated stim.csv","Version19.csv","Version 19","List 19","manuscript",NA,565,5.954545455,2715,0.055815318,566,"BOI","-","-","Please name all of the ways you could use this object. Keep in mind that one object can have many uses. Separate your responses with a comma.",NA,"y",11777,NA,NA,5893,10671,NA,NA,NA,"submit, create, destroy",1
"5c2e3d9b2c95240001942439","0rk6fnnk0p","Affordance Norms_Prolific",1,16,"2023-07-21T19:48:42+00:00",19.639413118362,19,"updated stim.csv","Version19.csv","Version 19","List 19","whirlpool",NA,548,5.5,778,0.071649372,549,"BOI","-","-","Please name all of the ways you could use this object. Keep in mind that one object can have many uses. Separate your responses with a comma.",NA,"y",18875,NA,NA,2745,15178,NA,NA,NA,"to dissapear, to investigate",1
"5c2e3d9b2c95240001942439","0rk6fnnk0p","Affordance Norms_Prolific",1,17,"2023-07-21T19:48:53+00:00",11.262796878815,19,"updated stim.csv","Version19.csv","Version 19","List 19","maiden",NA,564,5.36,2125,0.368001778,565,"BOI","-","-","Please name all of the ways you could use this object. Keep in mind that one object can have many uses. Separate your responses with a comma.",NA,"y",10577,NA,NA,5831,9243,NA,NA,NA,"to date, to marry",1
"5c2e3d9b2c95240001942439","0rk6fnnk0p","Affordance Norms_Prolific",1,18,"2023-07-21T19:49:03+00:00",9.9916470050812,19,"updated stim.csv","Version19.csv","Version 19","List 19","crewman",NA,556,4.44,2650,0.64593677,557,"BOI","-","-","Please name all of the ways you could use this object. Keep in mind that one object can have many uses. Separate your responses with a comma.",NA,"y",9247,NA,NA,3374,5251,NA,NA,NA,"man a ship",1
"5c2e3d9b2c95240001942439","0rk6fnnk0p","Affordance Norms_Prolific",1,19,"2023-07-21T19:49:22+00:00",19.092383146286,19,"updated stim.csv","Version19.csv","Version 19","List 19","catnip",NA,555,5.72,116,0.596868112,556,"BOI","-","-","Please name all of the ways you could use this object. Keep in mind that one object can have many uses. Separate your responses with a comma.",NA,"y",17863,NA,NA,6398,15786,NA,NA,NA,"to calm down cat",1
