"Username","ID","ExperimentName","Session","Trial","Date","TimeDif","Condition.Number","Stimuli.File","Order.File","Condition.Description","Condition.Notes","Stimuli.Cue","Stimuli.Answer","Stimuli.Shuffle","Stimuli.Stimuli.Notes","Stimuli.Value","Stimuli.Rand","Procedure.Item","Procedure.Trial.Type","Procedure.Max.Time","Procedure.Min.Time","Procedure.Text","Procedure.Procedure.Notes","Procedure.Shuffle","Response.RT","Response.Response","Response.Accuracy","Response.RTfirst","Response.RTlast","Response.strictAcc","Response.lenientAcc","Response.focus","Response.JOL","Response.Focus"
"5b0d0beed282ff00015b9972","0m29bocu0t","Affordance Norms_Prolific",1,11,"2023-07-28T16:29:38+00:00",34.05717587471,1,"updated stim.csv","Version1.csv","Version 1","List 1","thong",NA,3,5.76,1666,0.330502966,4,"BOI","-","-","Please name all of the ways you could use this object. Keep in mind that one object can have many uses. Separate your responses with a comma.",NA,"y",33799,NA,NA,7590,31385,NA,NA,NA,"grab, cook, separate, flip, turn",1
"5b0d0beed282ff00015b9972","0m29bocu0t","Affordance Norms_Prolific",1,12,"2023-07-28T16:30:13+00:00",35.129638910294,1,"updated stim.csv","Version1.csv","Version 1","List 1","virgin",NA,19,5.227272727,1241,0.629851612,20,"BOI","-","-","Please name all of the ways you could use this object. Keep in mind that one object can have many uses. Separate your responses with a comma.",NA,"y",34869,NA,NA,5752,33129,NA,NA,NA,"oil, dip, cook, sear, grill, bake",1
"5b0d0beed282ff00015b9972","0m29bocu0t","Affordance Norms_Prolific",1,13,"2023-07-28T16:30:30+00:00",17.365821123123,1,"updated stim.csv","Version1.csv","Version 1","List 1","tampon",NA,2,6.416666667,2301,0.945985105,3,"BOI","-","-","Please name all of the ways you could use this object. Keep in mind that one object can have many uses. Separate your responses with a comma.",NA,"y",17081,NA,NA,9363,16016,NA,NA,NA,"period, toilet paper",1
"5b0d0beed282ff00015b9972","0m29bocu0t","Affordance Norms_Prolific",1,14,"2023-07-28T16:30:49+00:00",19.114768028259,1,"updated stim.csv","Version1.csv","Version 1","List 1","newlywed",NA,17,5.481481481,1600,0.476399064,18,"BOI","-","-","Please name all of the ways you could use this object. Keep in mind that one object can have many uses. Separate your responses with a comma.",NA,"y",18845,NA,NA,9448,17339,NA,NA,NA,"talk, joke, travel with, phone",1
"5b0d0beed282ff00015b9972","0m29bocu0t","Affordance Norms_Prolific",1,15,"2023-07-28T16:31:23+00:00",33.090314865112,1,"updated stim.csv","Version1.csv","Version 1","List 1","plaintiff",NA,13,4.444444444,1011,0.860315666,14,"BOI","-","-","Please name all of the ways you could use this object. Keep in mind that one object can have many uses. Separate your responses with a comma.",NA,"y",32797,NA,NA,25066,31623,NA,NA,NA,"sue, talk, ask",1
"5b0d0beed282ff00015b9972","0m29bocu0t","Affordance Norms_Prolific",1,16,"2023-07-28T16:31:35+00:00",12.463281154633,1,"updated stim.csv","Version1.csv","Version 1","List 1","mitt",NA,22,4.826086957,1618,0.113902737,23,"BOI","-","-","Please name all of the ways you could use this object. Keep in mind that one object can have many uses. Separate your responses with a comma.",NA,"y",12203,NA,NA,1518,10499,NA,NA,NA,"wear, play, warm hands",1
"5b0d0beed282ff00015b9972","0m29bocu0t","Affordance Norms_Prolific",1,17,"2023-07-28T16:31:48+00:00",13.037282943726,1,"updated stim.csv","Version1.csv","Version 1","List 1","velvet",NA,15,4.666666667,1168,0.129741388,16,"BOI","-","-","Please name all of the ways you could use this object. Keep in mind that one object can have many uses. Separate your responses with a comma.",NA,"y",12771,NA,NA,1869,11165,NA,NA,NA,"touch, wear, show off, create, sew",1
"5b0d0beed282ff00015b9972","0m29bocu0t","Affordance Norms_Prolific",1,18,"2023-07-28T16:32:05+00:00",16.64615893364,1,"updated stim.csv","Version1.csv","Version 1","List 1","cattle",NA,25,4.333333333,252,0.347548191,26,"BOI","-","-","Please name all of the ways you could use this object. Keep in mind that one object can have many uses. Separate your responses with a comma.",NA,"y",16223,NA,NA,2784,15104,NA,NA,NA,"feed, pet, count, consume, milk",1
"5b0d0beed282ff00015b9972","0m29bocu0t","Affordance Norms_Prolific",1,19,"2023-07-28T16:32:18+00:00",12.842990159988,1,"updated stim.csv","Version1.csv","Version 1","List 1","sheep",NA,26,4.727272727,2510,0.797812576,27,"BOI","-","-","Please name all of the ways you could use this object. Keep in mind that one object can have many uses. Separate your responses with a comma.",NA,"y",12582,NA,NA,1742,8546,NA,NA,NA,"sheer, pet, consume, ",1
"5b0d0beed282ff00015b9972","0m29bocu0t","Affordance Norms_Prolific",1,20,"2023-07-28T16:32:41+00:00",23.663720846176,1,"updated stim.csv","Version1.csv","Version 1","List 1","panhandler",NA,12,5.777777778,2235,0.168486135,13,"BOI","-","-","Please name all of the ways you could use this object. Keep in mind that one object can have many uses. Separate your responses with a comma.",NA,"y",23395,NA,NA,3725,21145,NA,NA,NA,"give, ignore, talk to",1
"5b0d0beed282ff00015b9972","0m29bocu0t","Affordance Norms_Prolific",1,21,"2023-07-28T16:32:52+00:00",11.047503948212,1,"updated stim.csv","Version1.csv","Version 1","List 1","tonic",NA,27,5.434782609,1877,0.096670334,28,"BOI","-","-","Please name all of the ways you could use this object. Keep in mind that one object can have many uses. Separate your responses with a comma.",NA,"y",10779,NA,NA,1514,5733,NA,NA,NA,"drink, mix, sip, ",1
"5b0d0beed282ff00015b9972","0m29bocu0t","Affordance Norms_Prolific",1,22,"2023-07-28T16:33:04+00:00",11.46342921257,1,"updated stim.csv","Version1.csv","Version 1","List 1","polyester",NA,11,5.92,2708,0.629763414,12,"BOI","-","-","Please name all of the ways you could use this object. Keep in mind that one object can have many uses. Separate your responses with a comma.",NA,"y",11215,NA,NA,1497,9837,NA,NA,NA,"wear, touch, create, sew",1
"5b0d0beed282ff00015b9972","0m29bocu0t","Affordance Norms_Prolific",1,23,"2023-07-28T16:33:14+00:00",10.286965847015,1,"updated stim.csv","Version1.csv","Version 1","List 1","ham",NA,28,5.142857143,2618,0.332046282,29,"BOI","-","-","Please name all of the ways you could use this object. Keep in mind that one object can have many uses. Separate your responses with a comma.",NA,"y",10028,NA,NA,1244,8028,NA,NA,NA,"eat, cook, grill, bake, ",1
"5b0d0beed282ff00015b9972","0m29bocu0t","Affordance Norms_Prolific",1,24,"2023-07-28T16:33:22+00:00",7.7348501682281,1,"updated stim.csv","Version1.csv","Version 1","List 1","paperback",NA,7,6.230769231,308,0.981109369,8,"BOI","-","-","Please name all of the ways you could use this object. Keep in mind that one object can have many uses. Separate your responses with a comma.",NA,"y",7467,NA,NA,1131,6431,NA,NA,NA,"read, trade, lend, borrow, write on",1
"5b0d0beed282ff00015b9972","0m29bocu0t","Affordance Norms_Prolific",1,25,"2023-07-28T16:33:36+00:00",14.727692842484,1,"updated stim.csv","Version1.csv","Version 1","List 1","timber",NA,10,6.25,323,0.73335018,11,"BOI","-","-","Please name all of the ways you could use this object. Keep in mind that one object can have many uses. Separate your responses with a comma.",NA,"y",14463,NA,NA,5703,13204,NA,NA,NA,"build, saw, attach",1
"5b0d0beed282ff00015b9972","0m29bocu0t","Affordance Norms_Prolific",1,26,"2023-07-28T16:33:48+00:00",11.736344099045,1,"updated stim.csv","Version1.csv","Version 1","List 1","pigtail",NA,5,5.833333333,1647,0.48521541,6,"BOI","-","-","Please name all of the ways you could use this object. Keep in mind that one object can have many uses. Separate your responses with a comma.",NA,"y",11475,NA,NA,2244,10348,NA,NA,NA,"pull, cut, touch, tie",1
"5b0d0beed282ff00015b9972","0m29bocu0t","Affordance Norms_Prolific",1,27,"2023-07-28T16:34:00+00:00",11.593778848648,1,"updated stim.csv","Version1.csv","Version 1","List 1","cross",NA,23,4.84,1448,0.448711971,24,"BOI","-","-","Please name all of the ways you could use this object. Keep in mind that one object can have many uses. Separate your responses with a comma.",NA,"y",11200,NA,NA,6889,9207,NA,NA,NA,"look, touch, ",0.83
"5b0d0beed282ff00015b9972","0m29bocu0t","Affordance Norms_Prolific",1,28,"2023-07-28T16:34:18+00:00",18.130486011505,1,"updated stim.csv","Version1.csv","Version 1","List 1","cardigan",NA,8,5.454545455,1935,0.125396232,9,"BOI","-","-","Please name all of the ways you could use this object. Keep in mind that one object can have many uses. Separate your responses with a comma.",NA,"y",17872,NA,NA,2016,17185,NA,NA,NA,"wear, show off, warm yourself",1
"5b0d0beed282ff00015b9972","0m29bocu0t","Affordance Norms_Prolific",1,29,"2023-07-28T16:34:28+00:00",10.487784147263,1,"updated stim.csv","Version1.csv","Version 1","List 1","bully",NA,20,5.458333333,2953,0.249710528,21,"BOI","-","-","Please name all of the ways you could use this object. Keep in mind that one object can have many uses. Separate your responses with a comma.",NA,"y",10235,NA,NA,1448,9458,NA,NA,NA,"punch, ignore, report, join",1
"5b0d0beed282ff00015b9972","0m29bocu0t","Affordance Norms_Prolific",1,30,"2023-07-28T16:34:43+00:00",14.751735925674,1,"updated stim.csv","Version1.csv","Version 1","List 1","turbin",NA,16,5.565217391,1319,0.287274537,17,"BOI","-","-","Please name all of the ways you could use this object. Keep in mind that one object can have many uses. Separate your responses with a comma.",NA,"y",14485,NA,NA,4127,13330,NA,NA,NA,"wear for traditional reasons, warmth for head",1
"5b0d0beed282ff00015b9972","0m29bocu0t","Affordance Norms_Prolific",1,31,"2023-07-28T16:35:00+00:00",16.393146038055,1,"updated stim.csv","Version1.csv","Version 1","List 1","jurist",NA,24,5.347826087,469,0.48837589,25,"BOI","-","-","Please name all of the ways you could use this object. Keep in mind that one object can have many uses. Separate your responses with a comma.",NA,"y",15995,NA,NA,6340,15295,NA,NA,NA,"convince, speak to, argue with",1
"5b0d0beed282ff00015b9972","0m29bocu0t","Affordance Norms_Prolific",1,32,"2023-07-28T16:35:13+00:00",13.851084947586,1,"updated stim.csv","Version1.csv","Version 1","List 1","stall",NA,18,4.666666667,1815,0.413937663,19,"BOI","-","-","Please name all of the ways you could use this object. Keep in mind that one object can have many uses. Separate your responses with a comma.",NA,"y",13568,NA,NA,3110,12768,NA,NA,NA,"sit inside, wait inside, use chair for sitting",1
"5b0d0beed282ff00015b9972","0m29bocu0t","Affordance Norms_Prolific",1,33,"2023-07-28T16:35:51+00:00",37.841845035553,1,"updated stim.csv","Version1.csv","Version 1","List 1","nylon",NA,6,4.375,1389,0.172930083,7,"BOI","-","-","Please name all of the ways you could use this object. Keep in mind that one object can have many uses. Separate your responses with a comma.",NA,"y",37578,NA,NA,29586,35874,NA,NA,NA,"wear, use it to hide marks",0.5
"5b0d0beed282ff00015b9972","0m29bocu0t","Affordance Norms_Prolific",1,34,"2023-07-28T16:36:08+00:00",16.464304924011,1,"updated stim.csv","Version1.csv","Version 1","List 1","leather",NA,29,5.88,1967,0.018459114,30,"BOI","-","-","Please name all of the ways you could use this object. Keep in mind that one object can have many uses. Separate your responses with a comma.",NA,"y",16206,NA,NA,2236,13260,NA,NA,NA,"wear, show off, use as bag",1
"5b0d0beed282ff00015b9972","0m29bocu0t","Affordance Norms_Prolific",1,35,"2023-07-28T16:36:22+00:00",14.085849046707,1,"updated stim.csv","Version1.csv","Version 1","List 1","dude",NA,4,5.416666667,1464,0.391267155,5,"BOI","-","-","Please name all of the ways you could use this object. Keep in mind that one object can have many uses. Separate your responses with a comma.",NA,"y",13823,NA,NA,1903,13147,NA,NA,NA,"talk to, hang out with, go for drinks with, joke along with",1
"5b0d0beed282ff00015b9972","0m29bocu0t","Affordance Norms_Prolific",1,36,"2023-07-28T16:36:58+00:00",36.160517930984,1,"updated stim.csv","Version1.csv","Version 1","List 1","tiller",NA,9,4.875,2448,0.423270691,10,"BOI","-","-","Please name all of the ways you could use this object. Keep in mind that one object can have many uses. Separate your responses with a comma.",NA,"y",35834,NA,NA,16216,34796,NA,NA,NA,"break up dirt, get garden ready, plant seeds",1
"5b0d0beed282ff00015b9972","0m29bocu0t","Affordance Norms_Prolific",1,37,"2023-07-28T16:37:14+00:00",15.611131191254,1,"updated stim.csv","Version1.csv","Version 1","List 1","pup",NA,14,4.958333333,2722,0.368202979,15,"BOI","-","-","Please name all of the ways you could use this object. Keep in mind that one object can have many uses. Separate your responses with a comma.",NA,"y",15361,NA,NA,1393,14525,NA,NA,NA,"pet, talk to, feed, play with, walk with",1
"5b0d0beed282ff00015b9972","0m29bocu0t","Affordance Norms_Prolific",1,38,"2023-07-28T16:37:26+00:00",12.663424015045,1,"updated stim.csv","Version1.csv","Version 1","List 1","motor",NA,30,5.64,2491,0.148115672,31,"BOI","-","-","Please name all of the ways you could use this object. Keep in mind that one object can have many uses. Separate your responses with a comma.",NA,"y",12401,NA,NA,4647,10104,NA,NA,NA,"turn on, turn off, use to start machines",1
"5b0d0beed282ff00015b9972","0m29bocu0t","Affordance Norms_Prolific",1,39,"2023-07-28T16:38:02+00:00",35.477740764618,1,"updated stim.csv","Version1.csv","Version 1","List 1","apparatus",NA,1,4.538461538,764,0.261476603,2,"BOI","-","-","Please name all of the ways you could use this object. Keep in mind that one object can have many uses. Separate your responses with a comma.",NA,"y",35139,NA,NA,20388,33793,NA,NA,NA,"store liquid in, heat up, examine, document how it reacts",1
"5b0d0beed282ff00015b9972","0m29bocu0t","Affordance Norms_Prolific",1,40,"2023-07-28T16:38:17+00:00",14.91583609581,1,"updated stim.csv","Version1.csv","Version 1","List 1","rat",NA,21,4.4,243,0.879020377,22,"BOI","-","-","Please name all of the ways you could use this object. Keep in mind that one object can have many uses. Separate your responses with a comma.",NA,"y",14653,NA,NA,3811,13497,NA,NA,NA,"kill, pet, watch",1
"5c4592d7f608210001a4b0a8","v7e6ixsv40","Affordance Norms_Prolific",1,11,"2023-07-28T16:29:40+00:00",31.707018136978,1,"updated stim.csv","Version1.csv","Version 1","List 1","pigtail",NA,5,5.833333333,1647,0.48521541,6,"BOI","-","-","Please name all of the ways you could use this object. Keep in mind that one object can have many uses. Separate your responses with a comma.",NA,"y",31258,NA,NA,2889,30017,NA,NA,NA,"pull, combine with another pigtail, weave thread through, to escape a tower",1
"5c4592d7f608210001a4b0a8","v7e6ixsv40","Affordance Norms_Prolific",1,12,"2023-07-28T16:30:03+00:00",23.378921985626,1,"updated stim.csv","Version1.csv","Version 1","List 1","thong",NA,3,5.76,1666,0.330502966,4,"BOI","-","-","Please name all of the ways you could use this object. Keep in mind that one object can have many uses. Separate your responses with a comma.",NA,"y",22223,NA,NA,2257,21696,NA,NA,NA,"to wear, to use as a catapult, to wear on your head as a scrunchie",1
"5c4592d7f608210001a4b0a8","v7e6ixsv40","Affordance Norms_Prolific",1,13,"2023-07-28T16:30:21+00:00",18.010271072388,1,"updated stim.csv","Version1.csv","Version 1","List 1","velvet",NA,15,4.666666667,1168,0.129741388,16,"BOI","-","-","Please name all of the ways you could use this object. Keep in mind that one object can have many uses. Separate your responses with a comma.",NA,"y",17570,NA,NA,2575,13495,NA,NA,NA,"to stroke, to make clothing, to cover a sofa",1
"5c4592d7f608210001a4b0a8","v7e6ixsv40","Affordance Norms_Prolific",1,14,"2023-07-28T16:30:38+00:00",16.562077999115,1,"updated stim.csv","Version1.csv","Version 1","List 1","paperback",NA,7,6.230769231,308,0.981109369,8,"BOI","-","-","Please name all of the ways you could use this object. Keep in mind that one object can have many uses. Separate your responses with a comma.",NA,"y",16095,NA,NA,1429,14326,NA,NA,NA,"to read, to make into a tower, to use as kindling",1
"5c4592d7f608210001a4b0a8","v7e6ixsv40","Affordance Norms_Prolific",1,15,"2023-07-28T16:31:00+00:00",21.70020198822,1,"updated stim.csv","Version1.csv","Version 1","List 1","panhandler",NA,12,5.777777778,2235,0.168486135,13,"BOI","-","-","Please name all of the ways you could use this object. Keep in mind that one object can have many uses. Separate your responses with a comma.",NA,"y",20115,NA,NA,2891,19621,NA,NA,NA,"to handle a pan, to use for something else which is hot",1
"5c4592d7f608210001a4b0a8","v7e6ixsv40","Affordance Norms_Prolific",1,16,"2023-07-28T16:31:24+00:00",24.875183820724,1,"updated stim.csv","Version1.csv","Version 1","List 1","leather",NA,29,5.88,1967,0.018459114,30,"BOI","-","-","Please name all of the ways you could use this object. Keep in mind that one object can have many uses. Separate your responses with a comma.",NA,"y",24410,NA,NA,2274,23723,NA,NA,NA,"to make a saddle, to make a handbag, to make shoes, to use as sharpening",1
"5c4592d7f608210001a4b0a8","v7e6ixsv40","Affordance Norms_Prolific",1,17,"2023-07-28T16:31:49+00:00",24.146671056747,1,"updated stim.csv","Version1.csv","Version 1","List 1","apparatus",NA,1,4.538461538,764,0.261476603,2,"BOI","-","-","Please name all of the ways you could use this object. Keep in mind that one object can have many uses. Separate your responses with a comma.",NA,"y",23655,NA,NA,3108,23086,NA,NA,NA,"to use for an experiment, to use to climb if in a gym",1
"5c4592d7f608210001a4b0a8","v7e6ixsv40","Affordance Norms_Prolific",1,18,"2023-07-28T16:32:08+00:00",19.868082046509,1,"updated stim.csv","Version1.csv","Version 1","List 1","bully",NA,20,5.458333333,2953,0.249710528,21,"BOI","-","-","Please name all of the ways you could use this object. Keep in mind that one object can have many uses. Separate your responses with a comma.",NA,"y",19408,NA,NA,1556,18880,NA,NA,NA,"to stand up to, to pity, to avoid",1
"5c4592d7f608210001a4b0a8","v7e6ixsv40","Affordance Norms_Prolific",1,19,"2023-07-28T16:32:45+00:00",36.282299041748,1,"updated stim.csv","Version1.csv","Version 1","List 1","virgin",NA,19,5.227272727,1241,0.629851612,20,"BOI","-","-","Please name all of the ways you could use this object. Keep in mind that one object can have many uses. Separate your responses with a comma.",NA,"y",35789,NA,NA,2521,35374,NA,NA,NA,"to be a religious idol, to be pure ",1
"5c4592d7f608210001a4b0a8","v7e6ixsv40","Affordance Norms_Prolific",1,20,"2023-07-28T16:33:04+00:00",19.558788061142,1,"updated stim.csv","Version1.csv","Version 1","List 1","timber",NA,10,6.25,323,0.73335018,11,"BOI","-","-","Please name all of the ways you could use this object. Keep in mind that one object can have many uses. Separate your responses with a comma.",NA,"y",19065,NA,NA,1760,18608,NA,NA,NA,"to build a house with, to dam a river, to build a fire",1
"5c4592d7f608210001a4b0a8","v7e6ixsv40","Affordance Norms_Prolific",1,21,"2023-07-28T16:33:23+00:00",18.187204837799,1,"updated stim.csv","Version1.csv","Version 1","List 1","stall",NA,18,4.666666667,1815,0.413937663,19,"BOI","-","-","Please name all of the ways you could use this object. Keep in mind that one object can have many uses. Separate your responses with a comma.",NA,"y",17725,NA,NA,2882,16580,NA,NA,NA,"to put a horse in, to sit in a theatre",1
"5c4592d7f608210001a4b0a8","v7e6ixsv40","Affordance Norms_Prolific",1,22,"2023-07-28T16:33:34+00:00",11.953716993332,1,"updated stim.csv","Version1.csv","Version 1","List 1","polyester",NA,11,5.92,2708,0.629763414,12,"BOI","-","-","Please name all of the ways you could use this object. Keep in mind that one object can have many uses. Separate your responses with a comma.",NA,"y",11511,NA,NA,1476,11162,NA,NA,NA,"to make clothing, to make tents",1
"5c4592d7f608210001a4b0a8","v7e6ixsv40","Affordance Norms_Prolific",1,23,"2023-07-28T16:33:54+00:00",19.190497159958,1,"updated stim.csv","Version1.csv","Version 1","List 1","cattle",NA,25,4.333333333,252,0.347548191,26,"BOI","-","-","Please name all of the ways you could use this object. Keep in mind that one object can have many uses. Separate your responses with a comma.",NA,"y",18737,NA,NA,1389,18145,NA,NA,NA,"to drive, to herd, to milk, to look after",1
"5c4592d7f608210001a4b0a8","v7e6ixsv40","Affordance Norms_Prolific",1,24,"2023-07-28T16:34:06+00:00",12.49545788765,1,"updated stim.csv","Version1.csv","Version 1","List 1","newlywed",NA,17,5.481481481,1600,0.476399064,18,"BOI","-","-","Please name all of the ways you could use this object. Keep in mind that one object can have many uses. Separate your responses with a comma.",NA,"y",12013,NA,NA,1444,11667,NA,NA,NA,"to congratulate, to envy, to admire",1
"5c4592d7f608210001a4b0a8","v7e6ixsv40","Affordance Norms_Prolific",1,25,"2023-07-28T16:34:19+00:00",12.439355134964,1,"updated stim.csv","Version1.csv","Version 1","List 1","turbin",NA,16,5.565217391,1319,0.287274537,17,"BOI","-","-","Please name all of the ways you could use this object. Keep in mind that one object can have many uses. Separate your responses with a comma.",NA,"y",11977,NA,NA,5535,11611,NA,NA,NA,"i don't know what this is, sorry",1
"5c4592d7f608210001a4b0a8","v7e6ixsv40","Affordance Norms_Prolific",1,26,"2023-07-28T16:34:33+00:00",14.455822944641,1,"updated stim.csv","Version1.csv","Version 1","List 1","dude",NA,4,5.416666667,1464,0.391267155,5,"BOI","-","-","Please name all of the ways you could use this object. Keep in mind that one object can have many uses. Separate your responses with a comma.",NA,"y",13985,NA,NA,1939,13460,NA,NA,NA,"to hang out with, to enjoy company of",1
"5c4592d7f608210001a4b0a8","v7e6ixsv40","Affordance Norms_Prolific",1,27,"2023-07-28T16:34:43+00:00",9.8544759750366,1,"updated stim.csv","Version1.csv","Version 1","List 1","plaintiff",NA,13,4.444444444,1011,0.860315666,14,"BOI","-","-","Please name all of the ways you could use this object. Keep in mind that one object can have many uses. Separate your responses with a comma.",NA,"y",9412,NA,NA,1615,8835,NA,NA,NA,"to hear, to defend",1
"5c4592d7f608210001a4b0a8","v7e6ixsv40","Affordance Norms_Prolific",1,28,"2023-07-28T16:34:54+00:00",10.7705950737,1,"updated stim.csv","Version1.csv","Version 1","List 1","motor",NA,30,5.64,2491,0.148115672,31,"BOI","-","-","Please name all of the ways you could use this object. Keep in mind that one object can have many uses. Separate your responses with a comma.",NA,"y",10303,NA,NA,1830,9623,NA,NA,NA,"to fix, to run, to test",1
"5c4592d7f608210001a4b0a8","v7e6ixsv40","Affordance Norms_Prolific",1,29,"2023-07-28T16:35:07+00:00",13.77415394783,1,"updated stim.csv","Version1.csv","Version 1","List 1","ham",NA,28,5.142857143,2618,0.332046282,29,"BOI","-","-","Please name all of the ways you could use this object. Keep in mind that one object can have many uses. Separate your responses with a comma.",NA,"y",13305,NA,NA,1221,11682,NA,NA,NA,"to cook, to eat, to combine with other things",1
"5c4592d7f608210001a4b0a8","v7e6ixsv40","Affordance Norms_Prolific",1,30,"2023-07-28T16:35:32+00:00",24.924299955368,1,"updated stim.csv","Version1.csv","Version 1","List 1","tampon",NA,2,6.416666667,2301,0.945985105,3,"BOI","-","-","Please name all of the ways you could use this object. Keep in mind that one object can have many uses. Separate your responses with a comma.",NA,"y",24466,NA,NA,1227,23789,NA,NA,NA,"to use during periods, to use for a nosebleed, to stop a leak in a pipe temporarily",1
"5c4592d7f608210001a4b0a8","v7e6ixsv40","Affordance Norms_Prolific",1,31,"2023-07-28T16:35:56+00:00",23.50264787674,1,"updated stim.csv","Version1.csv","Version 1","List 1","rat",NA,21,4.4,243,0.879020377,22,"BOI","-","-","Please name all of the ways you could use this object. Keep in mind that one object can have many uses. Separate your responses with a comma.",NA,"y",23007,NA,NA,1338,22556,NA,NA,NA,"to keep as a pet, to exterminate as a pest, to test on in labs",1
"5c4592d7f608210001a4b0a8","v7e6ixsv40","Affordance Norms_Prolific",1,32,"2023-07-28T16:36:13+00:00",17.175231218338,1,"updated stim.csv","Version1.csv","Version 1","List 1","cardigan",NA,8,5.454545455,1935,0.125396232,9,"BOI","-","-","Please name all of the ways you could use this object. Keep in mind that one object can have many uses. Separate your responses with a comma.",NA,"y",15955,NA,NA,1269,15023,NA,NA,NA,"to wear, to use as a pillow",1
"5c4592d7f608210001a4b0a8","v7e6ixsv40","Affordance Norms_Prolific",1,33,"2023-07-28T16:36:29+00:00",15.77464389801,1,"updated stim.csv","Version1.csv","Version 1","List 1","cross",NA,23,4.84,1448,0.448711971,24,"BOI","-","-","Please name all of the ways you could use this object. Keep in mind that one object can have many uses. Separate your responses with a comma.",NA,"y",15280,NA,NA,1550,14933,NA,NA,NA,"to use as a grave marker, to wear on a chain, to mark treasure",1
"5c4592d7f608210001a4b0a8","v7e6ixsv40","Affordance Norms_Prolific",1,34,"2023-07-28T16:36:40+00:00",11.416467905045,1,"updated stim.csv","Version1.csv","Version 1","List 1","pup",NA,14,4.958333333,2722,0.368202979,15,"BOI","-","-","Please name all of the ways you could use this object. Keep in mind that one object can have many uses. Separate your responses with a comma.",NA,"y",10985,NA,NA,1154,9539,NA,NA,NA,"to cuddle, to own, to give",1
"5c4592d7f608210001a4b0a8","v7e6ixsv40","Affordance Norms_Prolific",1,35,"2023-07-28T16:36:51+00:00",10.324089050293,1,"updated stim.csv","Version1.csv","Version 1","List 1","jurist",NA,24,5.347826087,469,0.48837589,25,"BOI","-","-","Please name all of the ways you could use this object. Keep in mind that one object can have many uses. Separate your responses with a comma.",NA,"y",9862,NA,NA,2475,8583,NA,NA,NA,"don't know this word, sorry",1
"5c4592d7f608210001a4b0a8","v7e6ixsv40","Affordance Norms_Prolific",1,36,"2023-07-28T16:37:02+00:00",11.655049085617,1,"updated stim.csv","Version1.csv","Version 1","List 1","nylon",NA,6,4.375,1389,0.172930083,7,"BOI","-","-","Please name all of the ways you could use this object. Keep in mind that one object can have many uses. Separate your responses with a comma.",NA,"y",11197,NA,NA,1243,10914,NA,NA,NA,"to make clothing, to make tents, to make parachutes",1
"5c4592d7f608210001a4b0a8","v7e6ixsv40","Affordance Norms_Prolific",1,37,"2023-07-28T16:37:16+00:00",14.173157930374,1,"updated stim.csv","Version1.csv","Version 1","List 1","tonic",NA,27,5.434782609,1877,0.096670334,28,"BOI","-","-","Please name all of the ways you could use this object. Keep in mind that one object can have many uses. Separate your responses with a comma.",NA,"y",13669,NA,NA,1153,13078,NA,NA,NA,"to use as a mixer, to use as a health drink",1
"5c4592d7f608210001a4b0a8","v7e6ixsv40","Affordance Norms_Prolific",1,38,"2023-07-28T16:37:30+00:00",13.989634037018,1,"updated stim.csv","Version1.csv","Version 1","List 1","tiller",NA,9,4.875,2448,0.423270691,10,"BOI","-","-","Please name all of the ways you could use this object. Keep in mind that one object can have many uses. Separate your responses with a comma.",NA,"y",13532,NA,NA,2186,13020,NA,NA,NA,"to steer a ship, to pose at in a photo",1
"5c4592d7f608210001a4b0a8","v7e6ixsv40","Affordance Norms_Prolific",1,39,"2023-07-28T16:37:51+00:00",21.097275018692,1,"updated stim.csv","Version1.csv","Version 1","List 1","mitt",NA,22,4.826086957,1618,0.113902737,23,"BOI","-","-","Please name all of the ways you could use this object. Keep in mind that one object can have many uses. Separate your responses with a comma.",NA,"y",19965,NA,NA,1339,19516,NA,NA,NA,"to wear on your hand for protection, to wear for warmth, to wear when handling birds of prey",1
"5c4592d7f608210001a4b0a8","v7e6ixsv40","Affordance Norms_Prolific",1,40,"2023-07-28T16:38:05+00:00",13.556608915329,1,"updated stim.csv","Version1.csv","Version 1","List 1","sheep",NA,26,4.727272727,2510,0.797812576,27,"BOI","-","-","Please name all of the ways you could use this object. Keep in mind that one object can have many uses. Separate your responses with a comma.",NA,"y",13096,NA,NA,1124,12508,NA,NA,NA,"to herd, to shear, to fuss, to talk to",1
"5eadf7371f8db74abecd535f","q9r3rw0idm","Affordance Norms_Prolific",1,11,"2023-07-28T16:28:14+00:00",20.506691932678,1,"updated stim.csv","Version1.csv","Version 1","List 1","rat",NA,21,4.4,243,0.879020377,22,"BOI","-","-","Please name all of the ways you could use this object. Keep in mind that one object can have many uses. Separate your responses with a comma.",NA,"y",20151,NA,NA,2728,18360,NA,NA,NA,"play, hold, pet, kill, feed, cuddle",1
"5eadf7371f8db74abecd535f","q9r3rw0idm","Affordance Norms_Prolific",1,12,"2023-07-28T16:28:22+00:00",8.1680369377136,1,"updated stim.csv","Version1.csv","Version 1","List 1","cross",NA,23,4.84,1448,0.448711971,24,"BOI","-","-","Please name all of the ways you could use this object. Keep in mind that one object can have many uses. Separate your responses with a comma.",NA,"y",7777,NA,NA,2123,6464,NA,NA,NA,"hang, pray to",1
"5eadf7371f8db74abecd535f","q9r3rw0idm","Affordance Norms_Prolific",1,13,"2023-07-28T16:28:30+00:00",7.6292271614075,1,"updated stim.csv","Version1.csv","Version 1","List 1","mitt",NA,22,4.826086957,1618,0.113902737,23,"BOI","-","-","Please name all of the ways you could use this object. Keep in mind that one object can have many uses. Separate your responses with a comma.",NA,"y",7297,NA,NA,1698,5376,NA,NA,NA,"wear, catch",1
"5eadf7371f8db74abecd535f","q9r3rw0idm","Affordance Norms_Prolific",1,14,"2023-07-28T16:28:49+00:00",18.766288995743,1,"updated stim.csv","Version1.csv","Version 1","List 1","dude",NA,4,5.416666667,1464,0.391267155,5,"BOI","-","-","Please name all of the ways you could use this object. Keep in mind that one object can have many uses. Separate your responses with a comma.",NA,"y",18382,NA,NA,2439,17205,NA,NA,NA,"talk to, hang with, date, kiss, hug, laugh with, joke with",1
"5eadf7371f8db74abecd535f","q9r3rw0idm","Affordance Norms_Prolific",1,15,"2023-07-28T16:29:01+00:00",12.684590816498,1,"updated stim.csv","Version1.csv","Version 1","List 1","jurist",NA,24,5.347826087,469,0.48837589,25,"BOI","-","-","Please name all of the ways you could use this object. Keep in mind that one object can have many uses. Separate your responses with a comma.",NA,"y",12335,NA,NA,3625,8206,NA,NA,NA,"talk to, convince, ",1
"5eadf7371f8db74abecd535f","q9r3rw0idm","Affordance Norms_Prolific",1,16,"2023-07-28T16:29:15+00:00",13.275902986526,1,"updated stim.csv","Version1.csv","Version 1","List 1","stall",NA,18,4.666666667,1815,0.413937663,19,"BOI","-","-","Please name all of the ways you could use this object. Keep in mind that one object can have many uses. Separate your responses with a comma.",NA,"y",12950,NA,NA,2446,11157,NA,NA,NA,"use, open, close, clean",1
"5eadf7371f8db74abecd535f","q9r3rw0idm","Affordance Norms_Prolific",1,17,"2023-07-28T16:29:24+00:00",9.3812320232391,1,"updated stim.csv","Version1.csv","Version 1","List 1","paperback",NA,7,6.230769231,308,0.981109369,8,"BOI","-","-","Please name all of the ways you could use this object. Keep in mind that one object can have many uses. Separate your responses with a comma.",NA,"y",9022,NA,NA,2415,8134,NA,NA,NA,"read, clean, take off",1
"5eadf7371f8db74abecd535f","q9r3rw0idm","Affordance Norms_Prolific",1,18,"2023-07-28T16:29:42+00:00",18.236213207245,1,"updated stim.csv","Version1.csv","Version 1","List 1","pup",NA,14,4.958333333,2722,0.368202979,15,"BOI","-","-","Please name all of the ways you could use this object. Keep in mind that one object can have many uses. Separate your responses with a comma.",NA,"y",17886,NA,NA,1783,17230,NA,NA,NA,"play with, feed, cuddle, pet, brush, walk, teach",1
"5eadf7371f8db74abecd535f","q9r3rw0idm","Affordance Norms_Prolific",1,19,"2023-07-28T16:29:54+00:00",11.837474822998,1,"updated stim.csv","Version1.csv","Version 1","List 1","panhandler",NA,12,5.777777778,2235,0.168486135,13,"BOI","-","-","Please name all of the ways you could use this object. Keep in mind that one object can have many uses. Separate your responses with a comma.",NA,"y",11473,NA,NA,1698,10121,NA,NA,NA,"give, yell at, talk to, help",1
"5eadf7371f8db74abecd535f","q9r3rw0idm","Affordance Norms_Prolific",1,20,"2023-07-28T16:30:14+00:00",20.425475120544,1,"updated stim.csv","Version1.csv","Version 1","List 1","newlywed",NA,17,5.481481481,1600,0.476399064,18,"BOI","-","-","Please name all of the ways you could use this object. Keep in mind that one object can have many uses. Separate your responses with a comma.",NA,"y",20061,NA,NA,4390,18836,NA,NA,NA,"dance, hug, kiss, sign papers, party",1
"5eadf7371f8db74abecd535f","q9r3rw0idm","Affordance Norms_Prolific",1,21,"2023-07-28T16:30:27+00:00",13.029950857162,1,"updated stim.csv","Version1.csv","Version 1","List 1","sheep",NA,26,4.727272727,2510,0.797812576,27,"BOI","-","-","Please name all of the ways you could use this object. Keep in mind that one object can have many uses. Separate your responses with a comma.",NA,"y",12702,NA,NA,2007,11942,NA,NA,NA,"shave, feed, play, love",1
"5eadf7371f8db74abecd535f","q9r3rw0idm","Affordance Norms_Prolific",1,22,"2023-07-28T16:30:44+00:00",16.305242061615,1,"updated stim.csv","Version1.csv","Version 1","List 1","plaintiff",NA,13,4.444444444,1011,0.860315666,14,"BOI","-","-","Please name all of the ways you could use this object. Keep in mind that one object can have many uses. Separate your responses with a comma.",NA,"y",15968,NA,NA,5578,14591,NA,NA,NA,"cross-examine, speak with",1
"5eadf7371f8db74abecd535f","q9r3rw0idm","Affordance Norms_Prolific",1,23,"2023-07-28T16:30:52+00:00",8.1056311130524,1,"updated stim.csv","Version1.csv","Version 1","List 1","pigtail",NA,5,5.833333333,1647,0.48521541,6,"BOI","-","-","Please name all of the ways you could use this object. Keep in mind that one object can have many uses. Separate your responses with a comma.",NA,"y",7776,NA,NA,1346,5968,NA,NA,NA,"wear, takeout, style",1
"5eadf7371f8db74abecd535f","q9r3rw0idm","Affordance Norms_Prolific",1,24,"2023-07-28T16:31:03+00:00",11.206971883774,1,"updated stim.csv","Version1.csv","Version 1","List 1","velvet",NA,15,4.666666667,1168,0.129741388,16,"BOI","-","-","Please name all of the ways you could use this object. Keep in mind that one object can have many uses. Separate your responses with a comma.",NA,"y",10870,NA,NA,3904,9695,NA,NA,NA,"wear, make with, decorate",1
"5eadf7371f8db74abecd535f","q9r3rw0idm","Affordance Norms_Prolific",1,25,"2023-07-28T16:31:10+00:00",7.4509720802307,1,"updated stim.csv","Version1.csv","Version 1","List 1","tonic",NA,27,5.434782609,1877,0.096670334,28,"BOI","-","-","Please name all of the ways you could use this object. Keep in mind that one object can have many uses. Separate your responses with a comma.",NA,"y",7123,NA,NA,1716,5931,NA,NA,NA,"drink, mix, display",1
"5eadf7371f8db74abecd535f","q9r3rw0idm","Affordance Norms_Prolific",1,26,"2023-07-28T16:31:27+00:00",16.919103860855,1,"updated stim.csv","Version1.csv","Version 1","List 1","bully",NA,20,5.458333333,2953,0.249710528,21,"BOI","-","-","Please name all of the ways you could use this object. Keep in mind that one object can have many uses. Separate your responses with a comma.",NA,"y",16351,NA,NA,2366,13231,NA,NA,NA,"ignore, hit",1
"5eadf7371f8db74abecd535f","q9r3rw0idm","Affordance Norms_Prolific",1,27,"2023-07-28T16:31:32+00:00",4.5297050476074,1,"updated stim.csv","Version1.csv","Version 1","List 1","turbin",NA,16,5.565217391,1319,0.287274537,17,"BOI","-","-","Please name all of the ways you could use this object. Keep in mind that one object can have many uses. Separate your responses with a comma.",NA,"y",4160,NA,NA,1193,2248,NA,NA,NA,"wear",1
"5eadf7371f8db74abecd535f","q9r3rw0idm","Affordance Norms_Prolific",1,28,"2023-07-28T16:31:42+00:00",10.058687925339,1,"updated stim.csv","Version1.csv","Version 1","List 1","leather",NA,29,5.88,1967,0.018459114,30,"BOI","-","-","Please name all of the ways you could use this object. Keep in mind that one object can have many uses. Separate your responses with a comma.",NA,"y",8978,NA,NA,1123,8178,NA,NA,NA,"wear, make with, tan",1
"5eadf7371f8db74abecd535f","q9r3rw0idm","Affordance Norms_Prolific",1,29,"2023-07-28T16:31:50+00:00",8.1805241107941,1,"updated stim.csv","Version1.csv","Version 1","List 1","ham",NA,28,5.142857143,2618,0.332046282,29,"BOI","-","-","Please name all of the ways you could use this object. Keep in mind that one object can have many uses. Separate your responses with a comma.",NA,"y",7764,NA,NA,1117,5603,NA,NA,NA,"eat, cook, bake, glaze",1
"5eadf7371f8db74abecd535f","q9r3rw0idm","Affordance Norms_Prolific",1,30,"2023-07-28T16:32:08+00:00",17.3298869133,1,"updated stim.csv","Version1.csv","Version 1","List 1","cattle",NA,25,4.333333333,252,0.347548191,26,"BOI","-","-","Please name all of the ways you could use this object. Keep in mind that one object can have many uses. Separate your responses with a comma.",NA,"y",16996,NA,NA,2171,15723,NA,NA,NA,"feed, herd, kill, milk",1
"5eadf7371f8db74abecd535f","q9r3rw0idm","Affordance Norms_Prolific",1,31,"2023-07-28T16:32:14+00:00",6.9429771900177,1,"updated stim.csv","Version1.csv","Version 1","List 1","tampon",NA,2,6.416666667,2301,0.945985105,3,"BOI","-","-","Please name all of the ways you could use this object. Keep in mind that one object can have many uses. Separate your responses with a comma.",NA,"y",6564,NA,NA,1493,5476,NA,NA,NA,"use, throw away, unwrap",1
"5eadf7371f8db74abecd535f","q9r3rw0idm","Affordance Norms_Prolific",1,32,"2023-07-28T16:32:28+00:00",13.547827005386,1,"updated stim.csv","Version1.csv","Version 1","List 1","timber",NA,10,6.25,323,0.73335018,11,"BOI","-","-","Please name all of the ways you could use this object. Keep in mind that one object can have many uses. Separate your responses with a comma.",NA,"y",12946,NA,NA,1388,12354,NA,NA,NA,"cut, mill, saw, build",1
"5eadf7371f8db74abecd535f","q9r3rw0idm","Affordance Norms_Prolific",1,33,"2023-07-28T16:32:38+00:00",10.122542858124,1,"updated stim.csv","Version1.csv","Version 1","List 1","nylon",NA,6,4.375,1389,0.172930083,7,"BOI","-","-","Please name all of the ways you could use this object. Keep in mind that one object can have many uses. Separate your responses with a comma.",NA,"y",9785,NA,NA,1234,8337,NA,NA,NA,"wear, make clothes",1
"5eadf7371f8db74abecd535f","q9r3rw0idm","Affordance Norms_Prolific",1,34,"2023-07-28T16:32:45+00:00",6.92511510849,1,"updated stim.csv","Version1.csv","Version 1","List 1","motor",NA,30,5.64,2491,0.148115672,31,"BOI","-","-","Please name all of the ways you could use this object. Keep in mind that one object can have many uses. Separate your responses with a comma.",NA,"y",6541,NA,NA,1790,4990,NA,NA,NA,"oil, repair, use",1
"5eadf7371f8db74abecd535f","q9r3rw0idm","Affordance Norms_Prolific",1,35,"2023-07-28T16:33:03+00:00",18.021944999695,1,"updated stim.csv","Version1.csv","Version 1","List 1","virgin",NA,19,5.227272727,1241,0.629851612,20,"BOI","-","-","Please name all of the ways you could use this object. Keep in mind that one object can have many uses. Separate your responses with a comma.",NA,"y",17665,NA,NA,15217,16537,NA,NA,NA,"have sex",1
"5eadf7371f8db74abecd535f","q9r3rw0idm","Affordance Norms_Prolific",1,36,"2023-07-28T16:33:10+00:00",6.5995960235596,1,"updated stim.csv","Version1.csv","Version 1","List 1","thong",NA,3,5.76,1666,0.330502966,4,"BOI","-","-","Please name all of the ways you could use this object. Keep in mind that one object can have many uses. Separate your responses with a comma.",NA,"y",6266,NA,NA,1011,5258,NA,NA,NA,"wear, pick wedgie out",1
"5eadf7371f8db74abecd535f","q9r3rw0idm","Affordance Norms_Prolific",1,37,"2023-07-28T16:33:15+00:00",4.9731769561768,1,"updated stim.csv","Version1.csv","Version 1","List 1","polyester",NA,11,5.92,2708,0.629763414,12,"BOI","-","-","Please name all of the ways you could use this object. Keep in mind that one object can have many uses. Separate your responses with a comma.",NA,"y",4618,NA,NA,979,3643,NA,NA,NA,"wear, make clothes",1
"5eadf7371f8db74abecd535f","q9r3rw0idm","Affordance Norms_Prolific",1,38,"2023-07-28T16:33:28+00:00",13.566509008408,1,"updated stim.csv","Version1.csv","Version 1","List 1","apparatus",NA,1,4.538461538,764,0.261476603,2,"BOI","-","-","Please name all of the ways you could use this object. Keep in mind that one object can have many uses. Separate your responses with a comma.",NA,"y",13222,NA,NA,10936,11757,NA,NA,NA,"anything",1
"5eadf7371f8db74abecd535f","q9r3rw0idm","Affordance Norms_Prolific",1,39,"2023-07-28T16:33:35+00:00",6.7813279628754,1,"updated stim.csv","Version1.csv","Version 1","List 1","tiller",NA,9,4.875,2448,0.423270691,10,"BOI","-","-","Please name all of the ways you could use this object. Keep in mind that one object can have many uses. Separate your responses with a comma.",NA,"y",6460,NA,NA,1566,4700,NA,NA,NA,"till, repair, oil",0.758
"5eadf7371f8db74abecd535f","q9r3rw0idm","Affordance Norms_Prolific",1,40,"2023-07-28T16:33:46+00:00",11.198683977127,1,"updated stim.csv","Version1.csv","Version 1","List 1","cardigan",NA,8,5.454545455,1935,0.125396232,9,"BOI","-","-","Please name all of the ways you could use this object. Keep in mind that one object can have many uses. Separate your responses with a comma.",NA,"y",10866,NA,NA,1180,9721,NA,NA,NA,"wear, clean, throw away, burn",1
"61074792728f0f9e791ad083","74itpzird1","Affordance Norms_Prolific",1,11,"2023-07-28T16:30:13+00:00",45.949113130569,1,"updated stim.csv","Version1.csv","Version 1","List 1","jurist",NA,24,5.347826087,469,0.48837589,25,"BOI","-","-","Please name all of the ways you could use this object. Keep in mind that one object can have many uses. Separate your responses with a comma.",NA,"y",45703,NA,NA,14735,44594,NA,NA,NA,"consult, pay, hire, fire ",1
"61074792728f0f9e791ad083","74itpzird1","Affordance Norms_Prolific",1,12,"2023-07-28T16:30:24+00:00",11.606185913086,1,"updated stim.csv","Version1.csv","Version 1","List 1","cardigan",NA,8,5.454545455,1935,0.125396232,9,"BOI","-","-","Please name all of the ways you could use this object. Keep in mind that one object can have many uses. Separate your responses with a comma.",NA,"y",11383,NA,NA,1368,10044,NA,NA,NA,"wear, fold, wash, dry, clean",1
"61074792728f0f9e791ad083","74itpzird1","Affordance Norms_Prolific",1,13,"2023-07-28T16:30:41+00:00",16.986665010452,1,"updated stim.csv","Version1.csv","Version 1","List 1","cattle",NA,25,4.333333333,252,0.347548191,26,"BOI","-","-","Please name all of the ways you could use this object. Keep in mind that one object can have many uses. Separate your responses with a comma.",NA,"y",16771,NA,NA,2763,14771,NA,NA,NA,"farm, eat, herd, milk, sell, trade",1
"61074792728f0f9e791ad083","74itpzird1","Affordance Norms_Prolific",1,14,"2023-07-28T16:31:24+00:00",42.503932952881,1,"updated stim.csv","Version1.csv","Version 1","List 1","virgin",NA,19,5.227272727,1241,0.629851612,20,"BOI","-","-","Please name all of the ways you could use this object. Keep in mind that one object can have many uses. Separate your responses with a comma.",NA,"y",42281,NA,NA,23244,35476,NA,NA,NA,"impregnate, ignore, chastise",1
"61074792728f0f9e791ad083","74itpzird1","Affordance Norms_Prolific",1,15,"2023-07-28T16:31:36+00:00",11.997753143311,1,"updated stim.csv","Version1.csv","Version 1","List 1","nylon",NA,6,4.375,1389,0.172930083,7,"BOI","-","-","Please name all of the ways you could use this object. Keep in mind that one object can have many uses. Separate your responses with a comma.",NA,"y",11753,NA,NA,1409,11436,NA,NA,NA,"wear, cut, sew, wash",1
"61074792728f0f9e791ad083","74itpzird1","Affordance Norms_Prolific",1,16,"2023-07-28T16:32:28+00:00",52.458365917206,1,"updated stim.csv","Version1.csv","Version 1","List 1","newlywed",NA,17,5.481481481,1600,0.476399064,18,"BOI","-","-","Please name all of the ways you could use this object. Keep in mind that one object can have many uses. Separate your responses with a comma.",NA,"y",52204,NA,NA,7833,51246,NA,NA,NA,"economic gain, hotel reservation, sell flowers to, sell champagne to",1
"61074792728f0f9e791ad083","74itpzird1","Affordance Norms_Prolific",1,17,"2023-07-28T16:32:48+00:00",19.588147878647,1,"updated stim.csv","Version1.csv","Version 1","List 1","timber",NA,10,6.25,323,0.73335018,11,"BOI","-","-","Please name all of the ways you could use this object. Keep in mind that one object can have many uses. Separate your responses with a comma.",NA,"y",19328,NA,NA,1246,18058,NA,NA,NA,"cut, mill, saw, grow, buy, sell",1
"61074792728f0f9e791ad083","74itpzird1","Affordance Norms_Prolific",1,18,"2023-07-28T16:32:58+00:00",10.592650175095,1,"updated stim.csv","Version1.csv","Version 1","List 1","apparatus",NA,1,4.538461538,764,0.261476603,2,"BOI","-","-","Please name all of the ways you could use this object. Keep in mind that one object can have many uses. Separate your responses with a comma.",NA,"y",10351,NA,NA,2529,10133,NA,NA,NA,"use, buy, sell, fix, break",1
"61074792728f0f9e791ad083","74itpzird1","Affordance Norms_Prolific",1,19,"2023-07-28T16:33:12+00:00",13.623925924301,1,"updated stim.csv","Version1.csv","Version 1","List 1","leather",NA,29,5.88,1967,0.018459114,30,"BOI","-","-","Please name all of the ways you could use this object. Keep in mind that one object can have many uses. Separate your responses with a comma.",NA,"y",13353,NA,NA,1704,12997,NA,NA,NA,"wear, weave, shine, polish, cut, buy, sell",1
"61074792728f0f9e791ad083","74itpzird1","Affordance Norms_Prolific",1,20,"2023-07-28T16:33:31+00:00",19.355201005936,1,"updated stim.csv","Version1.csv","Version 1","List 1","motor",NA,30,5.64,2491,0.148115672,31,"BOI","-","-","Please name all of the ways you could use this object. Keep in mind that one object can have many uses. Separate your responses with a comma.",NA,"y",19088,NA,NA,11143,18156,NA,NA,NA,"to drive, to propel, to power",1
"61074792728f0f9e791ad083","74itpzird1","Affordance Norms_Prolific",1,21,"2023-07-28T16:33:53+00:00",21.657461881638,1,"updated stim.csv","Version1.csv","Version 1","List 1","tonic",NA,27,5.434782609,1877,0.096670334,28,"BOI","-","-","Please name all of the ways you could use this object. Keep in mind that one object can have many uses. Separate your responses with a comma.",NA,"y",21383,NA,NA,2018,21113,NA,NA,NA,"to mix, to fix, to dilute, to cure",1
"61074792728f0f9e791ad083","74itpzird1","Affordance Norms_Prolific",1,22,"2023-07-28T16:34:05+00:00",12.018248081207,1,"updated stim.csv","Version1.csv","Version 1","List 1","polyester",NA,11,5.92,2708,0.629763414,12,"BOI","-","-","Please name all of the ways you could use this object. Keep in mind that one object can have many uses. Separate your responses with a comma.",NA,"y",11766,NA,NA,2026,11220,NA,NA,NA,"wear, wash, make, sew, dry, cut",1
"61074792728f0f9e791ad083","74itpzird1","Affordance Norms_Prolific",1,23,"2023-07-28T16:34:17+00:00",11.592680931091,1,"updated stim.csv","Version1.csv","Version 1","List 1","stall",NA,18,4.666666667,1815,0.413937663,19,"BOI","-","-","Please name all of the ways you could use this object. Keep in mind that one object can have many uses. Separate your responses with a comma.",NA,"y",11319,NA,NA,2536,8524,NA,NA,NA,"store, stop",1
"61074792728f0f9e791ad083","74itpzird1","Affordance Norms_Prolific",1,24,"2023-07-28T16:34:41+00:00",24.855498075485,1,"updated stim.csv","Version1.csv","Version 1","List 1","tampon",NA,2,6.416666667,2301,0.945985105,3,"BOI","-","-","Please name all of the ways you could use this object. Keep in mind that one object can have many uses. Separate your responses with a comma.",NA,"y",24587,NA,NA,10969,24310,NA,NA,NA,"to dam, to embarrass, for economic gain",1
"61074792728f0f9e791ad083","74itpzird1","Affordance Norms_Prolific",1,25,"2023-07-28T16:34:54+00:00",12.912192106247,1,"updated stim.csv","Version1.csv","Version 1","List 1","mitt",NA,22,4.826086957,1618,0.113902737,23,"BOI","-","-","Please name all of the ways you could use this object. Keep in mind that one object can have many uses. Separate your responses with a comma.",NA,"y",12631,NA,NA,2267,10934,NA,NA,NA,"catch, scoop, hold",1
"61074792728f0f9e791ad083","74itpzird1","Affordance Norms_Prolific",1,26,"2023-07-28T16:35:34+00:00",39.644543886185,1,"updated stim.csv","Version1.csv","Version 1","List 1","tiller",NA,9,4.875,2448,0.423270691,10,"BOI","-","-","Please name all of the ways you could use this object. Keep in mind that one object can have many uses. Separate your responses with a comma.",NA,"y",39368,NA,NA,2434,39139,NA,NA,NA,"break dirt, rotate, aerate, grow, plant",1
"61074792728f0f9e791ad083","74itpzird1","Affordance Norms_Prolific",1,27,"2023-07-28T16:36:04+00:00",30.049787998199,1,"updated stim.csv","Version1.csv","Version 1","List 1","plaintiff",NA,13,4.444444444,1011,0.860315666,14,"BOI","-","-","Please name all of the ways you could use this object. Keep in mind that one object can have many uses. Separate your responses with a comma.",NA,"y",29773,NA,NA,6340,29420,NA,NA,NA,"defeat, outsmart, elude",1
"61074792728f0f9e791ad083","74itpzird1","Affordance Norms_Prolific",1,28,"2023-07-28T16:36:17+00:00",13.236284017563,1,"updated stim.csv","Version1.csv","Version 1","List 1","bully",NA,20,5.458333333,2953,0.249710528,21,"BOI","-","-","Please name all of the ways you could use this object. Keep in mind that one object can have many uses. Separate your responses with a comma.",NA,"y",12945,NA,NA,3781,5728,NA,NA,NA,"life lessons",1
"61074792728f0f9e791ad083","74itpzird1","Affordance Norms_Prolific",1,29,"2023-07-28T16:36:52+00:00",34.863183021545,1,"updated stim.csv","Version1.csv","Version 1","List 1","dude",NA,4,5.416666667,1464,0.391267155,5,"BOI","-","-","Please name all of the ways you could use this object. Keep in mind that one object can have many uses. Separate your responses with a comma.",NA,"y",34583,NA,NA,9971,32767,NA,NA,NA,"fun, learning, experience, money, sex, drugs, companionship, procreation",1
"61074792728f0f9e791ad083","74itpzird1","Affordance Norms_Prolific",1,30,"2023-07-28T16:37:09+00:00",17.18106508255,1,"updated stim.csv","Version1.csv","Version 1","List 1","paperback",NA,7,6.230769231,308,0.981109369,8,"BOI","-","-","Please name all of the ways you could use this object. Keep in mind that one object can have many uses. Separate your responses with a comma.",NA,"y",16908,NA,NA,3409,13747,NA,NA,NA,"read, learn, think, expand, enjoy, impress",1
"61074792728f0f9e791ad083","74itpzird1","Affordance Norms_Prolific",1,31,"2023-07-28T16:37:25+00:00",15.855247974396,1,"updated stim.csv","Version1.csv","Version 1","List 1","pigtail",NA,5,5.833333333,1647,0.48521541,6,"BOI","-","-","Please name all of the ways you could use this object. Keep in mind that one object can have many uses. Separate your responses with a comma.",NA,"y",15593,NA,NA,2922,15153,NA,NA,NA,"pull, organize, fashion",1
"61074792728f0f9e791ad083","74itpzird1","Affordance Norms_Prolific",1,32,"2023-07-28T16:37:35+00:00",10.164726018906,1,"updated stim.csv","Version1.csv","Version 1","List 1","velvet",NA,15,4.666666667,1168,0.129741388,16,"BOI","-","-","Please name all of the ways you could use this object. Keep in mind that one object can have many uses. Separate your responses with a comma.",NA,"y",9890,NA,NA,1475,9133,NA,NA,NA,"feel, protect, design",1
"61074792728f0f9e791ad083","74itpzird1","Affordance Norms_Prolific",1,33,"2023-07-28T16:38:24+00:00",48.778223991394,1,"updated stim.csv","Version1.csv","Version 1","List 1","turbin",NA,16,5.565217391,1319,0.287274537,17,"BOI","-","-","Please name all of the ways you could use this object. Keep in mind that one object can have many uses. Separate your responses with a comma.",NA,"y",48493,NA,NA,15793,48224,NA,NA,NA,"god's approval, costume, movie set, fear, misunderstanding",1
"61074792728f0f9e791ad083","74itpzird1","Affordance Norms_Prolific",1,34,"2023-07-28T16:38:53+00:00",28.436076879501,1,"updated stim.csv","Version1.csv","Version 1","List 1","pup",NA,14,4.958333333,2722,0.368202979,15,"BOI","-","-","Please name all of the ways you could use this object. Keep in mind that one object can have many uses. Separate your responses with a comma.",NA,"y",28155,NA,NA,4999,26992,NA,NA,NA,"population, entertainment, amusement ",1
"61074792728f0f9e791ad083","74itpzird1","Affordance Norms_Prolific",1,35,"2023-07-28T16:38:59+00:00",6.5382211208344,1,"updated stim.csv","Version1.csv","Version 1","List 1","sheep",NA,26,4.727272727,2510,0.797812576,27,"BOI","-","-","Please name all of the ways you could use this object. Keep in mind that one object can have many uses. Separate your responses with a comma.",NA,"y",6266,NA,NA,1634,5883,NA,NA,NA,"wool, milk, food",1
"61074792728f0f9e791ad083","74itpzird1","Affordance Norms_Prolific",1,36,"2023-07-28T16:39:12+00:00",13.349982976913,1,"updated stim.csv","Version1.csv","Version 1","List 1","ham",NA,28,5.142857143,2618,0.332046282,29,"BOI","-","-","Please name all of the ways you could use this object. Keep in mind that one object can have many uses. Separate your responses with a comma.",NA,"y",13064,NA,NA,2728,12812,NA,NA,NA,"breakfast, lunch, dinner",1
"61074792728f0f9e791ad083","74itpzird1","Affordance Norms_Prolific",1,37,"2023-07-28T16:39:38+00:00",25.982641935349,1,"updated stim.csv","Version1.csv","Version 1","List 1","panhandler",NA,12,5.777777778,2235,0.168486135,13,"BOI","-","-","Please name all of the ways you could use this object. Keep in mind that one object can have many uses. Separate your responses with a comma.",NA,"y",25709,NA,NA,16103,25207,NA,NA,NA,"express your social political views",1
"61074792728f0f9e791ad083","74itpzird1","Affordance Norms_Prolific",1,38,"2023-07-28T16:40:03+00:00",24.99117898941,1,"updated stim.csv","Version1.csv","Version 1","List 1","rat",NA,21,4.4,243,0.879020377,22,"BOI","-","-","Please name all of the ways you could use this object. Keep in mind that one object can have many uses. Separate your responses with a comma.",NA,"y",24678,NA,NA,5527,20146,NA,NA,NA,"as a pet, as a scapegoat",1
"61074792728f0f9e791ad083","74itpzird1","Affordance Norms_Prolific",1,39,"2023-07-28T16:40:35+00:00",31.985786914825,1,"updated stim.csv","Version1.csv","Version 1","List 1","cross",NA,23,4.84,1448,0.448711971,24,"BOI","-","-","Please name all of the ways you could use this object. Keep in mind that one object can have many uses. Separate your responses with a comma.",NA,"y",31667,NA,NA,7645,26753,NA,NA,NA,"to kill people, to show people your religion",1
"61074792728f0f9e791ad083","74itpzird1","Affordance Norms_Prolific",1,40,"2023-07-28T16:41:05+00:00",29.86593413353,1,"updated stim.csv","Version1.csv","Version 1","List 1","thong",NA,3,5.76,1666,0.330502966,4,"BOI","-","-","Please name all of the ways you could use this object. Keep in mind that one object can have many uses. Separate your responses with a comma.",NA,"y",29564,NA,NA,4936,29028,NA,NA,NA,"To give erections, to piss your mom off, attention, social status",1
"62fbe4c86d484357b6adbc36","r7adarxs1a","Affordance Norms_Prolific",1,11,"2023-07-28T16:29:57+00:00",13.984319925308,1,"updated stim.csv","Version1.csv","Version 1","List 1","panhandler",NA,12,5.777777778,2235,0.168486135,13,"BOI","-","-","Please name all of the ways you could use this object. Keep in mind that one object can have many uses. Separate your responses with a comma.",NA,"y",13393,NA,NA,12360,13156,NA,NA,NA,"begging",0.867
"62fbe4c86d484357b6adbc36","r7adarxs1a","Affordance Norms_Prolific",1,12,"2023-07-28T16:29:59+00:00",2.774178981781,1,"updated stim.csv","Version1.csv","Version 1","List 1","tampon",NA,2,6.416666667,2301,0.945985105,3,"BOI","-","-","Please name all of the ways you could use this object. Keep in mind that one object can have many uses. Separate your responses with a comma.",NA,"y",2435,NA,NA,1706,2233,NA,NA,NA,"female",1
"62fbe4c86d484357b6adbc36","r7adarxs1a","Affordance Norms_Prolific",1,13,"2023-07-28T16:30:02+00:00",3.1398620605469,1,"updated stim.csv","Version1.csv","Version 1","List 1","tiller",NA,9,4.875,2448,0.423270691,10,"BOI","-","-","Please name all of the ways you could use this object. Keep in mind that one object can have many uses. Separate your responses with a comma.",NA,"y",2835,NA,NA,1625,2406,NA,NA,NA,"shop?",1
"62fbe4c86d484357b6adbc36","r7adarxs1a","Affordance Norms_Prolific",1,14,"2023-07-28T16:30:04+00:00",1.7172329425812,1,"updated stim.csv","Version1.csv","Version 1","List 1","timber",NA,10,6.25,323,0.73335018,11,"BOI","-","-","Please name all of the ways you could use this object. Keep in mind that one object can have many uses. Separate your responses with a comma.",NA,"y",1414,NA,NA,922,1237,NA,NA,NA,"wood",1
"62fbe4c86d484357b6adbc36","r7adarxs1a","Affordance Norms_Prolific",1,15,"2023-07-28T16:30:09+00:00",4.3547608852386,1,"updated stim.csv","Version1.csv","Version 1","List 1","sheep",NA,26,4.727272727,2510,0.797812576,27,"BOI","-","-","Please name all of the ways you could use this object. Keep in mind that one object can have many uses. Separate your responses with a comma.",NA,"y",3951,NA,NA,2876,3734,NA,NA,NA,"farming",1
"62fbe4c86d484357b6adbc36","r7adarxs1a","Affordance Norms_Prolific",1,16,"2023-07-28T16:30:11+00:00",2.4935290813446,1,"updated stim.csv","Version1.csv","Version 1","List 1","cattle",NA,25,4.333333333,252,0.347548191,26,"BOI","-","-","Please name all of the ways you could use this object. Keep in mind that one object can have many uses. Separate your responses with a comma.",NA,"y",2186,NA,NA,1011,1990,NA,NA,NA,"farming",1
"62fbe4c86d484357b6adbc36","r7adarxs1a","Affordance Norms_Prolific",1,17,"2023-07-28T16:30:14+00:00",2.9479079246521,1,"updated stim.csv","Version1.csv","Version 1","List 1","newlywed",NA,17,5.481481481,1600,0.476399064,18,"BOI","-","-","Please name all of the ways you could use this object. Keep in mind that one object can have many uses. Separate your responses with a comma.",NA,"y",2634,NA,NA,1608,2419,NA,NA,NA,"marriage",1
"62fbe4c86d484357b6adbc36","r7adarxs1a","Affordance Norms_Prolific",1,18,"2023-07-28T16:30:17+00:00",3.4727170467377,1,"updated stim.csv","Version1.csv","Version 1","List 1","polyester",NA,11,5.92,2708,0.629763414,12,"BOI","-","-","Please name all of the ways you could use this object. Keep in mind that one object can have many uses. Separate your responses with a comma.",NA,"y",3159,NA,NA,1488,2907,NA,NA,NA,"wearing it",1
"62fbe4c86d484357b6adbc36","r7adarxs1a","Affordance Norms_Prolific",1,19,"2023-07-28T16:30:20+00:00",2.3644051551819,1,"updated stim.csv","Version1.csv","Version 1","List 1","motor",NA,30,5.64,2491,0.148115672,31,"BOI","-","-","Please name all of the ways you could use this object. Keep in mind that one object can have many uses. Separate your responses with a comma.",NA,"y",2060,NA,NA,1079,1910,NA,NA,NA,"driving",1
"62fbe4c86d484357b6adbc36","r7adarxs1a","Affordance Norms_Prolific",1,20,"2023-07-28T16:30:23+00:00",2.8333008289337,1,"updated stim.csv","Version1.csv","Version 1","List 1","velvet",NA,15,4.666666667,1168,0.129741388,16,"BOI","-","-","Please name all of the ways you could use this object. Keep in mind that one object can have many uses. Separate your responses with a comma.",NA,"y",2522,NA,NA,1659,2293,NA,NA,NA,"colour",1
"62fbe4c86d484357b6adbc36","r7adarxs1a","Affordance Norms_Prolific",1,21,"2023-07-28T16:30:26+00:00",3.7532200813293,1,"updated stim.csv","Version1.csv","Version 1","List 1","dude",NA,4,5.416666667,1464,0.391267155,5,"BOI","-","-","Please name all of the ways you could use this object. Keep in mind that one object can have many uses. Separate your responses with a comma.",NA,"y",3438,NA,NA,1762,3142,NA,NA,NA,"male friend",1
"62fbe4c86d484357b6adbc36","r7adarxs1a","Affordance Norms_Prolific",1,22,"2023-07-28T16:30:33+00:00",6.9961709976196,1,"updated stim.csv","Version1.csv","Version 1","List 1","apparatus",NA,1,4.538461538,764,0.261476603,2,"BOI","-","-","Please name all of the ways you could use this object. Keep in mind that one object can have many uses. Separate your responses with a comma.",NA,"y",6422,NA,NA,4144,6333,NA,NA,NA,"activities",1
"62fbe4c86d484357b6adbc36","r7adarxs1a","Affordance Norms_Prolific",1,23,"2023-07-28T16:30:37+00:00",3.5449450016022,1,"updated stim.csv","Version1.csv","Version 1","List 1","cross",NA,23,4.84,1448,0.448711971,24,"BOI","-","-","Please name all of the ways you could use this object. Keep in mind that one object can have many uses. Separate your responses with a comma.",NA,"y",3223,NA,NA,2490,2924,NA,NA,NA,"angry",1
"62fbe4c86d484357b6adbc36","r7adarxs1a","Affordance Norms_Prolific",1,24,"2023-07-28T16:30:49+00:00",11.797626018524,1,"updated stim.csv","Version1.csv","Version 1","List 1","paperback",NA,7,6.230769231,308,0.981109369,8,"BOI","-","-","Please name all of the ways you could use this object. Keep in mind that one object can have many uses. Separate your responses with a comma.",NA,"y",11237,NA,NA,10248,10856,NA,NA,NA,"read",1
"62fbe4c86d484357b6adbc36","r7adarxs1a","Affordance Norms_Prolific",1,25,"2023-07-28T16:30:52+00:00",3.6268429756165,1,"updated stim.csv","Version1.csv","Version 1","List 1","leather",NA,29,5.88,1967,0.018459114,30,"BOI","-","-","Please name all of the ways you could use this object. Keep in mind that one object can have many uses. Separate your responses with a comma.",NA,"y",3318,NA,NA,2366,3011,NA,NA,NA,"wear",1
"62fbe4c86d484357b6adbc36","r7adarxs1a","Affordance Norms_Prolific",1,26,"2023-07-28T16:30:55+00:00",2.4320509433746,1,"updated stim.csv","Version1.csv","Version 1","List 1","ham",NA,28,5.142857143,2618,0.332046282,29,"BOI","-","-","Please name all of the ways you could use this object. Keep in mind that one object can have many uses. Separate your responses with a comma.",NA,"y",2124,NA,NA,1273,1798,NA,NA,NA,"eat",1
"62fbe4c86d484357b6adbc36","r7adarxs1a","Affordance Norms_Prolific",1,27,"2023-07-28T16:30:57+00:00",2.5624670982361,1,"updated stim.csv","Version1.csv","Version 1","List 1","cardigan",NA,8,5.454545455,1935,0.125396232,9,"BOI","-","-","Please name all of the ways you could use this object. Keep in mind that one object can have many uses. Separate your responses with a comma.",NA,"y",2256,NA,NA,1273,1864,NA,NA,NA,"wear",1
"62fbe4c86d484357b6adbc36","r7adarxs1a","Affordance Norms_Prolific",1,28,"2023-07-28T16:33:03+00:00",125.68708300591,1,"updated stim.csv","Version1.csv","Version 1","List 1","virgin",NA,19,5.227272727,1241,0.629851612,20,"BOI","-","-","Please name all of the ways you could use this object. Keep in mind that one object can have many uses. Separate your responses with a comma.",NA,"y",125095,NA,NA,124521,124815,NA,NA,NA,"mary",1
"62fbe4c86d484357b6adbc36","r7adarxs1a","Affordance Norms_Prolific",1,29,"2023-07-28T16:33:08+00:00",5.0323970317841,1,"updated stim.csv","Version1.csv","Version 1","List 1","turbin",NA,16,5.565217391,1319,0.287274537,17,"BOI","-","-","Please name all of the ways you could use this object. Keep in mind that one object can have many uses. Separate your responses with a comma.",NA,"y",4706,NA,NA,1646,4514,NA,NA,NA,"religious",1
"62fbe4c86d484357b6adbc36","r7adarxs1a","Affordance Norms_Prolific",1,30,"2023-07-28T16:33:10+00:00",2.3203899860382,1,"updated stim.csv","Version1.csv","Version 1","List 1","jurist",NA,24,5.347826087,469,0.48837589,25,"BOI","-","-","Please name all of the ways you could use this object. Keep in mind that one object can have many uses. Separate your responses with a comma.",NA,"y",2014,NA,NA,1113,1865,NA,NA,NA,"unsure",1
"62fbe4c86d484357b6adbc36","r7adarxs1a","Affordance Norms_Prolific",1,31,"2023-07-28T16:33:16+00:00",5.0972728729248,1,"updated stim.csv","Version1.csv","Version 1","List 1","bully",NA,20,5.458333333,2953,0.249710528,21,"BOI","-","-","Please name all of the ways you could use this object. Keep in mind that one object can have many uses. Separate your responses with a comma.",NA,"y",4784,NA,NA,1685,3854,NA,NA,NA,"hurting someone",1
"62fbe4c86d484357b6adbc36","r7adarxs1a","Affordance Norms_Prolific",1,32,"2023-07-28T16:33:18+00:00",2.6047661304474,1,"updated stim.csv","Version1.csv","Version 1","List 1","pup",NA,14,4.958333333,2722,0.368202979,15,"BOI","-","-","Please name all of the ways you could use this object. Keep in mind that one object can have many uses. Separate your responses with a comma.",NA,"y",2297,NA,NA,1811,2028,NA,NA,NA,"dog",1
"62fbe4c86d484357b6adbc36","r7adarxs1a","Affordance Norms_Prolific",1,33,"2023-07-28T16:33:21+00:00",3.1341168880463,1,"updated stim.csv","Version1.csv","Version 1","List 1","tonic",NA,27,5.434782609,1877,0.096670334,28,"BOI","-","-","Please name all of the ways you could use this object. Keep in mind that one object can have many uses. Separate your responses with a comma.",NA,"y",2825,NA,NA,1425,2566,NA,NA,NA,"drink gin",1
"62fbe4c86d484357b6adbc36","r7adarxs1a","Affordance Norms_Prolific",1,34,"2023-07-28T16:33:26+00:00",4.6899900436401,1,"updated stim.csv","Version1.csv","Version 1","List 1","stall",NA,18,4.666666667,1815,0.413937663,19,"BOI","-","-","Please name all of the ways you could use this object. Keep in mind that one object can have many uses. Separate your responses with a comma.",NA,"y",4378,NA,NA,1962,3942,NA,NA,NA,"sitting down",1
"62fbe4c86d484357b6adbc36","r7adarxs1a","Affordance Norms_Prolific",1,35,"2023-07-28T16:33:28+00:00",2.3670139312744,1,"updated stim.csv","Version1.csv","Version 1","List 1","thong",NA,3,5.76,1666,0.330502966,4,"BOI","-","-","Please name all of the ways you could use this object. Keep in mind that one object can have many uses. Separate your responses with a comma.",NA,"y",2054,NA,NA,1067,1863,NA,NA,NA,"wearing",1
"62fbe4c86d484357b6adbc36","r7adarxs1a","Affordance Norms_Prolific",1,36,"2023-07-28T16:33:31+00:00",2.5416021347046,1,"updated stim.csv","Version1.csv","Version 1","List 1","nylon",NA,6,4.375,1389,0.172930083,7,"BOI","-","-","Please name all of the ways you could use this object. Keep in mind that one object can have many uses. Separate your responses with a comma.",NA,"y",2234,NA,NA,1277,2028,NA,NA,NA,"wearing",1
"62fbe4c86d484357b6adbc36","r7adarxs1a","Affordance Norms_Prolific",1,37,"2023-07-28T16:33:36+00:00",5.1052968502045,1,"updated stim.csv","Version1.csv","Version 1","List 1","plaintiff",NA,13,4.444444444,1011,0.860315666,14,"BOI","-","-","Please name all of the ways you could use this object. Keep in mind that one object can have many uses. Separate your responses with a comma.",NA,"y",4785,NA,NA,4037,4599,NA,NA,NA,"justic",1
"62fbe4c86d484357b6adbc36","r7adarxs1a","Affordance Norms_Prolific",1,38,"2023-07-28T16:33:40+00:00",3.9942421913147,1,"updated stim.csv","Version1.csv","Version 1","List 1","rat",NA,21,4.4,243,0.879020377,22,"BOI","-","-","Please name all of the ways you could use this object. Keep in mind that one object can have many uses. Separate your responses with a comma.",NA,"y",3679,NA,NA,2926,3504,NA,NA,NA,"rodent",1
"62fbe4c86d484357b6adbc36","r7adarxs1a","Affordance Norms_Prolific",1,39,"2023-07-28T16:33:43+00:00",2.8242290019989,1,"updated stim.csv","Version1.csv","Version 1","List 1","pigtail",NA,5,5.833333333,1647,0.48521541,6,"BOI","-","-","Please name all of the ways you could use this object. Keep in mind that one object can have many uses. Separate your responses with a comma.",NA,"y",2506,NA,NA,1460,2275,NA,NA,NA,"hair",1
"62fbe4c86d484357b6adbc36","r7adarxs1a","Affordance Norms_Prolific",1,40,"2023-07-28T16:33:45+00:00",2.0789649486542,1,"updated stim.csv","Version1.csv","Version 1","List 1","mitt",NA,22,4.826086957,1618,0.113902737,23,"BOI","-","-","Please name all of the ways you could use this object. Keep in mind that one object can have many uses. Separate your responses with a comma.",NA,"y",1769,NA,NA,1062,1402,NA,NA,NA,"oven",1
