"Username","ID","ExperimentName","Session","Trial","Date","TimeDif","Condition.Number","Stimuli.File","Order.File","Condition.Description","Condition.Notes","Stimuli.Cue","Stimuli.Answer","Stimuli.Shuffle","Stimuli.Stimuli.Notes","Stimuli.Value","Stimuli.Rand","Procedure.Item","Procedure.Trial.Type","Procedure.Max.Time","Procedure.Min.Time","Procedure.Text","Procedure.Procedure.Notes","Procedure.Shuffle","Response.RT","Response.Response","Response.Accuracy","Response.RTfirst","Response.RTlast","Response.strictAcc","Response.lenientAcc","Response.focus","Response.JOL","Response.Focus"
"55057a56fdf99b5b566a70bb","nweq4s52pf","Affordance Norms_Prolific",1,11,"2023-05-12T21:06:24+00:00",40.696795940399,59,"updated stim.csv","Version59.csv","Version 59","List 59","triceps",NA,1758,5.52,2774,0.029767692,1759,"BOI","-","-","Please name all of the ways you could use this object. Keep in mind that one object can have many uses. Separate your responses with a comma.",NA,"y",39367,NA,NA,7609,37187,NA,NA,NA,"stretch, contract, bulge, squeeze",1
"55057a56fdf99b5b566a70bb","nweq4s52pf","Affordance Norms_Prolific",1,12,"2023-05-12T21:06:57+00:00",32.770285129547,59,"updated stim.csv","Version59.csv","Version 59","List 59","stagecoach",NA,1769,4.538461538,2498,0.60122922,1770,"BOI","-","-","Please name all of the ways you could use this object. Keep in mind that one object can have many uses. Separate your responses with a comma.",NA,"y",31777,NA,NA,5040,29455,NA,NA,NA,"travel, post items, burn the wood, sell, sleep in, rent out",1
"55057a56fdf99b5b566a70bb","nweq4s52pf","Affordance Norms_Prolific",1,13,"2023-05-12T21:07:41+00:00",43.798382043839,59,"updated stim.csv","Version59.csv","Version 59","List 59","shoehorn",NA,1770,5.75,2350,0.543116011,1771,"BOI","-","-","Please name all of the ways you could use this object. Keep in mind that one object can have many uses. Separate your responses with a comma.",NA,"y",43114,NA,NA,4518,36504,NA,NA,NA,"put on shoes, take shoes off, weapon, scoop",1
"55057a56fdf99b5b566a70bb","nweq4s52pf","Affordance Norms_Prolific",1,14,"2023-05-12T21:08:11+00:00",30.191226959229,59,"updated stim.csv","Version59.csv","Version 59","List 59","midwife",NA,1757,5,1659,0.497275333,1758,"BOI","-","-","Please name all of the ways you could use this object. Keep in mind that one object can have many uses. Separate your responses with a comma.",NA,"y",29618,NA,NA,8964,23877,NA,NA,NA,"help give birth, get advice from, talk to, teach others",1
"55057a56fdf99b5b566a70bb","nweq4s52pf","Affordance Norms_Prolific",1,15,"2023-05-12T21:08:43+00:00",32.5696849823,59,"updated stim.csv","Version59.csv","Version 59","List 59","statuette",NA,1750,4.739130435,2514,0.930875652,1751,"BOI","-","-","Please name all of the ways you could use this object. Keep in mind that one object can have many uses. Separate your responses with a comma.",NA,"y",32070,NA,NA,2477,30722,NA,NA,NA,"throw it, admire it, sell it, buy it, copy it, paperweight, gift it",1
"55057a56fdf99b5b566a70bb","nweq4s52pf","Affordance Norms_Prolific",1,16,"2023-05-12T21:09:13+00:00",29.394865036011,59,"updated stim.csv","Version59.csv","Version 59","List 59","soccer",NA,1766,4.64,2438,0.415669367,1767,"BOI","-","-","Please name all of the ways you could use this object. Keep in mind that one object can have many uses. Separate your responses with a comma.",NA,"y",27883,NA,NA,5863,20354,NA,NA,NA,"play it, teach it, watch it, bet on it, study it",1
"55057a56fdf99b5b566a70bb","nweq4s52pf","Affordance Norms_Prolific",1,17,"2023-05-12T21:09:51+00:00",38.523102998734,59,"updated stim.csv","Version59.csv","Version 59","List 59","axes",NA,1764,4.833333333,107,0.618408666,1765,"BOI","-","-","Please name all of the ways you could use this object. Keep in mind that one object can have many uses. Separate your responses with a comma.",NA,"y",37737,NA,NA,5337,31884,NA,NA,NA,"chop wood, chop down tree, weapon, swing it, bury it, buy it, sell it, sharpen it",1
"55057a56fdf99b5b566a70bb","nweq4s52pf","Affordance Norms_Prolific",1,18,"2023-05-12T21:10:28+00:00",36.845761060715,59,"updated stim.csv","Version59.csv","Version 59","List 59","honeysuckle",NA,1759,5.375,1305,0.241027144,1760,"BOI","-","-","Please name all of the ways you could use this object. Keep in mind that one object can have many uses. Separate your responses with a comma.",NA,"y",36397,NA,NA,2880,34819,NA,NA,NA,"plant it, grow it, sell it, prune it, gift it, harvest it, smell it, draw it",1
"55057a56fdf99b5b566a70bb","nweq4s52pf","Affordance Norms_Prolific",1,19,"2023-05-12T21:11:12+00:00",44.268266916275,59,"updated stim.csv","Version59.csv","Version 59","List 59","diploma",NA,1746,5.96,798,0.946243713,1747,"BOI","-","-","Please name all of the ways you could use this object. Keep in mind that one object can have many uses. Separate your responses with a comma.",NA,"y",43822,NA,NA,10110,14211,NA,NA,NA,"frame it, get a job",1
"55057a56fdf99b5b566a70bb","nweq4s52pf","Affordance Norms_Prolific",1,20,"2023-05-12T21:11:41+00:00",28.538162946701,59,"updated stim.csv","Version59.csv","Version 59","List 59","musician",NA,1744,4.47826087,1724,0.807811062,1745,"BOI","-","-","Please name all of the ways you could use this object. Keep in mind that one object can have many uses. Separate your responses with a comma.",NA,"y",28048,NA,NA,2958,25283,NA,NA,NA,"play with them, learn from them, watch them, record them, request songs",1
"55057a56fdf99b5b566a70bb","nweq4s52pf","Affordance Norms_Prolific",1,21,"2023-05-12T21:12:06+00:00",25.196443080902,59,"updated stim.csv","Version59.csv","Version 59","List 59","beautician",NA,1760,4.608695652,183,0.543328676,1761,"BOI","-","-","Please name all of the ways you could use this object. Keep in mind that one object can have many uses. Separate your responses with a comma.",NA,"y",24754,NA,NA,5032,12604,NA,NA,NA,"learn from them, buy services",1
"55057a56fdf99b5b566a70bb","nweq4s52pf","Affordance Norms_Prolific",1,22,"2023-05-12T21:12:58+00:00",51.417858839035,59,"updated stim.csv","Version59.csv","Version 59","List 59","beret",NA,1742,5.695652174,204,0.534744098,1743,"BOI","-","-","Please name all of the ways you could use this object. Keep in mind that one object can have many uses. Separate your responses with a comma.",NA,"y",50949,NA,NA,1887,49502,NA,NA,NA,"wear it, throw it, gift it, buy it, sell it, storage bag, filter water, sun hat",1
"55057a56fdf99b5b566a70bb","nweq4s52pf","Affordance Norms_Prolific",1,23,"2023-05-12T21:13:28+00:00",30.746081113815,59,"updated stim.csv","Version59.csv","Version 59","List 59","belongings",NA,1753,5.173913043,201,0.384209393,1754,"BOI","-","-","Please name all of the ways you could use this object. Keep in mind that one object can have many uses. Separate your responses with a comma.",NA,"y",30290,NA,NA,4201,24792,NA,NA,NA,"save them, use them, display them, sell them, insure them, trade them",1
"55057a56fdf99b5b566a70bb","nweq4s52pf","Affordance Norms_Prolific",1,24,"2023-05-12T21:13:55+00:00",27.037719011307,59,"updated stim.csv","Version59.csv","Version 59","List 59","softball",NA,1761,5.75,2444,0.483229766,1762,"BOI","-","-","Please name all of the ways you could use this object. Keep in mind that one object can have many uses. Separate your responses with a comma.",NA,"y",26625,NA,NA,2190,23188,NA,NA,NA,"throw it, bounce it, drop it, pick it up, roll it, hit it",1
"55057a56fdf99b5b566a70bb","nweq4s52pf","Affordance Norms_Prolific",1,25,"2023-05-12T21:14:44+00:00",48.370982885361,59,"updated stim.csv","Version59.csv","Version 59","List 59","runner",NA,1768,4.608695652,2207,0.70961419,1769,"BOI","-","-","Please name all of the ways you could use this object. Keep in mind that one object can have many uses. Separate your responses with a comma.",NA,"y",47922,NA,NA,6455,39540,NA,NA,NA,"run errands, learn from them, talk to them, chase them",1
"55057a56fdf99b5b566a70bb","nweq4s52pf","Affordance Norms_Prolific",1,26,"2023-05-12T21:15:14+00:00",30.147550106049,59,"updated stim.csv","Version59.csv","Version 59","List 59","whip",NA,1754,5,2925,0.659916917,1755,"BOI","-","-","Please name all of the ways you could use this object. Keep in mind that one object can have many uses. Separate your responses with a comma.",NA,"y",29583,NA,NA,3267,19998,NA,NA,NA,"hit, wrap around things, pull things with it",1
"55057a56fdf99b5b566a70bb","nweq4s52pf","Affordance Norms_Prolific",1,27,"2023-05-12T21:15:41+00:00",27.543922901154,59,"updated stim.csv","Version59.csv","Version 59","List 59","surgeon",NA,1748,5,2595,0.062436921,1749,"BOI","-","-","Please name all of the ways you could use this object. Keep in mind that one object can have many uses. Separate your responses with a comma.",NA,"y",27118,NA,NA,7285,23771,NA,NA,NA,"learn things, get a surgery, get advice, save a loved one",1
"55057a56fdf99b5b566a70bb","nweq4s52pf","Affordance Norms_Prolific",1,28,"2023-05-12T21:16:02+00:00",20.9167740345,59,"updated stim.csv","Version59.csv","Version 59","List 59","bullet",NA,1741,5.772727273,353,0.384139642,1742,"BOI","-","-","Please name all of the ways you could use this object. Keep in mind that one object can have many uses. Separate your responses with a comma.",NA,"y",20421,NA,NA,2315,13733,NA,NA,NA,"shoot it, throw it, melt it, take it apart",1
"55057a56fdf99b5b566a70bb","nweq4s52pf","Affordance Norms_Prolific",1,29,"2023-05-12T21:16:34+00:00",31.954575061798,59,"updated stim.csv","Version59.csv","Version 59","List 59","holder",NA,1767,4.28,1296,0.95017996,1768,"BOI","-","-","Please name all of the ways you could use this object. Keep in mind that one object can have many uses. Separate your responses with a comma.",NA,"y",31498,NA,NA,7507,29886,NA,NA,NA,"hold things, scoop things, hold water, gift",1
"55057a56fdf99b5b566a70bb","nweq4s52pf","Affordance Norms_Prolific",1,30,"2023-05-12T21:16:57+00:00",23.080394029617,59,"updated stim.csv","Version59.csv","Version 59","List 59","outhouse",NA,1755,4.64,1829,0.122401729,1756,"BOI","-","-","Please name all of the ways you could use this object. Keep in mind that one object can have many uses. Separate your responses with a comma.",NA,"y",22638,NA,NA,2379,20951,NA,NA,NA,"storage, toilet, dismantle it, burn it, decorate it, share it",1
"55057a56fdf99b5b566a70bb","nweq4s52pf","Affordance Norms_Prolific",1,31,"2023-05-12T21:17:38+00:00",40.350610017776,59,"updated stim.csv","Version59.csv","Version 59","List 59","trolley",NA,1743,5.416666667,2780,0.015846997,1744,"BOI","-","-","Please name all of the ways you could use this object. Keep in mind that one object can have many uses. Separate your responses with a comma.",NA,"y",39909,NA,NA,2595,38681,NA,NA,NA,"roll it, fill it, push it, climb in it, take things home, park it somewhere",1
"55057a56fdf99b5b566a70bb","nweq4s52pf","Affordance Norms_Prolific",1,32,"2023-05-12T21:18:03+00:00",25.669915914536,59,"updated stim.csv","Version59.csv","Version 59","List 59","tenant",NA,1756,4.8,2662,0.79293781,1757,"BOI","-","-","Please name all of the ways you could use this object. Keep in mind that one object can have many uses. Separate your responses with a comma.",NA,"y",25214,NA,NA,8205,18992,NA,NA,NA,"charge rent, evict, make friends",1
"55057a56fdf99b5b566a70bb","nweq4s52pf","Affordance Norms_Prolific",1,33,"2023-05-12T21:18:30+00:00",26.133263111115,59,"updated stim.csv","Version59.csv","Version 59","List 59","stirrer",NA,1745,4.615384615,2537,0.139093933,1746,"BOI","-","-","Please name all of the ways you could use this object. Keep in mind that one object can have many uses. Separate your responses with a comma.",NA,"y",25658,NA,NA,1366,18857,NA,NA,NA,"stir things, poke things, wedge into things",1
"55057a56fdf99b5b566a70bb","nweq4s52pf","Affordance Norms_Prolific",1,34,"2023-05-12T21:18:56+00:00",26.211866855621,59,"updated stim.csv","Version59.csv","Version 59","List 59","electrocardiogram",NA,1752,4.347826087,898,0.132707639,1753,"BOI","-","-","Please name all of the ways you could use this object. Keep in mind that one object can have many uses. Separate your responses with a comma.",NA,"y",25744,NA,NA,4566,19733,NA,NA,NA,"get a scan, ask for advice about, frame",1
"55057a56fdf99b5b566a70bb","nweq4s52pf","Affordance Norms_Prolific",1,35,"2023-05-12T21:19:23+00:00",27.546880960464,59,"updated stim.csv","Version59.csv","Version 59","List 59","baggage",NA,1749,5.965517241,122,0.141549146,1750,"BOI","-","-","Please name all of the ways you could use this object. Keep in mind that one object can have many uses. Separate your responses with a comma.",NA,"y",27093,NA,NA,3830,25542,NA,NA,NA,"hold it, push it, travel with it, store things, swing it, hit with it, post it",1
"55057a56fdf99b5b566a70bb","nweq4s52pf","Affordance Norms_Prolific",1,36,"2023-05-12T21:19:50+00:00",27.13880610466,59,"updated stim.csv","Version59.csv","Version 59","List 59","knitting",NA,1751,4.304347826,1436,0.568372099,1752,"BOI","-","-","Please name all of the ways you could use this object. Keep in mind that one object can have many uses. Separate your responses with a comma.",NA,"y",26667,NA,NA,9427,25445,NA,NA,NA,"knit it, unravel it, wear it, rework it, gift it, sell it, teach others",1
"55057a56fdf99b5b566a70bb","nweq4s52pf","Affordance Norms_Prolific",1,37,"2023-05-12T21:20:10+00:00",19.492439031601,59,"updated stim.csv","Version59.csv","Version 59","List 59","tile",NA,1762,4.76,2697,0.15917771,1763,"BOI","-","-","Please name all of the ways you could use this object. Keep in mind that one object can have many uses. Separate your responses with a comma.",NA,"y",19044,NA,NA,2044,12520,NA,NA,NA,"weapon, tile something, serving plate, whiteboard",1
"55057a56fdf99b5b566a70bb","nweq4s52pf","Affordance Norms_Prolific",1,38,"2023-05-12T21:20:45+00:00",35.002749919891,59,"updated stim.csv","Version59.csv","Version 59","List 59","slush",NA,1763,4.541666667,2419,0.001805092,1764,"BOI","-","-","Please name all of the ways you could use this object. Keep in mind that one object can have many uses. Separate your responses with a comma.",NA,"y",34558,NA,NA,11903,26654,NA,NA,NA,"cool something, drink, throw, melt, freeze",1
"55057a56fdf99b5b566a70bb","nweq4s52pf","Affordance Norms_Prolific",1,39,"2023-05-12T21:21:22+00:00",36.778915166855,59,"updated stim.csv","Version59.csv","Version 59","List 59","attire",NA,1765,5.086956522,95,0.100168074,1766,"BOI","-","-","Please name all of the ways you could use this object. Keep in mind that one object can have many uses. Separate your responses with a comma.",NA,"y",36206,NA,NA,1614,34963,NA,NA,NA,"wear, sell, buy, lend, upcycle, decorate, filter liquid, warmth, modesty",1
"55057a56fdf99b5b566a70bb","nweq4s52pf","Affordance Norms_Prolific",1,40,"2023-05-12T21:21:59+00:00",36.785680770874,59,"updated stim.csv","Version59.csv","Version 59","List 59","eye",NA,1747,5.72,929,0.443037439,1748,"BOI","-","-","Please name all of the ways you could use this object. Keep in mind that one object can have many uses. Separate your responses with a comma.",NA,"y",36344,NA,NA,4172,34834,NA,NA,NA,"see, donate, rub, blink, stare, communicate",1
"5654166804212700054a12aa","gw8vwg96u2","Affordance Norms_Prolific",1,11,"2023-05-12T16:13:34+00:00",15.566493034363,46,"updated stim.csv","Version46.csv","Version 46","List 46","southerner",NA,1380,5.045454545,2456,0.243218069,1381,"BOI","-","-","Please name all of the ways you could use this object. Keep in mind that one object can have many uses. Separate your responses with a comma.",NA,"y",15236,NA,NA,3756,8330,NA,NA,NA,"coastal",1
"5654166804212700054a12aa","gw8vwg96u2","Affordance Norms_Prolific",1,12,"2023-05-12T16:13:57+00:00",22.88836479187,46,"updated stim.csv","Version46.csv","Version 46","List 46","antenna",NA,1353,4.695652174,46,0.233105274,1354,"BOI","-","-","Please name all of the ways you could use this object. Keep in mind that one object can have many uses. Separate your responses with a comma.",NA,"y",22559,NA,NA,3589,20300,NA,NA,NA,"television, radio, transmission, reception, walkie talkie, ",1
"5654166804212700054a12aa","gw8vwg96u2","Affordance Norms_Prolific",1,13,"2023-05-12T16:14:08+00:00",10.799935102463,46,"updated stim.csv","Version46.csv","Version 46","List 46","sword",NA,1355,5.461538462,2611,0.743789426,1356,"BOI","-","-","Please name all of the ways you could use this object. Keep in mind that one object can have many uses. Separate your responses with a comma.",NA,"y",10465,NA,NA,4890,8473,NA,NA,NA,"decoration, weapon",1
"5654166804212700054a12aa","gw8vwg96u2","Affordance Norms_Prolific",1,14,"2023-05-12T16:14:29+00:00",20.988248109818,46,"updated stim.csv","Version46.csv","Version 46","List 46","gardener",NA,1361,4.958333333,1077,0.252611858,1362,"BOI","-","-","Please name all of the ways you could use this object. Keep in mind that one object can have many uses. Separate your responses with a comma.",NA,"y",20552,NA,NA,4672,18970,NA,NA,NA,"mower, planter, horticulturist, weeder",1
"5654166804212700054a12aa","gw8vwg96u2","Affordance Norms_Prolific",1,15,"2023-05-12T16:14:46+00:00",16.969473838806,46,"updated stim.csv","Version46.csv","Version 46","List 46","handclasp",NA,1376,4.681818182,1235,0.118953714,1377,"BOI","-","-","Please name all of the ways you could use this object. Keep in mind that one object can have many uses. Separate your responses with a comma.",NA,"y",16653,NA,NA,3822,15107,NA,NA,NA,"shake, fasting, fist",1
"5654166804212700054a12aa","gw8vwg96u2","Affordance Norms_Prolific",1,16,"2023-05-12T16:14:53+00:00",7.3145909309387,46,"updated stim.csv","Version46.csv","Version 46","List 46","cornbread",NA,1371,5.16,645,0.328992842,1372,"BOI","-","-","Please name all of the ways you could use this object. Keep in mind that one object can have many uses. Separate your responses with a comma.",NA,"y",6991,NA,NA,4921,4921,NA,NA,NA,"?",1
"5654166804212700054a12aa","gw8vwg96u2","Affordance Norms_Prolific",1,17,"2023-05-12T16:15:13+00:00",19.58548617363,46,"updated stim.csv","Version46.csv","Version 46","List 46","remote",NA,1351,4.357142857,2154,0.539758417,1352,"BOI","-","-","Please name all of the ways you could use this object. Keep in mind that one object can have many uses. Separate your responses with a comma.",NA,"y",19269,NA,NA,2473,16353,NA,NA,NA,"television, radio, stero, distance",1
"5654166804212700054a12aa","gw8vwg96u2","Affordance Norms_Prolific",1,18,"2023-05-12T16:15:26+00:00",13.187728881836,46,"updated stim.csv","Version46.csv","Version 46","List 46","treasure",NA,1369,4.666666667,2770,0.74270849,1370,"BOI","-","-","Please name all of the ways you could use this object. Keep in mind that one object can have many uses. Separate your responses with a comma.",NA,"y",12747,NA,NA,1843,10688,NA,NA,NA,"gold, diamonds, bounty",1
"5654166804212700054a12aa","gw8vwg96u2","Affordance Norms_Prolific",1,19,"2023-05-12T16:15:42+00:00",16.289193153381,46,"updated stim.csv","Version46.csv","Version 46","List 46","footpad",NA,1370,5.041666667,1036,0.053650831,1371,"BOI","-","-","Please name all of the ways you could use this object. Keep in mind that one object can have many uses. Separate your responses with a comma.",NA,"y",15952,NA,NA,2104,13815,NA,NA,NA,"thief, shoe, insole",1
"5654166804212700054a12aa","gw8vwg96u2","Affordance Norms_Prolific",1,20,"2023-05-12T16:15:52+00:00",10.269903898239,46,"updated stim.csv","Version46.csv","Version 46","List 46","vitamin",NA,1357,5.2,2869,0.600548125,1358,"BOI","-","-","Please name all of the ways you could use this object. Keep in mind that one object can have many uses. Separate your responses with a comma.",NA,"y",9952,NA,NA,1687,8694,NA,NA,NA,"supplement, beneficial",1
"5654166804212700054a12aa","gw8vwg96u2","Affordance Norms_Prolific",1,21,"2023-05-12T16:16:05+00:00",12.953603029251,46,"updated stim.csv","Version46.csv","Version 46","List 46","mixer",NA,1359,5,1672,0.248643521,1360,"BOI","-","-","Please name all of the ways you could use this object. Keep in mind that one object can have many uses. Separate your responses with a comma.",NA,"y",12622,NA,NA,2255,9884,NA,NA,NA,"drink, cement, stirer, blender",1
"5654166804212700054a12aa","gw8vwg96u2","Affordance Norms_Prolific",1,22,"2023-05-12T16:16:18+00:00",13.106559991837,46,"updated stim.csv","Version46.csv","Version 46","List 46","washbowl",NA,1374,5.692307692,2897,0.33341444,1375,"BOI","-","-","Please name all of the ways you could use this object. Keep in mind that one object can have many uses. Separate your responses with a comma.",NA,"y",12723,NA,NA,3567,11478,NA,NA,NA,"container, washing up",1
"5654166804212700054a12aa","gw8vwg96u2","Affordance Norms_Prolific",1,23,"2023-05-12T16:16:30+00:00",11.248602867126,46,"updated stim.csv","Version46.csv","Version 46","List 46","pompom",NA,1378,5.16,2027,0.794000426,1379,"BOI","-","-","Please name all of the ways you could use this object. Keep in mind that one object can have many uses. Separate your responses with a comma.",NA,"y",10811,NA,NA,4917,7652,NA,NA,NA,"cheerleading",1
"5654166804212700054a12aa","gw8vwg96u2","Affordance Norms_Prolific",1,24,"2023-05-12T16:16:53+00:00",23.129813194275,46,"updated stim.csv","Version46.csv","Version 46","List 46","interviewer",NA,1356,4.75,1365,0.256617028,1357,"BOI","-","-","Please name all of the ways you could use this object. Keep in mind that one object can have many uses. Separate your responses with a comma.",NA,"y",22799,NA,NA,2865,21575,NA,NA,NA,"questioning, speaker, orator",1
"5654166804212700054a12aa","gw8vwg96u2","Affordance Norms_Prolific",1,25,"2023-05-12T16:17:15+00:00",22.040050029755,46,"updated stim.csv","Version46.csv","Version 46","List 46","drainpipe",NA,1364,4.875,837,0.225607726,1365,"BOI","-","-","Please name all of the ways you could use this object. Keep in mind that one object can have many uses. Separate your responses with a comma.",NA,"y",21710,NA,NA,3289,18552,NA,NA,NA,"water channel, waste carrier",1
"5654166804212700054a12aa","gw8vwg96u2","Affordance Norms_Prolific",1,26,"2023-05-12T16:17:23+00:00",8.4179549217224,46,"updated stim.csv","Version46.csv","Version 46","List 46","flute",NA,1367,5.75,1019,0.500044032,1368,"BOI","-","-","Please name all of the ways you could use this object. Keep in mind that one object can have many uses. Separate your responses with a comma.",NA,"y",8092,NA,NA,1831,6144,NA,NA,NA,"instrument, music maker",1
"5654166804212700054a12aa","gw8vwg96u2","Affordance Norms_Prolific",1,27,"2023-05-12T16:17:36+00:00",12.358408927917,46,"updated stim.csv","Version46.csv","Version 46","List 46","paper",NA,1375,5.695652174,1862,0.888785429,1376,"BOI","-","-","Please name all of the ways you could use this object. Keep in mind that one object can have many uses. Separate your responses with a comma.",NA,"y",11915,NA,NA,2635,10087,NA,NA,NA,"writing, origami, news",1
"5654166804212700054a12aa","gw8vwg96u2","Affordance Norms_Prolific",1,28,"2023-05-12T16:17:54+00:00",18.596137046814,46,"updated stim.csv","Version46.csv","Version 46","List 46","muscle",NA,1354,5.12,1721,0.267441686,1355,"BOI","-","-","Please name all of the ways you could use this object. Keep in mind that one object can have many uses. Separate your responses with a comma.",NA,"y",18262,NA,NA,7091,16420,NA,NA,NA,"lifting, strength",1
"5654166804212700054a12aa","gw8vwg96u2","Affordance Norms_Prolific",1,29,"2023-05-12T16:18:07+00:00",13.00880408287,46,"updated stim.csv","Version46.csv","Version 46","List 46","chairman",NA,1372,4.965517241,486,0.91581293,1373,"BOI","-","-","Please name all of the ways you could use this object. Keep in mind that one object can have many uses. Separate your responses with a comma.",NA,"y",12692,NA,NA,3785,11839,NA,NA,NA,"arbiter, organiser, leader",1
"5654166804212700054a12aa","gw8vwg96u2","Affordance Norms_Prolific",1,30,"2023-05-12T16:18:21+00:00",13.981709003448,46,"updated stim.csv","Version46.csv","Version 46","List 46","quarter",NA,1366,5.333333333,2110,0.584780359,1367,"BOI","-","-","Please name all of the ways you could use this object. Keep in mind that one object can have many uses. Separate your responses with a comma.",NA,"y",13660,NA,NA,3822,7715,NA,NA,NA,"money, spend",1
"5654166804212700054a12aa","gw8vwg96u2","Affordance Norms_Prolific",1,31,"2023-05-12T16:19:37+00:00",76.25467300415,46,"updated stim.csv","Version46.csv","Version 46","List 46","scratches",NA,1363,4.4,2284,0.10739622,1364,"BOI","-","-","Please name all of the ways you could use this object. Keep in mind that one object can have many uses. Separate your responses with a comma.",NA,"y",75529,NA,NA,69951,73906,NA,NA,NA,"marks, indentations",1
"5654166804212700054a12aa","gw8vwg96u2","Affordance Norms_Prolific",1,32,"2023-05-12T16:19:48+00:00",10.477999925613,46,"updated stim.csv","Version46.csv","Version 46","List 46","broth",NA,1360,5.321428571,334,0.63743797,1361,"BOI","-","-","Please name all of the ways you could use this object. Keep in mind that one object can have many uses. Separate your responses with a comma.",NA,"y",10049,NA,NA,1841,8385,NA,NA,NA,"soup, food, liqour",1
"5654166804212700054a12aa","gw8vwg96u2","Affordance Norms_Prolific",1,33,"2023-05-12T16:19:59+00:00",11.059850931168,46,"updated stim.csv","Version46.csv","Version 46","List 46","diner",NA,1358,4.375,794,0.746568942,1359,"BOI","-","-","Please name all of the ways you could use this object. Keep in mind that one object can have many uses. Separate your responses with a comma.",NA,"y",10733,NA,NA,2227,9306,NA,NA,NA,"restaurant, eater",1
"5654166804212700054a12aa","gw8vwg96u2","Affordance Norms_Prolific",1,34,"2023-05-12T16:20:04+00:00",5.0460770130157,46,"updated stim.csv","Version46.csv","Version 46","List 46","saleswoman",NA,1362,4.608695652,2223,0.294600073,1363,"BOI","-","-","Please name all of the ways you could use this object. Keep in mind that one object can have many uses. Separate your responses with a comma.",NA,"y",4712,NA,NA,2682,3527,NA,NA,NA,"seller",1
"5654166804212700054a12aa","gw8vwg96u2","Affordance Norms_Prolific",1,35,"2023-05-12T16:20:15+00:00",10.864051103592,46,"updated stim.csv","Version46.csv","Version 46","List 46","bouquet",NA,1352,4.909090909,289,0.993143175,1353,"BOI","-","-","Please name all of the ways you could use this object. Keep in mind that one object can have many uses. Separate your responses with a comma.",NA,"y",10538,NA,NA,2387,9725,NA,NA,NA,"floral, flowers, bridal",1
"5654166804212700054a12aa","gw8vwg96u2","Affordance Norms_Prolific",1,36,"2023-05-12T16:20:22+00:00",6.610759973526,46,"updated stim.csv","Version46.csv","Version 46","List 46","arachnid",NA,1368,4.904761905,69,0.222506784,1369,"BOI","-","-","Please name all of the ways you could use this object. Keep in mind that one object can have many uses. Separate your responses with a comma.",NA,"y",6290,NA,NA,1425,2307,NA,NA,NA,"spider",1
"5654166804212700054a12aa","gw8vwg96u2","Affordance Norms_Prolific",1,37,"2023-05-12T16:20:30+00:00",8.0598199367523,46,"updated stim.csv","Version46.csv","Version 46","List 46","boyfriend",NA,1373,6.310344828,297,0.92357551,1374,"BOI","-","-","Please name all of the ways you could use this object. Keep in mind that one object can have many uses. Separate your responses with a comma.",NA,"y",7727,NA,NA,5797,6365,NA,NA,NA,"lover",1
"5654166804212700054a12aa","gw8vwg96u2","Affordance Norms_Prolific",1,38,"2023-05-12T16:20:54+00:00",24.214262008667,46,"updated stim.csv","Version46.csv","Version 46","List 46","pump",NA,1365,4.347826087,2096,0.763080975,1366,"BOI","-","-","Please name all of the ways you could use this object. Keep in mind that one object can have many uses. Separate your responses with a comma.",NA,"y",23883,NA,NA,4361,22614,NA,NA,NA,"inflator, transfer",1
"5654166804212700054a12aa","gw8vwg96u2","Affordance Norms_Prolific",1,39,"2023-05-12T16:20:59+00:00",5.0752160549164,46,"updated stim.csv","Version46.csv","Version 46","List 46","mistress",NA,1377,5,1669,0.146830456,1378,"BOI","-","-","Please name all of the ways you could use this object. Keep in mind that one object can have many uses. Separate your responses with a comma.",NA,"y",4743,NA,NA,1467,2233,NA,NA,NA,"lover",1
"5654166804212700054a12aa","gw8vwg96u2","Affordance Norms_Prolific",1,40,"2023-05-12T16:21:06+00:00",7.3087358474731,46,"updated stim.csv","Version46.csv","Version 46","List 46","golfer",NA,1379,4.583333333,1136,0.852423722,1380,"BOI","-","-","Please name all of the ways you could use this object. Keep in mind that one object can have many uses. Separate your responses with a comma.",NA,"y",6979,NA,NA,3805,5746,NA,NA,NA,"player",1
"56cefc4cb009e1000aa73684","t4aguwj59e","Affordance Norms_Prolific",1,11,"2023-05-11T22:55:23+00:00",22.751195907593,28,"updated stim.csv","Version28.csv","Version 28","List 28","salesgirl",NA,820,4.769230769,2220,0.082248881,821,"BOI","-","-","Please name all of the ways you could use this object. Keep in mind that one object can have many uses. Separate your responses with a comma.",NA,"y",21897,NA,NA,3026,19176,NA,NA,NA,"called, paid, dressed, argued, ",1
"56cefc4cb009e1000aa73684","t4aguwj59e","Affordance Norms_Prolific",1,12,"2023-05-11T22:55:44+00:00",21.089310884476,28,"updated stim.csv","Version28.csv","Version 28","List 28","plane",NA,821,5.458333333,1986,0.203318719,822,"BOI","-","-","Please name all of the ways you could use this object. Keep in mind that one object can have many uses. Separate your responses with a comma.",NA,"y",20168,NA,NA,4320,12892,NA,NA,NA,"fly, ride, play, ",1
"56cefc4cb009e1000aa73684","t4aguwj59e","Affordance Norms_Prolific",1,13,"2023-05-11T22:56:25+00:00",40.619229078293,28,"updated stim.csv","Version28.csv","Version 28","List 28","liquid",NA,824,5.260869565,1524,0.321872939,825,"BOI","-","-","Please name all of the ways you could use this object. Keep in mind that one object can have many uses. Separate your responses with a comma.",NA,"y",39719,NA,NA,2027,38726,NA,NA,NA,"drink, wash with, paint with, scrub with, play with, make into ice, pour, throw",1
"56cefc4cb009e1000aa73684","t4aguwj59e","Affordance Norms_Prolific",1,14,"2023-05-11T22:56:55+00:00",30.495284080505,28,"updated stim.csv","Version28.csv","Version 28","List 28","inspector",NA,815,4.391304348,1359,0.242268193,816,"BOI","-","-","Please name all of the ways you could use this object. Keep in mind that one object can have many uses. Separate your responses with a comma.",NA,"y",29387,NA,NA,4905,28562,NA,NA,NA,"look up, investigate ",1
"56cefc4cb009e1000aa73684","t4aguwj59e","Affordance Norms_Prolific",1,15,"2023-05-11T22:57:08+00:00",13.146726846695,28,"updated stim.csv","Version28.csv","Version 28","List 28","razor",NA,822,6.12,2142,0.056176721,823,"BOI","-","-","Please name all of the ways you could use this object. Keep in mind that one object can have many uses. Separate your responses with a comma.",NA,"y",11735,NA,NA,3560,7057,NA,NA,NA,"remove hair, cut, ",1
"56cefc4cb009e1000aa73684","t4aguwj59e","Affordance Norms_Prolific",1,16,"2023-05-11T22:57:38+00:00",29.683694124222,28,"updated stim.csv","Version28.csv","Version 28","List 28","heel",NA,839,4.666666667,1276,0.364472647,840,"BOI","-","-","Please name all of the ways you could use this object. Keep in mind that one object can have many uses. Separate your responses with a comma.",NA,"y",28796,NA,NA,2067,27848,NA,NA,NA,"step on, wear, hammer something",1
"56cefc4cb009e1000aa73684","t4aguwj59e","Affordance Norms_Prolific",1,17,"2023-05-11T22:58:12+00:00",33.662683963776,28,"updated stim.csv","Version28.csv","Version 28","List 28","raisin",NA,831,5.64,2134,0.272336245,832,"BOI","-","-","Please name all of the ways you could use this object. Keep in mind that one object can have many uses. Separate your responses with a comma.",NA,"y",32745,NA,NA,2090,31893,NA,NA,NA,"eat, make into wine, bake with, cook with, add to sauces",1
"56cefc4cb009e1000aa73684","t4aguwj59e","Affordance Norms_Prolific",1,18,"2023-05-11T22:58:40+00:00",28.018924951553,28,"updated stim.csv","Version28.csv","Version 28","List 28","hubcap",NA,833,4.833333333,1334,0.097436016,834,"BOI","-","-","Please name all of the ways you could use this object. Keep in mind that one object can have many uses. Separate your responses with a comma.",NA,"y",27073,NA,NA,10900,26177,NA,NA,NA,"wear as a hat, flying saucer, protect wheel",1
"56cefc4cb009e1000aa73684","t4aguwj59e","Affordance Norms_Prolific",1,19,"2023-05-11T22:59:07+00:00",27.350945949554,28,"updated stim.csv","Version28.csv","Version 28","List 28","arm",NA,819,6.47826087,71,0.925944129,820,"BOI","-","-","Please name all of the ways you could use this object. Keep in mind that one object can have many uses. Separate your responses with a comma.",NA,"y",26408,NA,NA,7886,21858,NA,NA,NA,"pick up things, wave, wipe brow, ",1
"56cefc4cb009e1000aa73684","t4aguwj59e","Affordance Norms_Prolific",1,20,"2023-05-11T22:59:32+00:00",24.750308036804,28,"updated stim.csv","Version28.csv","Version 28","List 28","spoon",NA,834,6.115384615,2482,0.213167636,835,"BOI","-","-","Please name all of the ways you could use this object. Keep in mind that one object can have many uses. Separate your responses with a comma.",NA,"y",23867,NA,NA,2414,17354,NA,NA,NA,"eat soup, play music, dig, ",1
"56cefc4cb009e1000aa73684","t4aguwj59e","Affordance Norms_Prolific",1,21,"2023-05-11T22:59:50+00:00",17.874744176865,28,"updated stim.csv","Version28.csv","Version 28","List 28","haystack",NA,816,4.956521739,1262,0.659571138,817,"BOI","-","-","Please name all of the ways you could use this object. Keep in mind that one object can have many uses. Separate your responses with a comma.",NA,"y",17012,NA,NA,4836,13022,NA,NA,NA,"feed animals, make a tower,",1
"56cefc4cb009e1000aa73684","t4aguwj59e","Affordance Norms_Prolific",1,22,"2023-05-11T23:00:04+00:00",14.120284795761,28,"updated stim.csv","Version28.csv","Version 28","List 28","traveller",NA,832,4.5,2767,0.757322796,833,"BOI","-","-","Please name all of the ways you could use this object. Keep in mind that one object can have many uses. Separate your responses with a comma.",NA,"y",13232,NA,NA,2977,12369,NA,NA,NA,"visit countries, tell stories ",1
"56cefc4cb009e1000aa73684","t4aguwj59e","Affordance Norms_Prolific",1,23,"2023-05-11T23:01:08+00:00",64.035660028458,28,"updated stim.csv","Version28.csv","Version 28","List 28","carriage",NA,835,5.08,440,0.35198911,836,"BOI","-","-","Please name all of the ways you could use this object. Keep in mind that one object can have many uses. Separate your responses with a comma.",NA,"y",62810,NA,NA,3195,7223,NA,NA,NA,"ride around, ",1
"56cefc4cb009e1000aa73684","t4aguwj59e","Affordance Norms_Prolific",1,24,"2023-05-11T23:01:29+00:00",20.832226991653,28,"updated stim.csv","Version28.csv","Version 28","List 28","roadway",NA,818,4.565217391,2178,0.192935669,819,"BOI","-","-","Please name all of the ways you could use this object. Keep in mind that one object can have many uses. Separate your responses with a comma.",NA,"y",19530,NA,NA,2138,18668,NA,NA,NA,"drive on, run on, walk on, dance on, build on",1
"56cefc4cb009e1000aa73684","t4aguwj59e","Affordance Norms_Prolific",1,25,"2023-05-11T23:01:47+00:00",18.586237192154,28,"updated stim.csv","Version28.csv","Version 28","List 28","mail",NA,838,6.125,1577,0.960668374,839,"BOI","-","-","Please name all of the ways you could use this object. Keep in mind that one object can have many uses. Separate your responses with a comma.",NA,"y",17546,NA,NA,1892,13363,NA,NA,NA,"read, send, delete, open it, ",1
"56cefc4cb009e1000aa73684","t4aguwj59e","Affordance Norms_Prolific",1,26,"2023-05-11T23:02:15+00:00",27.60030579567,28,"updated stim.csv","Version28.csv","Version 28","List 28","hearse",NA,811,4.928571429,1274,0.673201316,812,"BOI","-","-","Please name all of the ways you could use this object. Keep in mind that one object can have many uses. Separate your responses with a comma.",NA,"y",26570,NA,NA,5245,25410,NA,NA,NA,"drive it, carry the dead, walk behind it, ride in it",1
"56cefc4cb009e1000aa73684","t4aguwj59e","Affordance Norms_Prolific",1,27,"2023-05-11T23:02:30+00:00",15.079298019409,28,"updated stim.csv","Version28.csv","Version 28","List 28","bratwurst",NA,826,5.434782609,307,0.625102194,827,"BOI","-","-","Please name all of the ways you could use this object. Keep in mind that one object can have many uses. Separate your responses with a comma.",NA,"y",14073,NA,NA,1604,13033,NA,NA,NA,"eat it, cook it, bake it, sell it",1
"56cefc4cb009e1000aa73684","t4aguwj59e","Affordance Norms_Prolific",1,28,"2023-05-11T23:02:49+00:00",18.941811084747,28,"updated stim.csv","Version28.csv","Version 28","List 28","player",NA,836,4.72,1999,0.968261434,837,"BOI","-","-","Please name all of the ways you could use this object. Keep in mind that one object can have many uses. Separate your responses with a comma.",NA,"y",17928,NA,NA,4620,17064,NA,NA,NA,"play with it",1
"56cefc4cb009e1000aa73684","t4aguwj59e","Affordance Norms_Prolific",1,29,"2023-05-11T23:03:08+00:00",19.28462100029,28,"updated stim.csv","Version28.csv","Version 28","List 28","doorknocker",NA,829,5.52173913,825,0.961050371,830,"BOI","-","-","Please name all of the ways you could use this object. Keep in mind that one object can have many uses. Separate your responses with a comma.",NA,"y",18408,NA,NA,3067,16726,NA,NA,NA,"bang it, tap it, knock it, steal it, break it, ",1
"56cefc4cb009e1000aa73684","t4aguwj59e","Affordance Norms_Prolific",1,30,"2023-05-11T23:03:29+00:00",20.813627958298,28,"updated stim.csv","Version28.csv","Version 28","List 28","pea",NA,814,5.777777778,1890,0.861439366,815,"BOI","-","-","Please name all of the ways you could use this object. Keep in mind that one object can have many uses. Separate your responses with a comma.",NA,"y",19878,NA,NA,1373,18603,NA,NA,NA,"eat it, roll it, squish it, cook it, bake it, grow it",1
"56cefc4cb009e1000aa73684","t4aguwj59e","Affordance Norms_Prolific",1,31,"2023-05-11T23:03:45+00:00",16.437961101532,28,"updated stim.csv","Version28.csv","Version 28","List 28","dietician",NA,823,4.72,791,0.466704962,824,"BOI","-","-","Please name all of the ways you could use this object. Keep in mind that one object can have many uses. Separate your responses with a comma.",NA,"y",15521,NA,NA,7228,14574,NA,NA,NA,"use it, rely on it",1
"56cefc4cb009e1000aa73684","t4aguwj59e","Affordance Norms_Prolific",1,32,"2023-05-11T23:04:04+00:00",18.251142978668,28,"updated stim.csv","Version28.csv","Version 28","List 28","cuticle",NA,827,5.08,737,0.981420344,828,"BOI","-","-","Please name all of the ways you could use this object. Keep in mind that one object can have many uses. Separate your responses with a comma.",NA,"y",16976,NA,NA,2237,16180,NA,NA,NA,"cut it, paint it, file it",1
"56cefc4cb009e1000aa73684","t4aguwj59e","Affordance Norms_Prolific",1,33,"2023-05-11T23:04:19+00:00",15.514492034912,28,"updated stim.csv","Version28.csv","Version 28","List 28","undershirt",NA,837,5.954545455,2824,0.230934942,838,"BOI","-","-","Please name all of the ways you could use this object. Keep in mind that one object can have many uses. Separate your responses with a comma.",NA,"y",14689,NA,NA,1927,13479,NA,NA,NA,"wear it, iron it, wash it, dry it",1
"56cefc4cb009e1000aa73684","t4aguwj59e","Affordance Norms_Prolific",1,34,"2023-05-11T23:04:41+00:00",21.953025817871,28,"updated stim.csv","Version28.csv","Version 28","List 28","eyelash",NA,813,5.423076923,935,0.527362706,814,"BOI","-","-","Please name all of the ways you could use this object. Keep in mind that one object can have many uses. Separate your responses with a comma.",NA,"y",21070,NA,NA,3804,19781,NA,NA,NA,"pick it, flick it, mascara it, grow it, rub it",1
"56cefc4cb009e1000aa73684","t4aguwj59e","Affordance Norms_Prolific",1,35,"2023-05-11T23:05:03+00:00",22.423576116562,28,"updated stim.csv","Version28.csv","Version 28","List 28","fingerprint",NA,812,4.291666667,980,0.220511383,813,"BOI","-","-","Please name all of the ways you could use this object. Keep in mind that one object can have many uses. Separate your responses with a comma.",NA,"y",21512,NA,NA,3090,19650,NA,NA,NA,"paint it, rub it, draw it, leave it",1
"56cefc4cb009e1000aa73684","t4aguwj59e","Affordance Norms_Prolific",1,36,"2023-05-11T23:05:26+00:00",22.27575802803,28,"updated stim.csv","Version28.csv","Version 28","List 28","snowball",NA,825,5.5,2431,0.143942854,826,"BOI","-","-","Please name all of the ways you could use this object. Keep in mind that one object can have many uses. Separate your responses with a comma.",NA,"y",21219,NA,NA,1758,15727,NA,NA,NA,"throw it, eat it, make it, stamp it, roll it",1
"56cefc4cb009e1000aa73684","t4aguwj59e","Affordance Norms_Prolific",1,37,"2023-05-11T23:05:49+00:00",23.482933044434,28,"updated stim.csv","Version28.csv","Version 28","List 28","web",NA,840,4.375,2917,0.07564267,841,"BOI","-","-","Please name all of the ways you could use this object. Keep in mind that one object can have many uses. Separate your responses with a comma.",NA,"y",22320,NA,NA,2619,20975,NA,NA,NA,"Surf it, break it, cut it",1
"56cefc4cb009e1000aa73684","t4aguwj59e","Affordance Norms_Prolific",1,38,"2023-05-11T23:06:18+00:00",28.268090963364,28,"updated stim.csv","Version28.csv","Version 28","List 28","shorts",NA,828,6.04,2359,0.973765651,829,"BOI","-","-","Please name all of the ways you could use this object. Keep in mind that one object can have many uses. Separate your responses with a comma.",NA,"y",27443,NA,NA,1786,26617,NA,NA,NA,"wear it, iron it, wash it, clean it, rip it",1
"56cefc4cb009e1000aa73684","t4aguwj59e","Affordance Norms_Prolific",1,39,"2023-05-11T23:06:43+00:00",25.567360877991,28,"updated stim.csv","Version28.csv","Version 28","List 28","shipmate",NA,817,4.72,2345,0.774354107,818,"BOI","-","-","Please name all of the ways you could use this object. Keep in mind that one object can have many uses. Separate your responses with a comma.",NA,"y",24734,NA,NA,2026,19938,NA,NA,NA,"befriend it, cuddle it, share stories, ",1
"56cefc4cb009e1000aa73684","t4aguwj59e","Affordance Norms_Prolific",1,40,"2023-05-11T23:07:00+00:00",16.439272165298,28,"updated stim.csv","Version28.csv","Version 28","List 28","club",NA,830,5.458333333,576,0.337695285,831,"BOI","-","-","Please name all of the ways you could use this object. Keep in mind that one object can have many uses. Separate your responses with a comma.",NA,"y",15602,NA,NA,1729,12670,NA,NA,NA,"dance, rave, move bodies, ",1
"56db8f127dcddf000dd592af","otxlfauy2o","Affordance Norms_Prolific",1,11,"2023-05-11T18:10:43+00:00",12.710486888885,97,"updated stim.csv","Version97.csv","Version 97","List 97","truck",NA,2882,6.041666667,2785,0.49101235,2883,"BOI","-","-","Please name all of the ways you could use this object. Keep in mind that one object can have many uses. Separate your responses with a comma.",NA,"y",12106,NA,NA,2449,7032,NA,NA,NA,"drive, park",1
"56db8f127dcddf000dd592af","otxlfauy2o","Affordance Norms_Prolific",1,12,"2023-05-11T18:10:57+00:00",14.166531085968,97,"updated stim.csv","Version97.csv","Version 97","List 97","grenade",NA,2902,5.2,1173,0.858980411,2903,"BOI","-","-","Please name all of the ways you could use this object. Keep in mind that one object can have many uses. Separate your responses with a comma.",NA,"y",13813,NA,NA,2351,3782,NA,NA,NA,"throw",1
"56db8f127dcddf000dd592af","otxlfauy2o","Affordance Norms_Prolific",1,13,"2023-05-11T18:11:24+00:00",26.546591997147,97,"updated stim.csv","Version97.csv","Version 97","List 97","saloonkeeper",NA,2884,4.541666667,2226,0.660477367,2885,"BOI","-","-","Please name all of the ways you could use this object. Keep in mind that one object can have many uses. Separate your responses with a comma.",NA,"y",26231,NA,NA,10049,24490,NA,NA,NA,"book appointments, sweeping",1
"56db8f127dcddf000dd592af","otxlfauy2o","Affordance Norms_Prolific",1,14,"2023-05-11T18:11:50+00:00",26.350038051605,97,"updated stim.csv","Version97.csv","Version 97","List 97","bath",NA,2883,5.964285714,167,0.914870153,2884,"BOI","-","-","Please name all of the ways you could use this object. Keep in mind that one object can have many uses. Separate your responses with a comma.",NA,"y",25175,NA,NA,16472,22310,NA,NA,NA,"rinse,clean",1
"56db8f127dcddf000dd592af","otxlfauy2o","Affordance Norms_Prolific",1,15,"2023-05-11T18:11:59+00:00",8.7395868301392,97,"updated stim.csv","Version97.csv","Version 97","List 97","noodles",NA,2887,5.695652174,1777,0.403074598,2888,"BOI","-","-","Please name all of the ways you could use this object. Keep in mind that one object can have many uses. Separate your responses with a comma.",NA,"y",8133,NA,NA,2076,6524,NA,NA,NA,"eat, cook",1
"56db8f127dcddf000dd592af","otxlfauy2o","Affordance Norms_Prolific",1,16,"2023-05-11T18:12:09+00:00",10.766620159149,97,"updated stim.csv","Version97.csv","Version 97","List 97","concrete",NA,2897,5.166666667,619,0.529929804,2898,"BOI","-","-","Please name all of the ways you could use this object. Keep in mind that one object can have many uses. Separate your responses with a comma.",NA,"y",10300,NA,NA,3635,8586,NA,NA,NA,"pour, build",1
"56db8f127dcddf000dd592af","otxlfauy2o","Affordance Norms_Prolific",1,17,"2023-05-11T18:12:26+00:00",16.407210826874,97,"updated stim.csv","Version97.csv","Version 97","List 97","brush",NA,2896,6.043478261,337,0.788152785,2897,"BOI","-","-","Please name all of the ways you could use this object. Keep in mind that one object can have many uses. Separate your responses with a comma.",NA,"y",15957,NA,NA,3042,11304,NA,NA,NA,"comb,teeth",1
"56db8f127dcddf000dd592af","otxlfauy2o","Affordance Norms_Prolific",1,18,"2023-05-11T18:12:51+00:00",25.089841127396,97,"updated stim.csv","Version97.csv","Version 97","List 97","erection",NA,2894,5.4,919,0.423415817,2895,"BOI","-","-","Please name all of the ways you could use this object. Keep in mind that one object can have many uses. Separate your responses with a comma.",NA,"y",24365,NA,NA,10959,19853,NA,NA,NA,"standing, sex",1
"56db8f127dcddf000dd592af","otxlfauy2o","Affordance Norms_Prolific",1,19,"2023-05-11T18:12:59+00:00",7.9020278453827,97,"updated stim.csv","Version97.csv","Version 97","List 97","marigold",NA,2890,4.75,1605,0.548154377,2891,"BOI","-","-","Please name all of the ways you could use this object. Keep in mind that one object can have many uses. Separate your responses with a comma.",NA,"y",7447,NA,NA,3715,5251,NA,NA,NA,"smell",1
"56db8f127dcddf000dd592af","otxlfauy2o","Affordance Norms_Prolific",1,20,"2023-05-11T18:13:30+00:00",31.076413154602,97,"updated stim.csv","Version97.csv","Version 97","List 97","lesion",NA,2889,4.481481481,1494,0.523094886,2890,"BOI","-","-","Please name all of the ways you could use this object. Keep in mind that one object can have many uses. Separate your responses with a comma.",NA,"y",30031,NA,NA,21485,28398,NA,NA,NA,"cut, bleed",0.912
"56db8f127dcddf000dd592af","otxlfauy2o","Affordance Norms_Prolific",1,21,"2023-05-11T18:13:47+00:00",16.866572856903,97,"updated stim.csv","Version97.csv","Version 97","List 97","sunroof",NA,2888,4.814814815,2589,0.155437373,2889,"BOI","-","-","Please name all of the ways you could use this object. Keep in mind that one object can have many uses. Separate your responses with a comma.",NA,"y",13740,NA,NA,2449,11644,NA,NA,NA,"open, car, close",1
"56db8f127dcddf000dd592af","otxlfauy2o","Affordance Norms_Prolific",1,22,"2023-05-11T18:14:07+00:00",20.337374210358,97,"updated stim.csv","Version97.csv","Version 97","List 97","keg",NA,2881,4.962962963,1404,0.895993742,2882,"BOI","-","-","Please name all of the ways you could use this object. Keep in mind that one object can have many uses. Separate your responses with a comma.",NA,"y",19715,NA,NA,2593,17837,NA,NA,NA,"drink from, fill up",1
"56db8f127dcddf000dd592af","otxlfauy2o","Affordance Norms_Prolific",1,23,"2023-05-11T18:14:15+00:00",8.1541509628296,97,"updated stim.csv","Version97.csv","Version 97","List 97","airman",NA,2885,4.36,21,0.28605253,2886,"BOI","-","-","Please name all of the ways you could use this object. Keep in mind that one object can have many uses. Separate your responses with a comma.",NA,"y",7654,NA,NA,3376,5977,NA,NA,NA,"flying",1
"56db8f127dcddf000dd592af","otxlfauy2o","Affordance Norms_Prolific",1,24,"2023-05-11T18:14:36+00:00",20.326220035553,97,"updated stim.csv","Version97.csv","Version 97","List 97","voter",NA,2895,4.75,2875,0.312648614,2896,"BOI","-","-","Please name all of the ways you could use this object. Keep in mind that one object can have many uses. Separate your responses with a comma.",NA,"y",19775,NA,NA,8085,18028,NA,NA,NA,"win, fill out ballet",1
"56db8f127dcddf000dd592af","otxlfauy2o","Affordance Norms_Prolific",1,25,"2023-05-11T18:14:51+00:00",15.211170911789,97,"updated stim.csv","Version97.csv","Version 97","List 97","flypaper",NA,2906,5.037037037,1021,0.365287437,2907,"BOI","-","-","Please name all of the ways you could use this object. Keep in mind that one object can have many uses. Separate your responses with a comma.",NA,"y",14280,NA,NA,2724,10850,NA,NA,NA,"catch flies",1
"56db8f127dcddf000dd592af","otxlfauy2o","Affordance Norms_Prolific",1,26,"2023-05-11T18:15:02+00:00",11.018419981003,97,"updated stim.csv","Version97.csv","Version 97","List 97","handclap",NA,2891,4.434782609,1234,0.984697652,2892,"BOI","-","-","Please name all of the ways you could use this object. Keep in mind that one object can have many uses. Separate your responses with a comma.",NA,"y",10559,NA,NA,3095,6911,NA,NA,NA,"applause",1
"56db8f127dcddf000dd592af","otxlfauy2o","Affordance Norms_Prolific",1,27,"2023-05-11T18:15:13+00:00",11.022274971008,97,"updated stim.csv","Version97.csv","Version 97","List 97","clips",NA,2892,4.52,563,0.70158435,2893,"BOI","-","-","Please name all of the ways you could use this object. Keep in mind that one object can have many uses. Separate your responses with a comma.",NA,"y",10557,NA,NA,2025,8914,NA,NA,NA,"watch, create",1
"56db8f127dcddf000dd592af","otxlfauy2o","Affordance Norms_Prolific",1,28,"2023-05-11T18:15:38+00:00",25.342921972275,97,"updated stim.csv","Version97.csv","Version 97","List 97","peony",NA,2886,4.333333333,1919,0.81509499,2887,"BOI","-","-","Please name all of the ways you could use this object. Keep in mind that one object can have many uses. Separate your responses with a comma.",NA,"y",24669,NA,NA,12005,22979,NA,NA,NA,"smell, grow, plant",0.94
"56db8f127dcddf000dd592af","otxlfauy2o","Affordance Norms_Prolific",1,29,"2023-05-11T18:16:06+00:00",27.649760961533,97,"updated stim.csv","Version97.csv","Version 97","List 97","mathematician",NA,2893,4.272727273,1624,0.518413041,2894,"BOI","-","-","Please name all of the ways you could use this object. Keep in mind that one object can have many uses. Separate your responses with a comma.",NA,"y",26713,NA,NA,12314,24959,NA,NA,NA,"figure out problems, find answers",1
"56db8f127dcddf000dd592af","otxlfauy2o","Affordance Norms_Prolific",1,30,"2023-05-11T18:16:35+00:00",29.381414175034,97,"updated stim.csv","Version97.csv","Version 97","List 97","calves",NA,2900,5,404,0.250158972,2901,"BOI","-","-","Please name all of the ways you could use this object. Keep in mind that one object can have many uses. Separate your responses with a comma.",NA,"y",28801,NA,NA,2631,22081,NA,NA,NA,"milk, veil",1
"56db8f127dcddf000dd592af","otxlfauy2o","Affordance Norms_Prolific",1,31,"2023-05-11T18:16:58+00:00",22.425001859665,97,"updated stim.csv","Version97.csv","Version 97","List 97","manure",NA,2898,4.708333333,1598,0.296635274,2899,"BOI","-","-","Please name all of the ways you could use this object. Keep in mind that one object can have many uses. Separate your responses with a comma.",NA,"y",21941,NA,NA,5476,17860,NA,NA,NA,"spread, fertilizer",1
"56db8f127dcddf000dd592af","otxlfauy2o","Affordance Norms_Prolific",1,32,"2023-05-11T18:17:10+00:00",12.815690040588,97,"updated stim.csv","Version97.csv","Version 97","List 97","toga",NA,2903,4.52173913,2718,0.201068706,2904,"BOI","-","-","Please name all of the ways you could use this object. Keep in mind that one object can have many uses. Separate your responses with a comma.",NA,"y",12249,NA,NA,2018,8873,NA,NA,NA,"wear, party",1
"56db8f127dcddf000dd592af","otxlfauy2o","Affordance Norms_Prolific",1,33,"2023-05-11T18:17:28+00:00",17.707930088043,97,"updated stim.csv","Version97.csv","Version 97","List 97","hug",NA,2909,4.652173913,1335,0.678912419,2910,"BOI","-","-","Please name all of the ways you could use this object. Keep in mind that one object can have many uses. Separate your responses with a comma.",NA,"y",17024,NA,NA,6227,15363,NA,NA,NA,"feel better, closeness",1
"56db8f127dcddf000dd592af","otxlfauy2o","Affordance Norms_Prolific",1,34,"2023-05-11T18:17:52+00:00",24.337405920029,97,"updated stim.csv","Version97.csv","Version 97","List 97","workroom",NA,2904,4.703703704,2972,0.230131649,2905,"BOI","-","-","Please name all of the ways you could use this object. Keep in mind that one object can have many uses. Separate your responses with a comma.",NA,"y",23925,NA,NA,12778,21877,NA,NA,NA,"sleep, complete projects",0.952
"56db8f127dcddf000dd592af","otxlfauy2o","Affordance Norms_Prolific",1,35,"2023-05-11T18:18:07+00:00",14.615341901779,97,"updated stim.csv","Version97.csv","Version 97","List 97","package",NA,2908,5.75,1837,0.941595744,2909,"BOI","-","-","Please name all of the ways you could use this object. Keep in mind that one object can have many uses. Separate your responses with a comma.",NA,"y",13831,NA,NA,3110,11401,NA,NA,NA,"box, pack things",1
"56db8f127dcddf000dd592af","otxlfauy2o","Affordance Norms_Prolific",1,36,"2023-05-11T18:18:19+00:00",11.924728155136,97,"updated stim.csv","Version97.csv","Version 97","List 97","birdbath",NA,2905,4.916666667,221,0.275149468,2906,"BOI","-","-","Please name all of the ways you could use this object. Keep in mind that one object can have many uses. Separate your responses with a comma.",NA,"y",11473,NA,NA,4529,8595,NA,NA,NA,"fill with water",1
"56db8f127dcddf000dd592af","otxlfauy2o","Affordance Norms_Prolific",1,37,"2023-05-11T18:18:28+00:00",9.2105510234833,97,"updated stim.csv","Version97.csv","Version 97","List 97","athlete",NA,2899,4.916666667,92,0.987033552,2900,"BOI","-","-","Please name all of the ways you could use this object. Keep in mind that one object can have many uses. Separate your responses with a comma.",NA,"y",8445,NA,NA,2345,6846,NA,NA,NA,"run, jump, win",1
"56db8f127dcddf000dd592af","otxlfauy2o","Affordance Norms_Prolific",1,38,"2023-05-11T18:18:44+00:00",15.62810587883,97,"updated stim.csv","Version97.csv","Version 97","List 97","walrus",NA,2910,4.875,2891,0.583048313,2911,"BOI","-","-","Please name all of the ways you could use this object. Keep in mind that one object can have many uses. Separate your responses with a comma.",NA,"y",14944,NA,NA,10411,11503,NA,NA,NA,"watch",1
"56db8f127dcddf000dd592af","otxlfauy2o","Affordance Norms_Prolific",1,39,"2023-05-11T18:18:58+00:00",14.299289941788,97,"updated stim.csv","Version97.csv","Version 97","List 97","passerby",NA,2907,4.44,1881,0.347974612,2908,"BOI","-","-","Please name all of the ways you could use this object. Keep in mind that one object can have many uses. Separate your responses with a comma.",NA,"y",13185,NA,NA,2577,10809,NA,NA,NA,"look, watch",1
"56db8f127dcddf000dd592af","otxlfauy2o","Affordance Norms_Prolific",1,40,"2023-05-11T18:19:11+00:00",12.555936098099,97,"updated stim.csv","Version97.csv","Version 97","List 97","candy",NA,2901,6.4,412,0.441174605,2902,"BOI","-","-","Please name all of the ways you could use this object. Keep in mind that one object can have many uses. Separate your responses with a comma.",NA,"y",11784,NA,NA,1737,9963,NA,NA,NA,"eat, hold, enjoy",1
"5734b743d0f8fe10e4e4415d","uy8zxxbo6s","Affordance Norms_Prolific",1,11,"2023-05-11T21:28:17+00:00",12.744265079498,12,"updated stim.csv","Version12.csv","Version 12","List 12","mayonnaise",NA,342,5.523809524,1628,0.940541237,343,"BOI","-","-","Please name all of the ways you could use this object. Keep in mind that one object can have many uses. Separate your responses with a comma.",NA,"y",12112,NA,NA,5339,9914,NA,NA,NA,"for lunches, meals",1
"5734b743d0f8fe10e4e4415d","uy8zxxbo6s","Affordance Norms_Prolific",1,12,"2023-05-11T21:28:27+00:00",10.627740859985,12,"updated stim.csv","Version12.csv","Version 12","List 12","bystander",NA,331,4.791666667,384,0.176677262,332,"BOI","-","-","Please name all of the ways you could use this object. Keep in mind that one object can have many uses. Separate your responses with a comma.",NA,"y",9673,NA,NA,4012,6375,NA,NA,NA,"to observe",1
"5734b743d0f8fe10e4e4415d","uy8zxxbo6s","Affordance Norms_Prolific",1,13,"2023-05-11T21:28:47+00:00",19.862565040588,12,"updated stim.csv","Version12.csv","Version 12","List 12","sifter",NA,350,4.782608696,2378,0.890528918,351,"BOI","-","-","Please name all of the ways you could use this object. Keep in mind that one object can have many uses. Separate your responses with a comma.",NA,"y",19277,NA,NA,10955,18684,NA,NA,NA,"eliminating lumps",1
"5734b743d0f8fe10e4e4415d","uy8zxxbo6s","Affordance Norms_Prolific",1,14,"2023-05-11T21:29:21+00:00",34.270503044128,12,"updated stim.csv","Version12.csv","Version 12","List 12","certificate",NA,358,5.041666667,482,0.737715679,359,"BOI","-","-","Please name all of the ways you could use this object. Keep in mind that one object can have many uses. Separate your responses with a comma.",NA,"y",33489,NA,NA,3694,32938,NA,NA,NA,"a paper of recognition, achievement, progress in jobs",1
"5734b743d0f8fe10e4e4415d","uy8zxxbo6s","Affordance Norms_Prolific",1,15,"2023-05-11T21:29:41+00:00",19.722851037979,12,"updated stim.csv","Version12.csv","Version 12","List 12","ruby",NA,332,4.76,2202,0.999381206,333,"BOI","-","-","Please name all of the ways you could use this object. Keep in mind that one object can have many uses. Separate your responses with a comma.",NA,"y",19050,NA,NA,2238,18210,NA,NA,NA,"for jewellery, a precious stone, a gift, a birth stone",1
"5734b743d0f8fe10e4e4415d","uy8zxxbo6s","Affordance Norms_Prolific",1,16,"2023-05-11T21:30:00+00:00",18.710820913315,12,"updated stim.csv","Version12.csv","Version 12","List 12","hourglass",NA,354,4.583333333,1325,0.78313885,355,"BOI","-","-","Please name all of the ways you could use this object. Keep in mind that one object can have many uses. Separate your responses with a comma.",NA,"y",17482,NA,NA,7386,13276,NA,NA,NA,"a shape of a woman",1
"5734b743d0f8fe10e4e4415d","uy8zxxbo6s","Affordance Norms_Prolific",1,17,"2023-05-11T21:30:25+00:00",24.856270074844,12,"updated stim.csv","Version12.csv","Version 12","List 12","necklace",NA,338,5.821428571,1741,0.573731001,339,"BOI","-","-","Please name all of the ways you could use this object. Keep in mind that one object can have many uses. Separate your responses with a comma.",NA,"y",23972,NA,NA,2132,23420,NA,NA,NA,"a piece of jewellery, for occasions, keepsakes, gifts",1
"5734b743d0f8fe10e4e4415d","uy8zxxbo6s","Affordance Norms_Prolific",1,18,"2023-05-11T21:30:35+00:00",10.019512891769,12,"updated stim.csv","Version12.csv","Version 12","List 12","cobweb",NA,359,4.916666667,584,0.98810054,360,"BOI","-","-","Please name all of the ways you could use this object. Keep in mind that one object can have many uses. Separate your responses with a comma.",NA,"y",9112,NA,NA,1754,7861,NA,NA,NA,"to catch flies, a spiders home",1
"5734b743d0f8fe10e4e4415d","uy8zxxbo6s","Affordance Norms_Prolific",1,19,"2023-05-11T21:31:00+00:00",25.026687145233,12,"updated stim.csv","Version12.csv","Version 12","List 12","condiment",NA,347,5.76,620,0.735373904,348,"BOI","-","-","Please name all of the ways you could use this object. Keep in mind that one object can have many uses. Separate your responses with a comma.",NA,"y",24115,NA,NA,1834,22942,NA,NA,NA,"to accompany meals, to add richness to the flavour ",1
"5734b743d0f8fe10e4e4415d","uy8zxxbo6s","Affordance Norms_Prolific",1,20,"2023-05-11T21:31:29+00:00",29.136986017227,12,"updated stim.csv","Version12.csv","Version 12","List 12","dairy",NA,335,4.28,750,0.234031096,336,"BOI","-","-","Please name all of the ways you could use this object. Keep in mind that one object can have many uses. Separate your responses with a comma.",NA,"y",28256,NA,NA,6205,27832,NA,NA,NA,"milk, cheese, yogurt, butter ",1
"5734b743d0f8fe10e4e4415d","uy8zxxbo6s","Affordance Norms_Prolific",1,21,"2023-05-11T21:31:50+00:00",20.715044975281,12,"updated stim.csv","Version12.csv","Version 12","List 12","String",NA,334,5.626180837,2568,0.200879423,335,"BOI","-","-","Please name all of the ways you could use this object. Keep in mind that one object can have many uses. Separate your responses with a comma.",NA,"y",19833,NA,NA,3131,19332,NA,NA,NA,"to tie things together, hold things in place",1
"5734b743d0f8fe10e4e4415d","uy8zxxbo6s","Affordance Norms_Prolific",1,22,"2023-05-11T21:32:11+00:00",21.204195976257,12,"updated stim.csv","Version12.csv","Version 12","List 12","shot",NA,356,4.392857143,2360,0.644561162,357,"BOI","-","-","Please name all of the ways you could use this object. Keep in mind that one object can have many uses. Separate your responses with a comma.",NA,"y",20425,NA,NA,5971,20053,NA,NA,NA,"a bullet, a drink, shot of coffee",1
"5734b743d0f8fe10e4e4415d","uy8zxxbo6s","Affordance Norms_Prolific",1,23,"2023-05-11T21:32:33+00:00",22.444683074951,12,"updated stim.csv","Version12.csv","Version 12","List 12","dock",NA,336,4.541666667,808,0.423772685,337,"BOI","-","-","Please name all of the ways you could use this object. Keep in mind that one object can have many uses. Separate your responses with a comma.",NA,"y",21531,NA,NA,2435,21127,NA,NA,NA,"where boats can be kept, for transporting goods",1
"5734b743d0f8fe10e4e4415d","uy8zxxbo6s","Affordance Norms_Prolific",1,24,"2023-05-11T21:32:55+00:00",22.318757772446,12,"updated stim.csv","Version12.csv","Version 12","List 12","toddler",NA,349,5.875,2714,0.989271668,350,"BOI","-","-","Please name all of the ways you could use this object. Keep in mind that one object can have many uses. Separate your responses with a comma.",NA,"y",21459,NA,NA,1642,20793,NA,NA,NA,"a baby growing into a child, key learning stage",1
"5734b743d0f8fe10e4e4415d","uy8zxxbo6s","Affordance Norms_Prolific",1,25,"2023-05-11T21:33:06+00:00",10.833271026611,12,"updated stim.csv","Version12.csv","Version 12","List 12","showerhead",NA,360,5.041666667,2365,0.714334081,361,"BOI","-","-","Please name all of the ways you could use this object. Keep in mind that one object can have many uses. Separate your responses with a comma.",NA,"y",10066,NA,NA,3399,8688,NA,NA,NA,"to cleanse, wash hair ",1
"5734b743d0f8fe10e4e4415d","uy8zxxbo6s","Affordance Norms_Prolific",1,26,"2023-05-11T21:33:27+00:00",21.111596107483,12,"updated stim.csv","Version12.csv","Version 12","List 12","stockings",NA,344,5.84,2542,0.41824356,345,"BOI","-","-","Please name all of the ways you could use this object. Keep in mind that one object can have many uses. Separate your responses with a comma.",NA,"y",20176,NA,NA,4971,19615,NA,NA,NA,"to keep your legs warm, to be worn with tights/dresses",1
"5734b743d0f8fe10e4e4415d","uy8zxxbo6s","Affordance Norms_Prolific",1,27,"2023-05-11T21:33:51+00:00",23.647994995117,12,"updated stim.csv","Version12.csv","Version 12","List 12","beet",NA,345,5.32,193,0.704074452,346,"BOI","-","-","Please name all of the ways you could use this object. Keep in mind that one object can have many uses. Separate your responses with a comma.",NA,"y",22666,NA,NA,8847,21864,NA,NA,NA,"beet short for beetroot, can be eaten ",1
"5734b743d0f8fe10e4e4415d","uy8zxxbo6s","Affordance Norms_Prolific",1,28,"2023-05-11T21:34:16+00:00",24.490542888641,12,"updated stim.csv","Version12.csv","Version 12","List 12","fungus",NA,346,4.32,1064,0.562088746,347,"BOI","-","-","Please name all of the ways you could use this object. Keep in mind that one object can have many uses. Separate your responses with a comma.",NA,"y",23525,NA,NA,11522,22989,NA,NA,NA,"can grow on trees, plants, humans feet ",1
"5734b743d0f8fe10e4e4415d","uy8zxxbo6s","Affordance Norms_Prolific",1,29,"2023-05-11T21:34:26+00:00",10.350660085678,12,"updated stim.csv","Version12.csv","Version 12","List 12","man",NA,352,5.346153846,1586,0.963710737,353,"BOI","-","-","Please name all of the ways you could use this object. Keep in mind that one object can have many uses. Separate your responses with a comma.",NA,"y",9298,NA,NA,2779,8655,NA,NA,NA,"the opposite to a woman ",1
"5734b743d0f8fe10e4e4415d","uy8zxxbo6s","Affordance Norms_Prolific",1,30,"2023-05-11T21:34:41+00:00",14.941423892975,12,"updated stim.csv","Version12.csv","Version 12","List 12","bass",NA,337,4.37037037,164,0.261790448,338,"BOI","-","-","Please name all of the ways you could use this object. Keep in mind that one object can have many uses. Separate your responses with a comma.",NA,"y",13938,NA,NA,6867,13255,NA,NA,NA,"a part of music",1
"5734b743d0f8fe10e4e4415d","uy8zxxbo6s","Affordance Norms_Prolific",1,31,"2023-05-11T21:34:57+00:00",16.571674108505,12,"updated stim.csv","Version12.csv","Version 12","List 12","hip",NA,341,5.086956522,1291,0.796894413,342,"BOI","-","-","Please name all of the ways you could use this object. Keep in mind that one object can have many uses. Separate your responses with a comma.",NA,"y",15604,NA,NA,5017,12467,NA,NA,NA,"helps the body move around",1
"5734b743d0f8fe10e4e4415d","uy8zxxbo6s","Affordance Norms_Prolific",1,32,"2023-05-11T21:35:17+00:00",19.747064113617,12,"updated stim.csv","Version12.csv","Version 12","List 12","flower",NA,343,5.916666667,1015,0.960657599,344,"BOI","-","-","Please name all of the ways you could use this object. Keep in mind that one object can have many uses. Separate your responses with a comma.",NA,"y",18819,NA,NA,4350,18356,NA,NA,NA,"for the garden, the home, left in nature",1
"5734b743d0f8fe10e4e4415d","uy8zxxbo6s","Affordance Norms_Prolific",1,33,"2023-05-11T21:35:34+00:00",17.003170013428,12,"updated stim.csv","Version12.csv","Version 12","List 12","closet",NA,348,4.962962963,567,0.361293617,349,"BOI","-","-","Please name all of the ways you could use this object. Keep in mind that one object can have many uses. Separate your responses with a comma.",NA,"y",16128,NA,NA,1828,14934,NA,NA,NA,"storing items such as, clothes, valuables, shoes ",1
"5734b743d0f8fe10e4e4415d","uy8zxxbo6s","Affordance Norms_Prolific",1,34,"2023-05-11T21:35:57+00:00",22.96710896492,12,"updated stim.csv","Version12.csv","Version 12","List 12","mall",NA,340,4.36,1582,0.724230565,341,"BOI","-","-","Please name all of the ways you could use this object. Keep in mind that one object can have many uses. Separate your responses with a comma.",NA,"y",22099,NA,NA,1880,21695,NA,NA,NA,"a place to go shopping, an all in one hub forconsumers",1
"5734b743d0f8fe10e4e4415d","uy8zxxbo6s","Affordance Norms_Prolific",1,35,"2023-05-11T21:36:05+00:00",8.178936958313,12,"updated stim.csv","Version12.csv","Version 12","List 12","pinkie",NA,355,5.260869565,1974,0.365615857,356,"BOI","-","-","Please name all of the ways you could use this object. Keep in mind that one object can have many uses. Separate your responses with a comma.",NA,"y",7316,NA,NA,1933,6137,NA,NA,NA,"a small finger",1
"5734b743d0f8fe10e4e4415d","uy8zxxbo6s","Affordance Norms_Prolific",1,36,"2023-05-11T21:36:16+00:00",10.639503002167,12,"updated stim.csv","Version12.csv","Version 12","List 12","bartender",NA,353,4.64,156,0.909538497,354,"BOI","-","-","Please name all of the ways you could use this object. Keep in mind that one object can have many uses. Separate your responses with a comma.",NA,"y",9792,NA,NA,3471,8691,NA,NA,NA,"a person that serves drinks ",1
"5734b743d0f8fe10e4e4415d","uy8zxxbo6s","Affordance Norms_Prolific",1,37,"2023-05-11T21:36:35+00:00",18.646792888641,12,"updated stim.csv","Version12.csv","Version 12","List 12","mulberry",NA,339,4.703703704,1714,0.382484128,340,"BOI","-","-","Please name all of the ways you could use this object. Keep in mind that one object can have many uses. Separate your responses with a comma.",NA,"y",17721,NA,NA,3991,17121,NA,NA,NA,"a part of nature, also named for a type of silk ",1
"5734b743d0f8fe10e4e4415d","uy8zxxbo6s","Affordance Norms_Prolific",1,38,"2023-05-11T21:36:56+00:00",21.566645145416,12,"updated stim.csv","Version12.csv","Version 12","List 12","champagne",NA,333,5.583333333,493,0.717474064,334,"BOI","-","-","Please name all of the ways you could use this object. Keep in mind that one object can have many uses. Separate your responses with a comma.",NA,"y",20781,NA,NA,1676,20146,NA,NA,NA,"a alcoholic beverage, normally used for special occasions ",1
"5734b743d0f8fe10e4e4415d","uy8zxxbo6s","Affordance Norms_Prolific",1,39,"2023-05-11T21:37:13+00:00",17.148247003555,12,"updated stim.csv","Version12.csv","Version 12","List 12","dumbbell",NA,351,5.958333333,865,0.537684107,352,"BOI","-","-","Please name all of the ways you could use this object. Keep in mind that one object can have many uses. Separate your responses with a comma.",NA,"y",16090,NA,NA,4536,15520,NA,NA,NA,"something used for physical exercise ",1
"5734b743d0f8fe10e4e4415d","uy8zxxbo6s","Affordance Norms_Prolific",1,40,"2023-05-11T21:37:30+00:00",16.467149972916,12,"updated stim.csv","Version12.csv","Version 12","List 12","someone",NA,357,4.625,2450,0.34986421,358,"BOI","-","-","Please name all of the ways you could use this object. Keep in mind that one object can have many uses. Separate your responses with a comma.",NA,"y",15459,NA,NA,1978,14924,NA,NA,NA,"a person other than yourself",1
"57d95d59995a0b00016350e3","703byq2ic1","Affordance Norms_Prolific",1,11,"2023-05-12T00:50:24+00:00",41.458554983139,38,"updated stim.csv","Version38.csv","Version 38","List 38","gunnysack",NA,1120,4.666666667,1200,0.457718486,1121,"BOI","-","-","Please name all of the ways you could use this object. Keep in mind that one object can have many uses. Separate your responses with a comma.",NA,"y",41252,NA,NA,24608,39251,NA,NA,NA,"grain, vegetables, clothes, rice",1
"57d95d59995a0b00016350e3","703byq2ic1","Affordance Norms_Prolific",1,12,"2023-05-12T00:50:53+00:00",28.766586065292,38,"updated stim.csv","Version38.csv","Version 38","List 38","generator",NA,1139,4.47826087,1094,0.708062581,1140,"BOI","-","-","Please name all of the ways you could use this object. Keep in mind that one object can have many uses. Separate your responses with a comma.",NA,"y",28544,NA,NA,6063,26600,NA,NA,NA,"backup power, camping, construction",1
"57d95d59995a0b00016350e3","703byq2ic1","Affordance Norms_Prolific",1,13,"2023-05-12T00:51:10+00:00",17.755316019058,38,"updated stim.csv","Version38.csv","Version 38","List 38","tuxedo",NA,1119,5.259259259,2809,0.354602152,1120,"BOI","-","-","Please name all of the ways you could use this object. Keep in mind that one object can have many uses. Separate your responses with a comma.",NA,"y",17548,NA,NA,2278,15140,NA,NA,NA,"wedding, prom, banquet, awards ceremony",1
"57d95d59995a0b00016350e3","703byq2ic1","Affordance Norms_Prolific",1,14,"2023-05-12T00:51:24+00:00",13.757422924042,38,"updated stim.csv","Version38.csv","Version 38","List 38","mosquito",NA,1136,4.4,1687,0.362043012,1137,"BOI","-","-","Please name all of the ways you could use this object. Keep in mind that one object can have many uses. Separate your responses with a comma.",NA,"y",13549,NA,NA,3876,12817,NA,NA,NA,"repel, kill",1
"57d95d59995a0b00016350e3","703byq2ic1","Affordance Norms_Prolific",1,15,"2023-05-12T00:51:57+00:00",32.592773914337,38,"updated stim.csv","Version38.csv","Version 38","List 38","yacht",NA,1115,4.88,2987,0.325030182,1116,"BOI","-","-","Please name all of the ways you could use this object. Keep in mind that one object can have many uses. Separate your responses with a comma.",NA,"y",32378,NA,NA,1845,20951,NA,NA,NA,"sail, party",1
"57d95d59995a0b00016350e3","703byq2ic1","Affordance Norms_Prolific",1,16,"2023-05-12T00:52:09+00:00",12.415372133255,38,"updated stim.csv","Version38.csv","Version 38","List 38","trucks",NA,1129,6.2,2786,0.24192954,1130,"BOI","-","-","Please name all of the ways you could use this object. Keep in mind that one object can have many uses. Separate your responses with a comma.",NA,"y",12212,NA,NA,2909,10898,NA,NA,NA,"towing, driving, moving",1
"57d95d59995a0b00016350e3","703byq2ic1","Affordance Norms_Prolific",1,17,"2023-05-12T00:52:17+00:00",7.8472218513489,38,"updated stim.csv","Version38.csv","Version 38","List 38","clarinet",NA,1122,5.923076923,548,0.471063365,1123,"BOI","-","-","Please name all of the ways you could use this object. Keep in mind that one object can have many uses. Separate your responses with a comma.",NA,"y",7630,NA,NA,3618,4346,NA,NA,NA,"music",1
"57d95d59995a0b00016350e3","703byq2ic1","Affordance Norms_Prolific",1,18,"2023-05-12T00:52:33+00:00",15.867806196213,38,"updated stim.csv","Version38.csv","Version 38","List 38","cock",NA,1135,5.04,586,0.404077222,1136,"BOI","-","-","Please name all of the ways you could use this object. Keep in mind that one object can have many uses. Separate your responses with a comma.",NA,"y",15652,NA,NA,12889,14004,NA,NA,NA,"rooster",1
"57d95d59995a0b00016350e3","703byq2ic1","Affordance Norms_Prolific",1,19,"2023-05-12T00:52:42+00:00",8.8454008102417,38,"updated stim.csv","Version38.csv","Version 38","List 38","flask",NA,1131,5.416666667,1003,0.410538704,1132,"BOI","-","-","Please name all of the ways you could use this object. Keep in mind that one object can have many uses. Separate your responses with a comma.",NA,"y",8638,NA,NA,4309,7468,NA,NA,NA,"water, alcohol",1
"57d95d59995a0b00016350e3","703byq2ic1","Affordance Norms_Prolific",1,20,"2023-05-12T00:52:54+00:00",12.269509077072,38,"updated stim.csv","Version38.csv","Version 38","List 38","maidservant",NA,1121,4.333333333,1576,0.698218704,1122,"BOI","-","-","Please name all of the ways you could use this object. Keep in mind that one object can have many uses. Separate your responses with a comma.",NA,"y",12064,NA,NA,2786,8830,NA,NA,NA,"cleaning, cooking",1
"57d95d59995a0b00016350e3","703byq2ic1","Affordance Norms_Prolific",1,21,"2023-05-12T00:53:51+00:00",57.427482128143,38,"updated stim.csv","Version38.csv","Version 38","List 38","wheelhouse",NA,1112,4.434782609,2924,0.948512904,1113,"BOI","-","-","Please name all of the ways you could use this object. Keep in mind that one object can have many uses. Separate your responses with a comma.",NA,"y",57216,NA,NA,54308,55686,NA,NA,NA,"controls",1
"57d95d59995a0b00016350e3","703byq2ic1","Affordance Norms_Prolific",1,22,"2023-05-12T00:54:01+00:00",9.623459815979,38,"updated stim.csv","Version38.csv","Version 38","List 38","birthmark",NA,1123,4.333333333,223,0.501657581,1124,"BOI","-","-","Please name all of the ways you could use this object. Keep in mind that one object can have many uses. Separate your responses with a comma.",NA,"y",9411,NA,NA,4150,7861,NA,NA,NA,"identification",1
"57d95d59995a0b00016350e3","703byq2ic1","Affordance Norms_Prolific",1,23,"2023-05-12T00:54:11+00:00",10.078721046448,38,"updated stim.csv","Version38.csv","Version 38","List 38","masseuse",NA,1113,5.086956522,1616,0.143923019,1114,"BOI","-","-","Please name all of the ways you could use this object. Keep in mind that one object can have many uses. Separate your responses with a comma.",NA,"y",9835,NA,NA,4459,7827,NA,NA,NA,"massage",1
"57d95d59995a0b00016350e3","703byq2ic1","Affordance Norms_Prolific",1,24,"2023-05-12T00:54:19+00:00",7.6400821208954,38,"updated stim.csv","Version38.csv","Version 38","List 38","playground",NA,1111,4.695652174,2000,0.897793338,1112,"BOI","-","-","Please name all of the ways you could use this object. Keep in mind that one object can have many uses. Separate your responses with a comma.",NA,"y",7405,NA,NA,1953,5745,NA,NA,NA,"play, exercise",1
"57d95d59995a0b00016350e3","703byq2ic1","Affordance Norms_Prolific",1,25,"2023-05-12T00:54:30+00:00",11.561667919159,38,"updated stim.csv","Version38.csv","Version 38","List 38","vegetable",NA,1138,6.391304348,2841,0.189885729,1139,"BOI","-","-","Please name all of the ways you could use this object. Keep in mind that one object can have many uses. Separate your responses with a comma.",NA,"y",11356,NA,NA,1382,9351,NA,NA,NA,"cook, eat, feed",1
"57d95d59995a0b00016350e3","703byq2ic1","Affordance Norms_Prolific",1,26,"2023-05-12T00:54:37+00:00",6.373034954071,38,"updated stim.csv","Version38.csv","Version 38","List 38","horn",NA,1114,5.291666667,1311,0.976975589,1115,"BOI","-","-","Please name all of the ways you could use this object. Keep in mind that one object can have many uses. Separate your responses with a comma.",NA,"y",6165,NA,NA,3129,3766,NA,NA,NA,"honk",1
"57d95d59995a0b00016350e3","703byq2ic1","Affordance Norms_Prolific",1,27,"2023-05-12T00:54:45+00:00",7.8899221420288,38,"updated stim.csv","Version38.csv","Version 38","List 38","steamboat",NA,1117,4.541666667,2516,0.220694021,1118,"BOI","-","-","Please name all of the ways you could use this object. Keep in mind that one object can have many uses. Separate your responses with a comma.",NA,"y",7684,NA,NA,2957,5971,NA,NA,NA,"sailing",1
"57d95d59995a0b00016350e3","703byq2ic1","Affordance Norms_Prolific",1,28,"2023-05-12T00:54:53+00:00",7.9230129718781,38,"updated stim.csv","Version38.csv","Version 38","List 38","earphone",NA,1133,5.52173913,877,0.340328788,1134,"BOI","-","-","Please name all of the ways you could use this object. Keep in mind that one object can have many uses. Separate your responses with a comma.",NA,"y",7713,NA,NA,1756,5716,NA,NA,NA,"listening, talking",1
"57d95d59995a0b00016350e3","703byq2ic1","Affordance Norms_Prolific",1,29,"2023-05-12T00:55:06+00:00",13.151782035828,38,"updated stim.csv","Version38.csv","Version 38","List 38","crucifix",NA,1134,5.68,712,0.375137674,1135,"BOI","-","-","Please name all of the ways you could use this object. Keep in mind that one object can have many uses. Separate your responses with a comma.",NA,"y",12946,NA,NA,4252,11327,NA,NA,NA,"protection, comfort",1
"57d95d59995a0b00016350e3","703byq2ic1","Affordance Norms_Prolific",1,30,"2023-05-12T00:55:28+00:00",22.524124860764,38,"updated stim.csv","Version38.csv","Version 38","List 38","shrub",NA,1137,5.259259259,2368,0.148866381,1138,"BOI","-","-","Please name all of the ways you could use this object. Keep in mind that one object can have many uses. Separate your responses with a comma.",NA,"y",22325,NA,NA,2143,21654,NA,NA,NA,"decorate yard, maze",1
"57d95d59995a0b00016350e3","703byq2ic1","Affordance Norms_Prolific",1,31,"2023-05-12T00:55:43+00:00",14.741833925247,38,"updated stim.csv","Version38.csv","Version 38","List 38","lapdog",NA,1124,4.739130435,1465,0.335948226,1125,"BOI","-","-","Please name all of the ways you could use this object. Keep in mind that one object can have many uses. Separate your responses with a comma.",NA,"y",14526,NA,NA,2014,12725,NA,NA,NA,"pet, emotional support companion",1
"57d95d59995a0b00016350e3","703byq2ic1","Affordance Norms_Prolific",1,32,"2023-05-12T00:55:59+00:00",15.884099006653,38,"updated stim.csv","Version38.csv","Version 38","List 38","hog",NA,1125,4.407407407,1295,0.339782842,1126,"BOI","-","-","Please name all of the ways you could use this object. Keep in mind that one object can have many uses. Separate your responses with a comma.",NA,"y",15677,NA,NA,7593,13338,NA,NA,NA,"finding truffles, meat",1
"57d95d59995a0b00016350e3","703byq2ic1","Affordance Norms_Prolific",1,33,"2023-05-12T00:56:15+00:00",15.969703197479,38,"updated stim.csv","Version38.csv","Version 38","List 38","forceps",NA,1118,4.869565217,1041,0.373524564,1119,"BOI","-","-","Please name all of the ways you could use this object. Keep in mind that one object can have many uses. Separate your responses with a comma.",NA,"y",15772,NA,NA,2428,14653,NA,NA,NA,"grabbing, flipping, holding",1
"57d95d59995a0b00016350e3","703byq2ic1","Affordance Norms_Prolific",1,34,"2023-05-12T00:56:21+00:00",6.590539932251,38,"updated stim.csv","Version38.csv","Version 38","List 38","shuttle",NA,1126,4.695652174,2372,0.501454535,1127,"BOI","-","-","Please name all of the ways you could use this object. Keep in mind that one object can have many uses. Separate your responses with a comma.",NA,"y",6382,NA,NA,2330,5179,NA,NA,NA,"driving, riding",1
"57d95d59995a0b00016350e3","703byq2ic1","Affordance Norms_Prolific",1,35,"2023-05-12T00:56:49+00:00",27.174944877625,38,"updated stim.csv","Version38.csv","Version 38","List 38","entomologist",NA,1127,4.583333333,911,0.614583519,1128,"BOI","-","-","Please name all of the ways you could use this object. Keep in mind that one object can have many uses. Separate your responses with a comma.",NA,"y",26965,NA,NA,15907,25592,NA,NA,NA,"bug care, bug identification",1
"57d95d59995a0b00016350e3","703byq2ic1","Affordance Norms_Prolific",1,36,"2023-05-12T00:57:01+00:00",11.996759176254,38,"updated stim.csv","Version38.csv","Version 38","List 38","cathedral",NA,1132,4.5,460,0.986915949,1133,"BOI","-","-","Please name all of the ways you could use this object. Keep in mind that one object can have many uses. Separate your responses with a comma.",NA,"y",11797,NA,NA,1753,10554,NA,NA,NA,"wedding, funeral, church service",1
"57d95d59995a0b00016350e3","703byq2ic1","Affordance Norms_Prolific",1,37,"2023-05-12T00:57:09+00:00",8.9590148925781,38,"updated stim.csv","Version38.csv","Version 38","List 38","stamp",NA,1130,5.304347826,2506,0.459475683,1131,"BOI","-","-","Please name all of the ways you could use this object. Keep in mind that one object can have many uses. Separate your responses with a comma.",NA,"y",8751,NA,NA,3679,7115,NA,NA,NA,"mail, collecting",1
"57d95d59995a0b00016350e3","703byq2ic1","Affordance Norms_Prolific",1,38,"2023-05-12T00:57:17+00:00",7.9370579719543,38,"updated stim.csv","Version38.csv","Version 38","List 38","amphibian",NA,1128,4.357142857,37,0.854205204,1129,"BOI","-","-","Please name all of the ways you could use this object. Keep in mind that one object can have many uses. Separate your responses with a comma.",NA,"y",7720,NA,NA,4951,6161,NA,NA,NA,"frog",1
"57d95d59995a0b00016350e3","703byq2ic1","Affordance Norms_Prolific",1,39,"2023-05-12T00:57:28+00:00",10.43630695343,38,"updated stim.csv","Version38.csv","Version 38","List 38","rhinestone",NA,1116,5.291666667,2162,0.764546581,1117,"BOI","-","-","Please name all of the ways you could use this object. Keep in mind that one object can have many uses. Separate your responses with a comma.",NA,"y",10189,NA,NA,2375,9014,NA,NA,NA,"bedazzling, decoration",1
"57d95d59995a0b00016350e3","703byq2ic1","Affordance Norms_Prolific",1,40,"2023-05-12T00:57:39+00:00",10.674772977829,38,"updated stim.csv","Version38.csv","Version 38","List 38","algae",NA,1140,4.458333333,27,0.687227414,1141,"BOI","-","-","Please name all of the ways you could use this object. Keep in mind that one object can have many uses. Separate your responses with a comma.",NA,"y",10460,NA,NA,2331,8782,NA,NA,NA,"food, supplement",1
"57dd186e6598aa0001992616","bibjjuhdg7","Affordance Norms_Prolific",1,11,"2023-05-11T22:56:35+00:00",26.642768859863,31,"updated stim.csv","Version31.csv","Version 31","List 31","dentist",NA,925,5.038461538,775,0.139852212,926,"BOI","-","-","Please name all of the ways you could use this object. Keep in mind that one object can have many uses. Separate your responses with a comma.",NA,"y",26240,NA,NA,9937,25457,NA,NA,NA,"clean teeth, check for cavities, get x rays, check for throat cancer",1
"57dd186e6598aa0001992616","bibjjuhdg7","Affordance Norms_Prolific",1,12,"2023-05-11T22:57:01+00:00",26.018000125885,31,"updated stim.csv","Version31.csv","Version 31","List 31","gravel",NA,914,5.461538462,1164,0.895035474,915,"BOI","-","-","Please name all of the ways you could use this object. Keep in mind that one object can have many uses. Separate your responses with a comma.",NA,"y",25538,NA,NA,3908,25114,NA,NA,NA,"get someone's attention, use for self defense, rule on a court case",1
"57dd186e6598aa0001992616","bibjjuhdg7","Affordance Norms_Prolific",1,13,"2023-05-11T22:57:19+00:00",18.603962898254,31,"updated stim.csv","Version31.csv","Version 31","List 31","goatee",NA,917,4.375,1123,0.738463999,918,"BOI","-","-","Please name all of the ways you could use this object. Keep in mind that one object can have many uses. Separate your responses with a comma.",NA,"y",18123,NA,NA,7076,17755,NA,NA,NA,"show masculanity, hide scars on face, keep warm",1
"57dd186e6598aa0001992616","bibjjuhdg7","Affordance Norms_Prolific",1,14,"2023-05-11T22:57:57+00:00",37.136739015579,31,"updated stim.csv","Version31.csv","Version 31","List 31","outfit",NA,924,6.130434783,1828,0.398220856,925,"BOI","-","-","Please name all of the ways you could use this object. Keep in mind that one object can have many uses. Separate your responses with a comma.",NA,"y",36780,NA,NA,10616,36523,NA,NA,NA,"keep warm, put stuff in pockets, show creativity, express yourself, burn to keep warm",1
"57dd186e6598aa0001992616","bibjjuhdg7","Affordance Norms_Prolific",1,15,"2023-05-11T22:58:11+00:00",14.800830125809,31,"updated stim.csv","Version31.csv","Version 31","List 31","nightcaps",NA,903,4.708333333,1767,0.050096921,904,"BOI","-","-","Please name all of the ways you could use this object. Keep in mind that one object can have many uses. Separate your responses with a comma.",NA,"y",14490,NA,NA,5241,14369,NA,NA,NA,"help go to sleep, use as a shower cap, collect water",1
"57dd186e6598aa0001992616","bibjjuhdg7","Affordance Norms_Prolific",1,16,"2023-05-11T22:58:48+00:00",37.05046081543,31,"updated stim.csv","Version31.csv","Version 31","List 31","drain",NA,907,4.291666667,836,0.644056443,908,"BOI","-","-","Please name all of the ways you could use this object. Keep in mind that one object can have many uses. Separate your responses with a comma.",NA,"y",36737,NA,NA,2854,27119,NA,NA,NA,"disperse liquids, get rid of incriminating evidence easily, ",1
"57dd186e6598aa0001992616","bibjjuhdg7","Affordance Norms_Prolific",1,17,"2023-05-11T22:59:13+00:00",24.174106121063,31,"updated stim.csv","Version31.csv","Version 31","List 31","fiddle",NA,929,6.043478261,970,0.5122889,930,"BOI","-","-","Please name all of the ways you could use this object. Keep in mind that one object can have many uses. Separate your responses with a comma.",NA,"y",23859,NA,NA,3364,23314,NA,NA,NA,"play music, get someone's attention, use as a weapon, play catch with",1
"57dd186e6598aa0001992616","bibjjuhdg7","Affordance Norms_Prolific",1,18,"2023-05-11T22:59:34+00:00",20.918843984604,31,"updated stim.csv","Version31.csv","Version 31","List 31","crossword",NA,920,4.555555556,707,0.583325766,921,"BOI","-","-","Please name all of the ways you could use this object. Keep in mind that one object can have many uses. Separate your responses with a comma.",NA,"y",20596,NA,NA,6876,14587,NA,NA,NA,"keep your mind sharp",1
"57dd186e6598aa0001992616","bibjjuhdg7","Affordance Norms_Prolific",1,19,"2023-05-11T22:59:48+00:00",14.726064920425,31,"updated stim.csv","Version31.csv","Version 31","List 31","prop",NA,918,5.125,2074,0.316932676,919,"BOI","-","-","Please name all of the ways you could use this object. Keep in mind that one object can have many uses. Separate your responses with a comma.",NA,"y",14416,NA,NA,6024,14217,NA,NA,NA,"paperweight, add life to the scene",1
"57dd186e6598aa0001992616","bibjjuhdg7","Affordance Norms_Prolific",1,20,"2023-05-11T23:00:23+00:00",35.13325715065,31,"updated stim.csv","Version31.csv","Version 31","List 31","dynamite",NA,926,5.260869565,874,0.78215374,927,"BOI","-","-","Please name all of the ways you could use this object. Keep in mind that one object can have many uses. Separate your responses with a comma.",NA,"y",34822,NA,NA,3509,34591,NA,NA,NA,"blow up something easily, terrorize people with, commit crimes with, blast through mines with, use to built tunnels, bunker buster",1
"57dd186e6598aa0001992616","bibjjuhdg7","Affordance Norms_Prolific",1,21,"2023-05-11T23:00:45+00:00",21.623239994049,31,"updated stim.csv","Version31.csv","Version 31","List 31","worm",NA,919,4.681818182,2975,0.797543421,920,"BOI","-","-","Please name all of the ways you could use this object. Keep in mind that one object can have many uses. Separate your responses with a comma.",NA,"y",21129,NA,NA,3156,20953,NA,NA,NA,"food, compost bin, use to help garden soil, feed birds",1
"57dd186e6598aa0001992616","bibjjuhdg7","Affordance Norms_Prolific",1,22,"2023-05-11T23:01:20+00:00",34.858645915985,31,"updated stim.csv","Version31.csv","Version 31","List 31","daisy",NA,928,5,751,0.900654949,929,"BOI","-","-","Please name all of the ways you could use this object. Keep in mind that one object can have many uses. Separate your responses with a comma.",NA,"y",34185,NA,NA,5260,34025,NA,NA,NA,"help birds pollenate, help butterflies pollenate, make yard look pretty, use as compost",1
"57dd186e6598aa0001992616","bibjjuhdg7","Affordance Norms_Prolific",1,23,"2023-05-11T23:01:38+00:00",18.412487983704,31,"updated stim.csv","Version31.csv","Version 31","List 31","folder",NA,916,6.260869565,1024,0.704916345,917,"BOI","-","-","Please name all of the ways you could use this object. Keep in mind that one object can have many uses. Separate your responses with a comma.",NA,"y",17416,NA,NA,2761,17200,NA,NA,NA,"help stay organized, find things easier, use as frisbee",1
"57dd186e6598aa0001992616","bibjjuhdg7","Affordance Norms_Prolific",1,24,"2023-05-11T23:02:09+00:00",31.143601894379,31,"updated stim.csv","Version31.csv","Version 31","List 31","marmalade",NA,915,6.041666667,1610,0.374321308,916,"BOI","-","-","Please name all of the ways you could use this object. Keep in mind that one object can have many uses. Separate your responses with a comma.",NA,"y",30790,NA,NA,26412,30527,NA,NA,NA,"improve taste of dishes",0.891
"57dd186e6598aa0001992616","bibjjuhdg7","Affordance Norms_Prolific",1,25,"2023-05-11T23:02:34+00:00",24.439840078354,31,"updated stim.csv","Version31.csv","Version 31","List 31","tie",NA,906,6.260869565,2694,0.276546396,907,"BOI","-","-","Please name all of the ways you could use this object. Keep in mind that one object can have many uses. Separate your responses with a comma.",NA,"y",24098,NA,NA,2360,19688,NA,NA,NA,"look professional ,use as a tourniquet, tie someone up with, ",1
"57dd186e6598aa0001992616","bibjjuhdg7","Affordance Norms_Prolific",1,26,"2023-05-11T23:02:58+00:00",24.158221006393,31,"updated stim.csv","Version31.csv","Version 31","List 31","pub",NA,922,4.666666667,2084,0.25952428,923,"BOI","-","-","Please name all of the ways you could use this object. Keep in mind that one object can have many uses. Separate your responses with a comma.",NA,"y",23819,NA,NA,7587,23602,NA,NA,NA,"place to drink beer at, have a good time with friends at, place to meet new people",1
"57dd186e6598aa0001992616","bibjjuhdg7","Affordance Norms_Prolific",1,27,"2023-05-11T23:03:48+00:00",49.567944049835,31,"updated stim.csv","Version31.csv","Version 31","List 31","sailcloth",NA,901,4.454545455,2217,0.406078443,902,"BOI","-","-","Please name all of the ways you could use this object. Keep in mind that one object can have many uses. Separate your responses with a comma.",NA,"y",49238,NA,NA,15157,48829,NA,NA,NA,"sail across the ocean using the wind, use to signal for help, use as a teepee, use to carry things in",0.963
"57dd186e6598aa0001992616","bibjjuhdg7","Affordance Norms_Prolific",1,28,"2023-05-11T23:04:21+00:00",33.248010873795,31,"updated stim.csv","Version31.csv","Version 31","List 31","incubator",NA,912,4.291666667,1352,0.921173331,913,"BOI","-","-","Please name all of the ways you could use this object. Keep in mind that one object can have many uses. Separate your responses with a comma.",NA,"y",32905,NA,NA,16017,32250,NA,NA,NA,"keep eggs warm, put bricks in then pull bricks out to put into bed to keep bed warm",0.922
"57dd186e6598aa0001992616","bibjjuhdg7","Affordance Norms_Prolific",1,29,"2023-05-11T23:04:39+00:00",17.94118309021,31,"updated stim.csv","Version31.csv","Version 31","List 31","theologian",NA,913,4.47826087,2674,0.353924439,914,"BOI","-","-","Please name all of the ways you could use this object. Keep in mind that one object can have many uses. Separate your responses with a comma.",NA,"y",17601,NA,NA,5994,17338,NA,NA,NA,"learn about scripture, person to laugh at and make fun of",1
"57dd186e6598aa0001992616","bibjjuhdg7","Affordance Norms_Prolific",1,30,"2023-05-11T23:05:01+00:00",21.929373979568,31,"updated stim.csv","Version31.csv","Version 31","List 31","latch",NA,910,5.541666667,1469,0.403713267,911,"BOI","-","-","Please name all of the ways you could use this object. Keep in mind that one object can have many uses. Separate your responses with a comma.",NA,"y",21592,NA,NA,8921,21313,NA,NA,NA,"keep door secure, keep intruders out, stab someone with it",1
"57dd186e6598aa0001992616","bibjjuhdg7","Affordance Norms_Prolific",1,31,"2023-05-11T23:05:37+00:00",36.664041996002,31,"updated stim.csv","Version31.csv","Version 31","List 31","shrubbery",NA,904,4.653846154,2369,0.699361245,905,"BOI","-","-","Please name all of the ways you could use this object. Keep in mind that one object can have many uses. Separate your responses with a comma.",NA,"y",36369,NA,NA,5540,27213,NA,NA,NA,"provide nests for birds, provide cover for animals, make yard look nice, add value to property, ",1
"57dd186e6598aa0001992616","bibjjuhdg7","Affordance Norms_Prolific",1,32,"2023-05-11T23:06:00+00:00",22.863480091095,31,"updated stim.csv","Version31.csv","Version 31","List 31","warden",NA,909,4.434782609,2893,0.782765752,910,"BOI","-","-","Please name all of the ways you could use this object. Keep in mind that one object can have many uses. Separate your responses with a comma.",NA,"y",22538,NA,NA,6859,22146,NA,NA,NA,"to keep the population safe, to oversea the prison",1
"57dd186e6598aa0001992616","bibjjuhdg7","Affordance Norms_Prolific",1,33,"2023-05-11T23:06:10+00:00",9.8938179016113,31,"updated stim.csv","Version31.csv","Version 31","List 31","memo",NA,927,5.04,1642,0.10302145,928,"BOI","-","-","Please name all of the ways you could use this object. Keep in mind that one object can have many uses. Separate your responses with a comma.",NA,"y",9576,NA,NA,4288,8127,NA,NA,NA,"send out notices, inform people",1
"57dd186e6598aa0001992616","bibjjuhdg7","Affordance Norms_Prolific",1,34,"2023-05-11T23:06:31+00:00",20.966232061386,31,"updated stim.csv","Version31.csv","Version 31","List 31","hurdle",NA,908,4.36,1337,0.835252702,909,"BOI","-","-","Please name all of the ways you could use this object. Keep in mind that one object can have many uses. Separate your responses with a comma.",NA,"y",20652,NA,NA,2828,20383,NA,NA,NA,"practice jumping ability, use a weapon, use to keep someone or something away from you",1
"57dd186e6598aa0001992616","bibjjuhdg7","Affordance Norms_Prolific",1,35,"2023-05-11T23:06:48+00:00",16.624167919159,31,"updated stim.csv","Version31.csv","Version 31","List 31","wing",NA,905,4.48,2949,0.673392846,906,"BOI","-","-","Please name all of the ways you could use this object. Keep in mind that one object can have many uses. Separate your responses with a comma.",NA,"y",16315,NA,NA,5300,16194,NA,NA,NA,"use to fly, use to glide, move aircurrents",1
"57dd186e6598aa0001992616","bibjjuhdg7","Affordance Norms_Prolific",1,36,"2023-05-11T23:07:05+00:00",17.27467417717,31,"updated stim.csv","Version31.csv","Version 31","List 31","hairstyle",NA,911,4.68,1217,0.474140169,912,"BOI","-","-","Please name all of the ways you could use this object. Keep in mind that one object can have many uses. Separate your responses with a comma.",NA,"y",16917,NA,NA,3791,16734,NA,NA,NA,"show creativity, express yourself, use hair as rope",1
"57dd186e6598aa0001992616","bibjjuhdg7","Affordance Norms_Prolific",1,37,"2023-05-11T23:07:33+00:00",28.168019771576,31,"updated stim.csv","Version31.csv","Version 31","List 31","chronometer",NA,930,4.5,539,0.284768844,931,"BOI","-","-","Please name all of the ways you could use this object. Keep in mind that one object can have many uses. Separate your responses with a comma.",NA,"y",27813,NA,NA,16389,27462,NA,NA,NA,"tell time, paperweight, reflect sunlight",0.904
"57dd186e6598aa0001992616","bibjjuhdg7","Affordance Norms_Prolific",1,38,"2023-05-11T23:08:00+00:00",26.351388216019,31,"updated stim.csv","Version31.csv","Version 31","List 31","compressor",NA,923,4.5,615,0.466861581,924,"BOI","-","-","Please name all of the ways you could use this object. Keep in mind that one object can have many uses. Separate your responses with a comma.",NA,"y",26003,NA,NA,19955,25457,NA,NA,NA,"run water uphill, compress air",0.857
"57dd186e6598aa0001992616","bibjjuhdg7","Affordance Norms_Prolific",1,39,"2023-05-11T23:08:08+00:00",7.9754238128662,31,"updated stim.csv","Version31.csv","Version 31","List 31","repairer",NA,902,4.583333333,2155,0.34044344,903,"BOI","-","-","Please name all of the ways you could use this object. Keep in mind that one object can have many uses. Separate your responses with a comma.",NA,"y",7649,NA,NA,2143,6449,NA,NA,NA,"fix house, add value to house",1
"57dd186e6598aa0001992616","bibjjuhdg7","Affordance Norms_Prolific",1,40,"2023-05-11T23:08:20+00:00",12.896790981293,31,"updated stim.csv","Version31.csv","Version 31","List 31","mansions",NA,921,4.260869565,1594,0.475635847,922,"BOI","-","-","Please name all of the ways you could use this object. Keep in mind that one object can have many uses. Separate your responses with a comma.",NA,"y",12579,NA,NA,2521,11849,NA,NA,NA,"live in, sell, admire",1
"58aca85e0da7f10001de92d4","knr2a8naf5","Affordance Norms_Prolific",1,11,"2023-05-11T21:26:13+00:00",27.680145978928,9,"updated stim.csv","Version9.csv","Version 9","List 9","platter",NA,268,5.75,1998,0.769402376,269,"BOI","-","-","Please name all of the ways you could use this object. Keep in mind that one object can have many uses. Separate your responses with a comma.",NA,"y",26886,NA,NA,15079,20405,NA,NA,NA,"serve,eat,",0.923
"58aca85e0da7f10001de92d4","knr2a8naf5","Affordance Norms_Prolific",1,12,"2023-05-11T21:26:25+00:00",12.100149154663,9,"updated stim.csv","Version9.csv","Version 9","List 9","purse",NA,265,6.291666667,2105,0.327813639,266,"BOI","-","-","Please name all of the ways you could use this object. Keep in mind that one object can have many uses. Separate your responses with a comma.",NA,"y",11283,NA,NA,2563,9492,NA,NA,NA,"money,belongings",1
"58aca85e0da7f10001de92d4","knr2a8naf5","Affordance Norms_Prolific",1,13,"2023-05-11T21:27:04+00:00",39.047889947891,9,"updated stim.csv","Version9.csv","Version 9","List 9","mayor",NA,241,4.28,1629,0.300205289,242,"BOI","-","-","Please name all of the ways you could use this object. Keep in mind that one object can have many uses. Separate your responses with a comma.",NA,"y",38249,NA,NA,18409,36912,NA,NA,NA,"govern,rule,solve problems,elected",0.917
"58aca85e0da7f10001de92d4","knr2a8naf5","Affordance Norms_Prolific",1,14,"2023-05-11T21:27:23+00:00",19.036515951157,9,"updated stim.csv","Version9.csv","Version 9","List 9","saleslady",NA,264,4.28,2221,0.151974823,265,"BOI","-","-","Please name all of the ways you could use this object. Keep in mind that one object can have many uses. Separate your responses with a comma.",NA,"y",18204,NA,NA,3317,16393,NA,NA,NA,"sale,promote,advertise",1
"58aca85e0da7f10001de92d4","knr2a8naf5","Affordance Norms_Prolific",1,15,"2023-05-11T21:27:40+00:00",17.020889043808,9,"updated stim.csv","Version9.csv","Version 9","List 9","elbow",NA,258,6.458333333,896,0.003681913,259,"BOI","-","-","Please name all of the ways you could use this object. Keep in mind that one object can have many uses. Separate your responses with a comma.",NA,"y",16222,NA,NA,3165,14879,NA,NA,NA,"flex,move,hurt",1
