"Username","ID","ExperimentName","Session","Trial","Date","TimeDif","Condition.Number","Stimuli.File","Order.File","Condition.Description","Condition.Notes","Stimuli.Cue","Stimuli.Answer","Stimuli.Shuffle","Stimuli.Stimuli.Notes","Stimuli.Value","Stimuli.Rand","Procedure.Item","Procedure.Trial.Type","Procedure.Max.Time","Procedure.Min.Time","Procedure.Text","Procedure.Procedure.Notes","Procedure.Shuffle","Response.RT","Response.Response","Response.Accuracy","Response.RTfirst","Response.RTlast","Response.strictAcc","Response.lenientAcc","Response.focus","Response.JOL","Response.Focus"
"54a9b72efdf99b57183eb640","j8k7qm2uqz","Affordance Norms_Prolific",1,11,"2023-01-06T18:20:00+00:00",13.821547031403,24,"updated stim.csv","Version24.csv","Version 24","List 24","floor",NA,696,5.666666667,1008,0.184955478,697,"BOI","-","-","Please name all of the ways you could use this object. Keep in mind that one object can have many uses. Separate your responses with a comma.",NA,"y",13291,NA,NA,4435,12710,NA,NA,NA,"walking, jumping, lying down, dancing",1
"54a9b72efdf99b57183eb640","j8k7qm2uqz","Affordance Norms_Prolific",1,12,"2023-01-06T18:20:08+00:00",8.024806022644,24,"updated stim.csv","Version24.csv","Version 24","List 24","bosom",NA,718,5.52,286,0.945975664,719,"BOI","-","-","Please name all of the ways you could use this object. Keep in mind that one object can have many uses. Separate your responses with a comma.",NA,"y",7628,NA,NA,4133,7061,NA,NA,NA,"no idea what this is",1
"54a9b72efdf99b57183eb640","j8k7qm2uqz","Affordance Norms_Prolific",1,13,"2023-01-06T18:20:21+00:00",12.735800981522,24,"updated stim.csv","Version24.csv","Version 24","List 24","smuggler",NA,695,4.481481481,2424,0.190556966,696,"BOI","-","-","Please name all of the ways you could use this object. Keep in mind that one object can have many uses. Separate your responses with a comma.",NA,"y",12297,NA,NA,4420,11729,NA,NA,NA,"contraband, spying",1
"54a9b72efdf99b57183eb640","j8k7qm2uqz","Affordance Norms_Prolific",1,14,"2023-01-06T18:20:32+00:00",10.475848913193,24,"updated stim.csv","Version24.csv","Version 24","List 24","bong",NA,715,5.6,268,0.661474605,716,"BOI","-","-","Please name all of the ways you could use this object. Keep in mind that one object can have many uses. Separate your responses with a comma.",NA,"y",10097,NA,NA,1504,9430,NA,NA,NA,"smoking, passing around, socialising",1
"54a9b72efdf99b57183eb640","j8k7qm2uqz","Affordance Norms_Prolific",1,15,"2023-01-06T18:20:40+00:00",7.9621231555939,24,"updated stim.csv","Version24.csv","Version 24","List 24","placard",NA,693,4.458333333,1983,0.329424591,694,"BOI","-","-","Please name all of the ways you could use this object. Keep in mind that one object can have many uses. Separate your responses with a comma.",NA,"y",7535,NA,NA,1886,4466,NA,NA,NA,"advertising, ",1
"54a9b72efdf99b57183eb640","j8k7qm2uqz","Affordance Norms_Prolific",1,16,"2023-01-06T18:20:52+00:00",12.201128959656,24,"updated stim.csv","Version24.csv","Version 24","List 24","parcel",NA,692,5.583333333,1873,0.961736569,693,"BOI","-","-","Please name all of the ways you could use this object. Keep in mind that one object can have many uses. Separate your responses with a comma.",NA,"y",11802,NA,NA,4397,10800,NA,NA,NA,"opening, sending, presents,",1
"54a9b72efdf99b57183eb640","j8k7qm2uqz","Affordance Norms_Prolific",1,17,"2023-01-06T18:21:03+00:00",11.012578010559,24,"updated stim.csv","Version24.csv","Version 24","List 24","wildlife",NA,700,4.44,2939,0.933425079,701,"BOI","-","-","Please name all of the ways you could use this object. Keep in mind that one object can have many uses. Separate your responses with a comma.",NA,"y",10638,NA,NA,1770,8668,NA,NA,NA,"looking at, studying, aweing",1
"54a9b72efdf99b57183eb640","j8k7qm2uqz","Affordance Norms_Prolific",1,18,"2023-01-06T18:21:21+00:00",18.545939922333,24,"updated stim.csv","Version24.csv","Version 24","List 24","fir",NA,691,4.272727273,982,0.898314933,692,"BOI","-","-","Please name all of the ways you could use this object. Keep in mind that one object can have many uses. Separate your responses with a comma.",NA,"y",18169,NA,NA,8793,17546,NA,NA,NA,"heat, fire, keeping warm",1
"54a9b72efdf99b57183eb640","j8k7qm2uqz","Affordance Norms_Prolific",1,19,"2023-01-06T18:21:26+00:00",4.7560660839081,24,"updated stim.csv","Version24.csv","Version 24","List 24","cricket",NA,699,4.653846154,695,0.214254514,700,"BOI","-","-","Please name all of the ways you could use this object. Keep in mind that one object can have many uses. Separate your responses with a comma.",NA,"y",4333,NA,NA,1560,3810,NA,NA,NA,"playing, watching",1
"54a9b72efdf99b57183eb640","j8k7qm2uqz","Affordance Norms_Prolific",1,20,"2023-01-06T18:21:38+00:00",12.113433837891,24,"updated stim.csv","Version24.csv","Version 24","List 24","charcoal",NA,702,4.740740741,496,0.655554816,703,"BOI","-","-","Please name all of the ways you could use this object. Keep in mind that one object can have many uses. Separate your responses with a comma.",NA,"y",11714,NA,NA,1804,11430,NA,NA,NA,"drawing, heat, fire, making a mess",1
"54a9b72efdf99b57183eb640","j8k7qm2uqz","Affordance Norms_Prolific",1,21,"2023-01-06T18:21:45+00:00",7.1012861728668,24,"updated stim.csv","Version24.csv","Version 24","List 24","puck",NA,705,4.608695652,2087,0.5338711,706,"BOI","-","-","Please name all of the ways you could use this object. Keep in mind that one object can have many uses. Separate your responses with a comma.",NA,"y",6707,NA,NA,1702,5333,NA,NA,NA,"hockey, hitting, ",1
"54a9b72efdf99b57183eb640","j8k7qm2uqz","Affordance Norms_Prolific",1,22,"2023-01-06T18:21:51+00:00",5.9120478630066,24,"updated stim.csv","Version24.csv","Version 24","List 24","herb",NA,709,5.826086957,1280,0.488867335,710,"BOI","-","-","Please name all of the ways you could use this object. Keep in mind that one object can have many uses. Separate your responses with a comma.",NA,"y",5543,NA,NA,1294,4975,NA,NA,NA,"cooking, smelling, growing",1
"54a9b72efdf99b57183eb640","j8k7qm2uqz","Affordance Norms_Prolific",1,23,"2023-01-06T18:22:06+00:00",14.378055095673,24,"updated stim.csv","Version24.csv","Version 24","List 24","nightlight",NA,706,4.821428571,1772,0.978531,707,"BOI","-","-","Please name all of the ways you could use this object. Keep in mind that one object can have many uses. Separate your responses with a comma.",NA,"y",14017,NA,NA,8537,13495,NA,NA,NA,"safety, marking the way",1
"54a9b72efdf99b57183eb640","j8k7qm2uqz","Affordance Norms_Prolific",1,24,"2023-01-06T18:22:12+00:00",6.6320929527283,24,"updated stim.csv","Version24.csv","Version 24","List 24","enemy",NA,694,4.375,907,0.693147684,695,"BOI","-","-","Please name all of the ways you could use this object. Keep in mind that one object can have many uses. Separate your responses with a comma.",NA,"y",6252,NA,NA,5167,5930,NA,NA,NA,"unsure",1
"54a9b72efdf99b57183eb640","j8k7qm2uqz","Affordance Norms_Prolific",1,25,"2023-01-06T18:22:21+00:00",9.1476929187775,24,"updated stim.csv","Version24.csv","Version 24","List 24","lampshade",NA,701,5.296296296,1458,0.188922573,702,"BOI","-","-","Please name all of the ways you could use this object. Keep in mind that one object can have many uses. Separate your responses with a comma.",NA,"y",8749,NA,NA,3025,8020,NA,NA,NA,"decoration, light diffusion",1
"54a9b72efdf99b57183eb640","j8k7qm2uqz","Affordance Norms_Prolific",1,26,"2023-01-06T18:22:29+00:00",7.6591532230377,24,"updated stim.csv","Version24.csv","Version 24","List 24","harp",NA,697,5.8,1253,0.109632044,698,"BOI","-","-","Please name all of the ways you could use this object. Keep in mind that one object can have many uses. Separate your responses with a comma.",NA,"y",7235,NA,NA,1187,6710,NA,NA,NA,"playing, looking at, plucking",1
"54a9b72efdf99b57183eb640","j8k7qm2uqz","Affordance Norms_Prolific",1,27,"2023-01-06T18:22:38+00:00",8.9870038032532,24,"updated stim.csv","Version24.csv","Version 24","List 24","hibiscus",NA,712,4.952380952,1285,0.626368484,713,"BOI","-","-","Please name all of the ways you could use this object. Keep in mind that one object can have many uses. Separate your responses with a comma.",NA,"y",8552,NA,NA,2484,8031,NA,NA,NA,"drinking, eating, cooking, smelling",1
"54a9b72efdf99b57183eb640","j8k7qm2uqz","Affordance Norms_Prolific",1,28,"2023-01-06T18:22:50+00:00",11.520291090012,24,"updated stim.csv","Version24.csv","Version 24","List 24","sugar",NA,713,6.173913043,2580,0.173362248,714,"BOI","-","-","Please name all of the ways you could use this object. Keep in mind that one object can have many uses. Separate your responses with a comma.",NA,"y",11153,NA,NA,1206,10706,NA,NA,NA,"eating, cooking, baking, cookies",1
"54a9b72efdf99b57183eb640","j8k7qm2uqz","Affordance Norms_Prolific",1,29,"2023-01-06T18:23:01+00:00",11.420252084732,24,"updated stim.csv","Version24.csv","Version 24","List 24","gymnasium",NA,698,4.464285714,1204,0.224441114,699,"BOI","-","-","Please name all of the ways you could use this object. Keep in mind that one object can have many uses. Separate your responses with a comma.",NA,"y",11024,NA,NA,1374,10601,NA,NA,NA,"working out, gymnastics, eating lunch, studying",1
"54a9b72efdf99b57183eb640","j8k7qm2uqz","Affordance Norms_Prolific",1,30,"2023-01-06T18:23:08+00:00",6.9323480129242,24,"updated stim.csv","Version24.csv","Version 24","List 24","giblets",NA,719,4.714285714,1101,0.668572345,720,"BOI","-","-","Please name all of the ways you could use this object. Keep in mind that one object can have many uses. Separate your responses with a comma.",NA,"y",6547,NA,NA,3245,5953,NA,NA,NA,"throwing in the bin",1
"54a9b72efdf99b57183eb640","j8k7qm2uqz","Affordance Norms_Prolific",1,31,"2023-01-06T18:23:13+00:00",5.4969809055328,24,"updated stim.csv","Version24.csv","Version 24","List 24","artichoke",NA,717,5.708333333,78,0.027728576,718,"BOI","-","-","Please name all of the ways you could use this object. Keep in mind that one object can have many uses. Separate your responses with a comma.",NA,"y",5105,NA,NA,1455,4703,NA,NA,NA,"eating, chopping",1
"54a9b72efdf99b57183eb640","j8k7qm2uqz","Affordance Norms_Prolific",1,32,"2023-01-06T18:23:20+00:00",6.4748859405518,24,"updated stim.csv","Version24.csv","Version 24","List 24","quarters",NA,716,5.909090909,2112,0.421921474,717,"BOI","-","-","Please name all of the ways you could use this object. Keep in mind that one object can have many uses. Separate your responses with a comma.",NA,"y",6072,NA,NA,2316,5610,NA,NA,NA,"spending, saving",1
"54a9b72efdf99b57183eb640","j8k7qm2uqz","Affordance Norms_Prolific",1,33,"2023-01-06T18:23:39+00:00",19.129060983658,24,"updated stim.csv","Version24.csv","Version 24","List 24","shin",NA,704,5.592592593,2339,0.519515423,705,"BOI","-","-","Please name all of the ways you could use this object. Keep in mind that one object can have many uses. Separate your responses with a comma.",NA,"y",18759,NA,NA,13213,17020,NA,NA,NA,"kicking, ",1
"54a9b72efdf99b57183eb640","j8k7qm2uqz","Affordance Norms_Prolific",1,34,"2023-01-06T18:23:55+00:00",15.842550039291,24,"updated stim.csv","Version24.csv","Version 24","List 24","cactus",NA,707,4.5,392,0.569639251,708,"BOI","-","-","Please name all of the ways you could use this object. Keep in mind that one object can have many uses. Separate your responses with a comma.",NA,"y",15419,NA,NA,3586,14909,NA,NA,NA,"pricking finger, watering, pruning, looking at",1
"54a9b72efdf99b57183eb640","j8k7qm2uqz","Affordance Norms_Prolific",1,35,"2023-01-06T18:24:08+00:00",12.741630077362,24,"updated stim.csv","Version24.csv","Version 24","List 24","breast",NA,708,5.4,312,0.043510224,709,"BOI","-","-","Please name all of the ways you could use this object. Keep in mind that one object can have many uses. Separate your responses with a comma.",NA,"y",12314,NA,NA,4223,11834,NA,NA,NA,"bounce, feeding a baby",1
"54a9b72efdf99b57183eb640","j8k7qm2uqz","Affordance Norms_Prolific",1,36,"2023-01-06T18:24:19+00:00",10.997442960739,24,"updated stim.csv","Version24.csv","Version 24","List 24","rock",NA,703,5.48,2183,0.337903261,704,"BOI","-","-","Please name all of the ways you could use this object. Keep in mind that one object can have many uses. Separate your responses with a comma.",NA,"y",10599,NA,NA,2595,10108,NA,NA,NA,"dance, look at, paint",1
"54a9b72efdf99b57183eb640","j8k7qm2uqz","Affordance Norms_Prolific",1,37,"2023-01-06T18:24:31+00:00",12.820383071899,24,"updated stim.csv","Version24.csv","Version 24","List 24","leotard",NA,720,5.363636364,1493,0.713631949,721,"BOI","-","-","Please name all of the ways you could use this object. Keep in mind that one object can have many uses. Separate your responses with a comma.",NA,"y",12449,NA,NA,6797,11905,NA,NA,NA,"wear, dance, perform",1
"54a9b72efdf99b57183eb640","j8k7qm2uqz","Affordance Norms_Prolific",1,38,"2023-01-06T18:24:38+00:00",6.2235820293427,24,"updated stim.csv","Version24.csv","Version 24","List 24","blueberry",NA,710,6,249,0.943458705,711,"BOI","-","-","Please name all of the ways you could use this object. Keep in mind that one object can have many uses. Separate your responses with a comma.",NA,"y",5834,NA,NA,1138,4797,NA,NA,NA,"eat, drink, squash",1
"54a9b72efdf99b57183eb640","j8k7qm2uqz","Affordance Norms_Prolific",1,39,"2023-01-06T18:24:48+00:00",10.311587810516,24,"updated stim.csv","Version24.csv","Version 24","List 24","woodpecker",NA,714,4.833333333,2961,0.408728894,715,"BOI","-","-","Please name all of the ways you could use this object. Keep in mind that one object can have many uses. Separate your responses with a comma.",NA,"y",9910,NA,NA,1367,9469,NA,NA,NA,"watch, listen, follow",1
"54a9b72efdf99b57183eb640","j8k7qm2uqz","Affordance Norms_Prolific",1,40,"2023-01-06T18:24:53+00:00",5.4151301383972,24,"updated stim.csv","Version24.csv","Version 24","List 24","countrywoman",NA,711,4.44,666,0.767574871,712,"BOI","-","-","Please name all of the ways you could use this object. Keep in mind that one object can have many uses. Separate your responses with a comma.",NA,"y",5022,NA,NA,3802,4726,NA,NA,NA,"no idea",1
"5b758de6d74fcb00010d7f0b","u0ybee5ijf","Affordance Norms_Prolific",1,11,"2023-01-06T01:56:54+00:00",15.283051013947,7,"updated stim.csv","Version7.csv","Version 7","List 7","pad",NA,210,5.217391304,1840,0.069479316,211,"BOI","-","-","Please name all of the ways you could use this object. Keep in mind that one object can have many uses. Separate your responses with a comma.",NA,"y",14432,NA,NA,3613,12357,NA,NA,NA,"Write,draw,colour ",1
"5b758de6d74fcb00010d7f0b","u0ybee5ijf","Affordance Norms_Prolific",1,12,"2023-01-06T01:57:10+00:00",15.956765174866,7,"updated stim.csv","Version7.csv","Version 7","List 7","kilt",NA,195,5.04,1418,0.513162464,196,"BOI","-","-","Please name all of the ways you could use this object. Keep in mind that one object can have many uses. Separate your responses with a comma.",NA,"y",15091,NA,NA,4958,13246,NA,NA,NA,"Scottish,clothing ",1
"5b758de6d74fcb00010d7f0b","u0ybee5ijf","Affordance Norms_Prolific",1,13,"2023-01-06T01:57:24+00:00",14.333266973495,7,"updated stim.csv","Version7.csv","Version 7","List 7","mulch",NA,208,4.625,1715,0.00079572,209,"BOI","-","-","Please name all of the ways you could use this object. Keep in mind that one object can have many uses. Separate your responses with a comma.",NA,"y",13560,NA,NA,6553,11887,NA,NA,NA,"Food,munch ",1
"5b758de6d74fcb00010d7f0b","u0ybee5ijf","Affordance Norms_Prolific",1,14,"2023-01-06T01:57:37+00:00",12.493852853775,7,"updated stim.csv","Version7.csv","Version 7","List 7","motorboat",NA,182,5.304347826,1695,0.811208955,183,"BOI","-","-","Please name all of the ways you could use this object. Keep in mind that one object can have many uses. Separate your responses with a comma.",NA,"y",11727,NA,NA,3990,8603,NA,NA,NA,"River,ride,vehicle ",1
"5b758de6d74fcb00010d7f0b","u0ybee5ijf","Affordance Norms_Prolific",1,15,"2023-01-06T01:57:51+00:00",14.953086137772,7,"updated stim.csv","Version7.csv","Version 7","List 7","eyelid",NA,196,5.52173913,936,0.012579093,197,"BOI","-","-","Please name all of the ways you could use this object. Keep in mind that one object can have many uses. Separate your responses with a comma.",NA,"y",14117,NA,NA,6708,13046,NA,NA,NA,"Face,eyes,look",1
"5b758de6d74fcb00010d7f0b","u0ybee5ijf","Affordance Norms_Prolific",1,16,"2023-01-06T01:58:01+00:00",9.1167058944702,7,"updated stim.csv","Version7.csv","Version 7","List 7","radish",NA,188,5.846153846,2124,0.531176794,189,"BOI","-","-","Please name all of the ways you could use this object. Keep in mind that one object can have many uses. Separate your responses with a comma.",NA,"y",8321,NA,NA,2670,5138,NA,NA,NA,"Food,vegetables ",1
"5b758de6d74fcb00010d7f0b","u0ybee5ijf","Affordance Norms_Prolific",1,17,"2023-01-06T01:59:18+00:00",77.824964046478,7,"updated stim.csv","Version7.csv","Version 7","List 7","funnel",NA,209,4.833333333,1065,0.655532881,210,"BOI","-","-","Please name all of the ways you could use this object. Keep in mind that one object can have many uses. Separate your responses with a comma.",NA,"y",76428,NA,NA,59364,75271,NA,NA,NA,"Kitchen, drain,food,drink",1
"5b758de6d74fcb00010d7f0b","u0ybee5ijf","Affordance Norms_Prolific",1,18,"2023-01-06T01:59:35+00:00",16.583786010742,7,"updated stim.csv","Version7.csv","Version 7","List 7","daddy",NA,183,5.24,745,0.735675552,184,"BOI","-","-","Please name all of the ways you could use this object. Keep in mind that one object can have many uses. Separate your responses with a comma.",NA,"y",15746,NA,NA,3128,14571,NA,NA,NA,"Person,child, human",1
"5b758de6d74fcb00010d7f0b","u0ybee5ijf","Affordance Norms_Prolific",1,19,"2023-01-06T02:00:33+00:00",57.857711076736,7,"updated stim.csv","Version7.csv","Version 7","List 7","eyebath",NA,199,4.368421053,931,0.777702105,200,"BOI","-","-","Please name all of the ways you could use this object. Keep in mind that one object can have many uses. Separate your responses with a comma.",NA,"y",56969,NA,NA,6595,54924,NA,NA,NA,"Cotton wool, face ",1
"5b758de6d74fcb00010d7f0b","u0ybee5ijf","Affordance Norms_Prolific",1,20,"2023-01-06T02:00:55+00:00",22.532090902328,7,"updated stim.csv","Version7.csv","Version 7","List 7","suspender",NA,194,5.76,2598,0.221741609,195,"BOI","-","-","Please name all of the ways you could use this object. Keep in mind that one object can have many uses. Separate your responses with a comma.",NA,"y",21473,NA,NA,16943,20364,NA,NA,NA,"Clothing, legs ",1
"5b758de6d74fcb00010d7f0b","u0ybee5ijf","Affordance Norms_Prolific",1,21,"2023-01-06T02:01:14+00:00",18.328177928925,7,"updated stim.csv","Version7.csv","Version 7","List 7","peanut",NA,185,6.192307692,1893,0.453329457,186,"BOI","-","-","Please name all of the ways you could use this object. Keep in mind that one object can have many uses. Separate your responses with a comma.",NA,"y",17061,NA,NA,2587,15822,NA,NA,NA,"Eat,prepare, snack",1
"5b758de6d74fcb00010d7f0b","u0ybee5ijf","Affordance Norms_Prolific",1,22,"2023-01-06T02:01:28+00:00",14.539128065109,7,"updated stim.csv","Version7.csv","Version 7","List 7","conductor",NA,203,4.75,624,0.037513054,204,"BOI","-","-","Please name all of the ways you could use this object. Keep in mind that one object can have many uses. Separate your responses with a comma.",NA,"y",13744,NA,NA,11789,13576,NA,NA,NA,"Teacher,",1
"5b758de6d74fcb00010d7f0b","u0ybee5ijf","Affordance Norms_Prolific",1,23,"2023-01-06T02:01:57+00:00",28.669466972351,7,"updated stim.csv","Version7.csv","Version 7","List 7","grandniece",NA,192,4.708333333,1150,0.142005772,193,"BOI","-","-","Please name all of the ways you could use this object. Keep in mind that one object can have many uses. Separate your responses with a comma.",NA,"y",27844,NA,NA,21758,25832,NA,NA,NA,"Family, human ",1
"5b758de6d74fcb00010d7f0b","u0ybee5ijf","Affordance Norms_Prolific",1,24,"2023-01-06T02:02:58+00:00",61.54040312767,7,"updated stim.csv","Version7.csv","Version 7","List 7","cushion",NA,190,5.75,733,0.398237917,191,"BOI","-","-","Please name all of the ways you could use this object. Keep in mind that one object can have many uses. Separate your responses with a comma.",NA,"y",60840,NA,NA,8045,59678,NA,NA,NA,"Seat,sofa",0.996
"5b758de6d74fcb00010d7f0b","u0ybee5ijf","Affordance Norms_Prolific",1,25,"2023-01-06T02:03:18+00:00",19.994546890259,7,"updated stim.csv","Version7.csv","Version 7","List 7","silk",NA,181,4.8,2381,0.034768165,182,"BOI","-","-","Please name all of the ways you could use this object. Keep in mind that one object can have many uses. Separate your responses with a comma.",NA,"y",19084,NA,NA,5618,8371,NA,NA,NA,"Clothing, shoes ",1
"5b758de6d74fcb00010d7f0b","u0ybee5ijf","Affordance Norms_Prolific",1,26,"2023-01-06T02:03:43+00:00",24.051136016846,7,"updated stim.csv","Version7.csv","Version 7","List 7","mucous",NA,184,5.04,1708,0.347707986,185,"BOI","-","-","Please name all of the ways you could use this object. Keep in mind that one object can have many uses. Separate your responses with a comma.",NA,"y",23231,NA,NA,9828,11308,NA,NA,NA,"Food",1
"5b758de6d74fcb00010d7f0b","u0ybee5ijf","Affordance Norms_Prolific",1,27,"2023-01-06T02:04:04+00:00",21.195724964142,7,"updated stim.csv","Version7.csv","Version 7","List 7","banquet",NA,201,4.538461538,145,0.584411792,202,"BOI","-","-","Please name all of the ways you could use this object. Keep in mind that one object can have many uses. Separate your responses with a comma.",NA,"y",20190,NA,NA,14959,19252,NA,NA,NA,"Outfit, clothing ",1
"5b758de6d74fcb00010d7f0b","u0ybee5ijf","Affordance Norms_Prolific",1,28,"2023-01-06T02:04:15+00:00",11.263481140137,7,"updated stim.csv","Version7.csv","Version 7","List 7","pine",NA,200,4.347826087,1970,0.173169325,201,"BOI","-","-","Please name all of the ways you could use this object. Keep in mind that one object can have many uses. Separate your responses with a comma.",NA,"y",9962,NA,NA,6271,8872,NA,NA,NA,"Wood,trees",1
"5b758de6d74fcb00010d7f0b","u0ybee5ijf","Affordance Norms_Prolific",1,29,"2023-01-06T02:04:30+00:00",14.750763893127,7,"updated stim.csv","Version7.csv","Version 7","List 7","person",NA,198,6.12,1930,0.592409662,199,"BOI","-","-","Please name all of the ways you could use this object. Keep in mind that one object can have many uses. Separate your responses with a comma.",NA,"y",13882,NA,NA,5413,7210,NA,NA,NA,"Human, ",1
"5b758de6d74fcb00010d7f0b","u0ybee5ijf","Affordance Norms_Prolific",1,30,"2023-01-06T02:04:41+00:00",11.459258079529,7,"updated stim.csv","Version7.csv","Version 7","List 7","medic",NA,207,5.217391304,1636,0.409608525,208,"BOI","-","-","Please name all of the ways you could use this object. Keep in mind that one object can have many uses. Separate your responses with a comma.",NA,"y",10573,NA,NA,2947,8766,NA,NA,NA,"Hospital, ambulance ",1
"5b758de6d74fcb00010d7f0b","u0ybee5ijf","Affordance Norms_Prolific",1,31,"2023-01-06T02:05:28+00:00",46.642022848129,7,"updated stim.csv","Version7.csv","Version 7","List 7","salesman",NA,206,4.84,2222,0.865631611,207,"BOI","-","-","Please name all of the ways you could use this object. Keep in mind that one object can have many uses. Separate your responses with a comma.",NA,"y",45949,NA,NA,2935,5912,NA,NA,NA,"Shop, ",0.995
"5b758de6d74fcb00010d7f0b","u0ybee5ijf","Affordance Norms_Prolific",1,32,"2023-01-06T02:05:40+00:00",12.039316177368,7,"updated stim.csv","Version7.csv","Version 7","List 7","grapevine",NA,186,4.869565217,1158,0.487928979,187,"BOI","-","-","Please name all of the ways you could use this object. Keep in mind that one object can have many uses. Separate your responses with a comma.",NA,"y",11203,NA,NA,5000,10049,NA,NA,NA,"French, wine",1
"5b758de6d74fcb00010d7f0b","u0ybee5ijf","Affordance Norms_Prolific",1,33,"2023-01-06T02:05:50+00:00",9.7152478694916,7,"updated stim.csv","Version7.csv","Version 7","List 7","people",NA,205,6.076923077,1920,0.177409365,206,"BOI","-","-","Please name all of the ways you could use this object. Keep in mind that one object can have many uses. Separate your responses with a comma.",NA,"y",8898,NA,NA,7057,8772,NA,NA,NA,"Family,",1
"5b758de6d74fcb00010d7f0b","u0ybee5ijf","Affordance Norms_Prolific",1,34,"2023-01-06T02:06:06+00:00",16.09584903717,7,"updated stim.csv","Version7.csv","Version 7","List 7","controller",NA,202,5.458333333,630,0.185721244,203,"BOI","-","-","Please name all of the ways you could use this object. Keep in mind that one object can have many uses. Separate your responses with a comma.",NA,"y",15233,NA,NA,32,12143,NA,NA,NA,"Tv remote,game controller ",1
"5b758de6d74fcb00010d7f0b","u0ybee5ijf","Affordance Norms_Prolific",1,35,"2023-01-06T02:06:34+00:00",28.175270080566,7,"updated stim.csv","Version7.csv","Version 7","List 7","cheese",NA,187,6.391304348,506,0.129625892,188,"BOI","-","-","Please name all of the ways you could use this object. Keep in mind that one object can have many uses. Separate your responses with a comma.",NA,"y",27411,NA,NA,22275,26352,NA,NA,NA,"Sandwich, crackers",1
"5b758de6d74fcb00010d7f0b","u0ybee5ijf","Affordance Norms_Prolific",1,36,"2023-01-06T02:06:56+00:00",21.888638973236,7,"updated stim.csv","Version7.csv","Version 7","List 7","tent",NA,189,5.5,2664,0.327375285,190,"BOI","-","-","Please name all of the ways you could use this object. Keep in mind that one object can have many uses. Separate your responses with a comma.",NA,"y",21037,NA,NA,10742,17448,NA,NA,NA,"Hill day, glamping ",1
"5b758de6d74fcb00010d7f0b","u0ybee5ijf","Affordance Norms_Prolific",1,37,"2023-01-06T02:09:18+00:00",142.24068188667,7,"updated stim.csv","Version7.csv","Version 7","List 7","goldfish",NA,197,4.739130435,1133,0.534894394,198,"BOI","-","-","Please name all of the ways you could use this object. Keep in mind that one object can have many uses. Separate your responses with a comma.",NA,"y",141215,NA,NA,96911,140269,NA,NA,NA,"Animals, fish,pets",0.997
"5b758de6d74fcb00010d7f0b","u0ybee5ijf","Affordance Norms_Prolific",1,38,"2023-01-06T02:10:14+00:00",55.801541090012,7,"updated stim.csv","Version7.csv","Version 7","List 7","store",NA,204,5.739130435,2550,0.221295865,205,"BOI","-","-","Please name all of the ways you could use this object. Keep in mind that one object can have many uses. Separate your responses with a comma.",NA,"y",54515,NA,NA,12628,53429,NA,NA,NA,"Shop, food",1
"5b758de6d74fcb00010d7f0b","u0ybee5ijf","Affordance Norms_Prolific",1,39,"2023-01-06T02:10:22+00:00",7.7805659770966,7,"updated stim.csv","Version7.csv","Version 7","List 7","Guitar",NA,193,6.293243243,1193,0.95517357,194,"BOI","-","-","Please name all of the ways you could use this object. Keep in mind that one object can have many uses. Separate your responses with a comma.",NA,"y",6947,NA,NA,2616,5118,NA,NA,NA,"Music, instruments ",1
"5b758de6d74fcb00010d7f0b","u0ybee5ijf","Affordance Norms_Prolific",1,40,"2023-01-06T02:10:28+00:00",6.8610789775848,7,"updated stim.csv","Version7.csv","Version 7","List 7","storeroom",NA,191,4.655172414,2553,0.339147887,192,"BOI","-","-","Please name all of the ways you could use this object. Keep in mind that one object can have many uses. Separate your responses with a comma.",NA,"y",5870,NA,NA,2448,4790,NA,NA,NA,"Shop, office",1
"5c14e1972b16ba0001c94560","2323q76vtn","Affordance Norms_Prolific",1,11,"2023-01-06T18:23:14+00:00",36.372858047485,20,"updated stim.csv","Version20.csv","Version 20","List 20","oilcloth",NA,600,5.125,1803,0.545634211,601,"BOI","-","-","Please name all of the ways you could use this object. Keep in mind that one object can have many uses. Separate your responses with a comma.",NA,"y",35023,NA,NA,15574,33194,NA,NA,NA,"tableclothes, waterproof clothing.",1
"5c14e1972b16ba0001c94560","2323q76vtn","Affordance Norms_Prolific",1,12,"2023-01-06T18:23:54+00:00",39.821079015732,20,"updated stim.csv","Version20.csv","Version 20","List 20","obstetrician",NA,598,5.04,1798,0.141308746,599,"BOI","-","-","Please name all of the ways you could use this object. Keep in mind that one object can have many uses. Separate your responses with a comma.",NA,"y",38761,NA,NA,10407,36796,NA,NA,NA,"checking pregnant women. teaching, emergencies.",1
"5c14e1972b16ba0001c94560","2323q76vtn","Affordance Norms_Prolific",1,13,"2023-01-06T18:24:39+00:00",44.847387075424,20,"updated stim.csv","Version20.csv","Version 20","List 20","theatergoer",NA,581,5,2673,0.209563183,582,"BOI","-","-","Please name all of the ways you could use this object. Keep in mind that one object can have many uses. Separate your responses with a comma.",NA,"y",42814,NA,NA,9386,41400,NA,NA,NA,"To watch a show, to give feedback on a show.",1
"5c14e1972b16ba0001c94560","2323q76vtn","Affordance Norms_Prolific",1,14,"2023-01-06T18:25:10+00:00",31.34278678894,20,"updated stim.csv","Version20.csv","Version 20","List 20","sketchbook",NA,592,5.833333333,2394,0.383818306,593,"BOI","-","-","Please name all of the ways you could use this object. Keep in mind that one object can have many uses. Separate your responses with a comma.",NA,"y",30400,NA,NA,2466,28683,NA,NA,NA,"write, diary, journal, draw pictures",1
"5c14e1972b16ba0001c94560","2323q76vtn","Affordance Norms_Prolific",1,15,"2023-01-06T18:26:06+00:00",55.723539113998,20,"updated stim.csv","Version20.csv","Version 20","List 20","crosswalk",NA,596,4.714285714,706,0.39617836,597,"BOI","-","-","Please name all of the ways you could use this object. Keep in mind that one object can have many uses. Separate your responses with a comma.",NA,"y",54787,NA,NA,19559,53192,NA,NA,NA,"walk on, people crossing, car drivers stop.",1
"5c14e1972b16ba0001c94560","2323q76vtn","Affordance Norms_Prolific",1,16,"2023-01-06T18:26:40+00:00",33.7773001194,20,"updated stim.csv","Version20.csv","Version 20","List 20","breasts",NA,589,6.173913043,315,0.727607181,590,"BOI","-","-","Please name all of the ways you could use this object. Keep in mind that one object can have many uses. Separate your responses with a comma.",NA,"y",32735,NA,NA,8479,31040,NA,NA,NA,"babies feed on, lactating.",1
"5c14e1972b16ba0001c94560","2323q76vtn","Affordance Norms_Prolific",1,17,"2023-01-06T18:27:11+00:00",31.664537906647,20,"updated stim.csv","Version20.csv","Version 20","List 20","cocoa",NA,574,5.625,589,0.771924307,575,"BOI","-","-","Please name all of the ways you could use this object. Keep in mind that one object can have many uses. Separate your responses with a comma.",NA,"y",30662,NA,NA,6657,28479,NA,NA,NA,"chocolate, drinking chocolate, puddings.",1
"5c14e1972b16ba0001c94560","2323q76vtn","Affordance Norms_Prolific",1,18,"2023-01-06T18:27:58+00:00",46.152541875839,20,"updated stim.csv","Version20.csv","Version 20","List 20","buddy",NA,588,4.916666667,344,0.678293363,589,"BOI","-","-","Please name all of the ways you could use this object. Keep in mind that one object can have many uses. Separate your responses with a comma.",NA,"y",45151,NA,NA,18568,43430,NA,NA,NA,"go to the movies, socialise with, travel.",1
"5c14e1972b16ba0001c94560","2323q76vtn","Affordance Norms_Prolific",1,19,"2023-01-06T18:28:11+00:00",13.807975053787,20,"updated stim.csv","Version20.csv","Version 20","List 20","tambourine",NA,579,5.916666667,2628,0.900070154,580,"BOI","-","-","Please name all of the ways you could use this object. Keep in mind that one object can have many uses. Separate your responses with a comma.",NA,"y",11983,NA,NA,3213,10625,NA,NA,NA,"bang, rattle, tap",1
"5c14e1972b16ba0001c94560","2323q76vtn","Affordance Norms_Prolific",1,20,"2023-01-06T18:28:37+00:00",25.123043060303,20,"updated stim.csv","Version20.csv","Version 20","List 20","jam",NA,573,5.173913043,1372,0.856688434,574,"BOI","-","-","Please name all of the ways you could use this object. Keep in mind that one object can have many uses. Separate your responses with a comma.",NA,"y",24098,NA,NA,2398,22707,NA,NA,NA,"Eat, flavour, bake.",1
"5c14e1972b16ba0001c94560","2323q76vtn","Affordance Norms_Prolific",1,21,"2023-01-06T18:29:08+00:00",31.517148971558,20,"updated stim.csv","Version20.csv","Version 20","List 20","garage",NA,575,4.96,1073,0.507161058,576,"BOI","-","-","Please name all of the ways you could use this object. Keep in mind that one object can have many uses. Separate your responses with a comma.",NA,"y",30355,NA,NA,2775,28930,NA,NA,NA,"Put a car in, bikes, junk.",1
"5c14e1972b16ba0001c94560","2323q76vtn","Affordance Norms_Prolific",1,22,"2023-01-06T18:29:54+00:00",46.301661014557,20,"updated stim.csv","Version20.csv","Version 20","List 20","antennae",NA,587,4.538461538,47,0.730388709,588,"BOI","-","-","Please name all of the ways you could use this object. Keep in mind that one object can have many uses. Separate your responses with a comma.",NA,"y",45306,NA,NA,16600,43383,NA,NA,NA,"insects use them to sense, used to recieve radio waves.",1
"5c14e1972b16ba0001c94560","2323q76vtn","Affordance Norms_Prolific",1,23,"2023-01-06T18:30:18+00:00",23.181472063065,20,"updated stim.csv","Version20.csv","Version 20","List 20","novel",NA,578,5.4,1783,0.135347184,579,"BOI","-","-","Please name all of the ways you could use this object. Keep in mind that one object can have many uses. Separate your responses with a comma.",NA,"y",21712,NA,NA,2129,19694,NA,NA,NA,"read, write, entertain.",1
"5c14e1972b16ba0001c94560","2323q76vtn","Affordance Norms_Prolific",1,24,"2023-01-06T18:30:41+00:00",23.168431997299,20,"updated stim.csv","Version20.csv","Version 20","List 20","seedling",NA,582,5.083333333,2309,0.909423363,583,"BOI","-","-","Please name all of the ways you could use this object. Keep in mind that one object can have many uses. Separate your responses with a comma.",NA,"y",20967,NA,NA,2387,19361,NA,NA,NA,"plant, water, transplant.",1
"5c14e1972b16ba0001c94560","2323q76vtn","Affordance Norms_Prolific",1,25,"2023-01-06T18:30:58+00:00",16.81457901001,20,"updated stim.csv","Version20.csv","Version 20","List 20","smock",NA,594,5.08,2421,0.292298633,595,"BOI","-","-","Please name all of the ways you could use this object. Keep in mind that one object can have many uses. Separate your responses with a comma.",NA,"y",15843,NA,NA,2399,14346,NA,NA,NA,"wear, wash, mend.",1
"5c14e1972b16ba0001c94560","2323q76vtn","Affordance Norms_Prolific",1,26,"2023-01-06T18:31:16+00:00",18.13227891922,20,"updated stim.csv","Version20.csv","Version 20","List 20","flapjack",NA,571,5.2,1000,0.795806976,572,"BOI","-","-","Please name all of the ways you could use this object. Keep in mind that one object can have many uses. Separate your responses with a comma.",NA,"y",17169,NA,NA,2254,15129,NA,NA,NA,"Eat, make, ice.",1
"5c14e1972b16ba0001c94560","2323q76vtn","Affordance Norms_Prolific",1,27,"2023-01-06T18:31:39+00:00",23.065138101578,20,"updated stim.csv","Version20.csv","Version 20","List 20","hashish",NA,584,4.909090909,1257,0.234929947,585,"BOI","-","-","Please name all of the ways you could use this object. Keep in mind that one object can have many uses. Separate your responses with a comma.",NA,"y",21859,NA,NA,4459,19727,NA,NA,NA,"smoke, eat.enjoy, relax.",1
"5c14e1972b16ba0001c94560","2323q76vtn","Affordance Norms_Prolific",1,28,"2023-01-06T18:31:56+00:00",17.069101810455,20,"updated stim.csv","Version20.csv","Version 20","List 20","stepladder",NA,599,6.130434783,2527,0.499161262,600,"BOI","-","-","Please name all of the ways you could use this object. Keep in mind that one object can have many uses. Separate your responses with a comma.",NA,"y",16009,NA,NA,3683,14707,NA,NA,NA,"climb, sit on, paint.",1
"5c14e1972b16ba0001c94560","2323q76vtn","Affordance Norms_Prolific",1,29,"2023-01-06T18:32:17+00:00",20.888105154037,20,"updated stim.csv","Version20.csv","Version 20","List 20","firewood",NA,593,5.72,987,0.915415576,594,"BOI","-","-","Please name all of the ways you could use this object. Keep in mind that one object can have many uses. Separate your responses with a comma.",NA,"y",19846,NA,NA,1869,18260,NA,NA,NA,"Burn, chop,store.",1
"5c14e1972b16ba0001c94560","2323q76vtn","Affordance Norms_Prolific",1,30,"2023-01-06T18:32:43+00:00",26.424064874649,20,"updated stim.csv","Version20.csv","Version 20","List 20","neurologist",NA,595,4.384615385,1753,0.636652588,596,"BOI","-","-","Please name all of the ways you could use this object. Keep in mind that one object can have many uses. Separate your responses with a comma.",NA,"y",25331,NA,NA,5106,23820,NA,NA,NA,"Teach, heal, investigate.",1
"5c14e1972b16ba0001c94560","2323q76vtn","Affordance Norms_Prolific",1,31,"2023-01-06T18:33:05+00:00",22.185497999191,20,"updated stim.csv","Version20.csv","Version 20","List 20","instructor",NA,580,4.583333333,1360,0.834414594,581,"BOI","-","-","Please name all of the ways you could use this object. Keep in mind that one object can have many uses. Separate your responses with a comma.",NA,"y",20156,NA,NA,2313,18608,NA,NA,NA,"Teach, learn,watch.",1
"5c14e1972b16ba0001c94560","2323q76vtn","Affordance Norms_Prolific",1,32,"2023-01-06T18:33:26+00:00",20.832530021667,20,"updated stim.csv","Version20.csv","Version 20","List 20","craftsman",NA,585,4.833333333,679,0.422256989,586,"BOI","-","-","Please name all of the ways you could use this object. Keep in mind that one object can have many uses. Separate your responses with a comma.",NA,"y",19819,NA,NA,3035,18177,NA,NA,NA,"Build, repair, extend.",1
"5c14e1972b16ba0001c94560","2323q76vtn","Affordance Norms_Prolific",1,33,"2023-01-06T18:33:49+00:00",23.135837078094,20,"updated stim.csv","Version20.csv","Version 20","List 20","shack",NA,583,5.125,2317,0.345258516,584,"BOI","-","-","Please name all of the ways you could use this object. Keep in mind that one object can have many uses. Separate your responses with a comma.",NA,"y",21882,NA,NA,2131,20323,NA,NA,NA,"build, live in, stay in,store things in.",1
"5c14e1972b16ba0001c94560","2323q76vtn","Affordance Norms_Prolific",1,34,"2023-01-06T18:34:11+00:00",22.114893913269,20,"updated stim.csv","Version20.csv","Version 20","List 20","dinner",NA,572,5.545454545,795,0.224312152,573,"BOI","-","-","Please name all of the ways you could use this object. Keep in mind that one object can have many uses. Separate your responses with a comma.",NA,"y",20846,NA,NA,1717,19283,NA,NA,NA,"Prepare, eat, cook.",1
"5c14e1972b16ba0001c94560","2323q76vtn","Affordance Norms_Prolific",1,35,"2023-01-06T18:34:46+00:00",34.831609010696,20,"updated stim.csv","Version20.csv","Version 20","List 20","poinsettia",NA,576,5.347826087,2018,0.660986177,577,"BOI","-","-","Please name all of the ways you could use this object. Keep in mind that one object can have many uses. Separate your responses with a comma.",NA,"y",32828,NA,NA,3191,31507,NA,NA,NA,"Look at, plant, water,feed.",1
"5c14e1972b16ba0001c94560","2323q76vtn","Affordance Norms_Prolific",1,36,"2023-01-06T18:35:03+00:00",16.77876996994,20,"updated stim.csv","Version20.csv","Version 20","List 20","gem",NA,597,5.517241379,1093,0.914098667,598,"BOI","-","-","Please name all of the ways you could use this object. Keep in mind that one object can have many uses. Separate your responses with a comma.",NA,"y",15615,NA,NA,3717,14148,NA,NA,NA,"look at, polish, wear.",1
"5c14e1972b16ba0001c94560","2323q76vtn","Affordance Norms_Prolific",1,37,"2023-01-06T18:35:33+00:00",29.907616138458,20,"updated stim.csv","Version20.csv","Version 20","List 20","rodent",NA,591,5.041666667,2186,0.950545873,592,"BOI","-","-","Please name all of the ways you could use this object. Keep in mind that one object can have many uses. Separate your responses with a comma.",NA,"y",27784,NA,NA,14481,25647,NA,NA,NA,"keep as a pet, feed, water.",1
"5c14e1972b16ba0001c94560","2323q76vtn","Affordance Norms_Prolific",1,38,"2023-01-06T18:35:59+00:00",26.189594984055,20,"updated stim.csv","Version20.csv","Version 20","List 20","pastry",NA,590,6.086956522,1886,0.101584578,591,"BOI","-","-","Please name all of the ways you could use this object. Keep in mind that one object can have many uses. Separate your responses with a comma.",NA,"y",25276,NA,NA,2920,24092,NA,NA,NA,"Make, bake, eat.",1
"5c14e1972b16ba0001c94560","2323q76vtn","Affordance Norms_Prolific",1,39,"2023-01-06T18:36:49+00:00",49.995279073715,20,"updated stim.csv","Version20.csv","Version 20","List 20","sedan",NA,586,5.565217391,2306,0.20374677,587,"BOI","-","-","Please name all of the ways you could use this object. Keep in mind that one object can have many uses. Separate your responses with a comma.",NA,"y",48609,NA,NA,9660,47368,NA,NA,NA,"Drive, crash, park, put fuel in.",1
"5c14e1972b16ba0001c94560","2323q76vtn","Affordance Norms_Prolific",1,40,"2023-01-06T18:37:17+00:00",28.261287927628,20,"updated stim.csv","Version20.csv","Version 20","List 20","skittle",NA,577,5,2401,0.959116035,578,"BOI","-","-","Please name all of the ways you could use this object. Keep in mind that one object can have many uses. Separate your responses with a comma.",NA,"y",27296,NA,NA,14183,25620,NA,NA,NA,"polish, throw a ball at.",1
"5c5caa79cfdd2800011fc34f","b20ho3v716","Affordance Norms_Prolific",1,11,"2023-01-06T03:02:42+00:00",18.219316005707,9,"updated stim.csv","Version9.csv","Version 9","List 9","elbow",NA,258,6.458333333,896,0.003681913,259,"BOI","-","-","Please name all of the ways you could use this object. Keep in mind that one object can have many uses. Separate your responses with a comma.",NA,"y",17564,NA,NA,2743,16009,NA,NA,NA,"to use as a weapon, to strike with,",1
"5c5caa79cfdd2800011fc34f","b20ho3v716","Affordance Norms_Prolific",1,12,"2023-01-06T03:03:00+00:00",17.801037073135,9,"updated stim.csv","Version9.csv","Version 9","List 9","coleslaw",NA,254,4.72,599,0.022418683,255,"BOI","-","-","Please name all of the ways you could use this object. Keep in mind that one object can have many uses. Separate your responses with a comma.",NA,"y",17124,NA,NA,2621,15183,NA,NA,NA,"eat, mix with other foods, ",1
"5c5caa79cfdd2800011fc34f","b20ho3v716","Affordance Norms_Prolific",1,13,"2023-01-06T03:03:20+00:00",20.309619903564,9,"updated stim.csv","Version9.csv","Version 9","List 9","chemicals",NA,259,5.04,510,0.869697856,260,"BOI","-","-","Please name all of the ways you could use this object. Keep in mind that one object can have many uses. Separate your responses with a comma.",NA,"y",19569,NA,NA,6625,18171,NA,NA,NA,"To change other things state, paint strip, clean, ",1
"5c5caa79cfdd2800011fc34f","b20ho3v716","Affordance Norms_Prolific",1,14,"2023-01-06T03:03:47+00:00",26.80607008934,9,"updated stim.csv","Version9.csv","Version 9","List 9","suit",NA,249,6.52173913,2582,0.02685761,250,"BOI","-","-","Please name all of the ways you could use this object. Keep in mind that one object can have many uses. Separate your responses with a comma.",NA,"y",26179,NA,NA,14719,22551,NA,NA,NA,"to wear, to sell, to burn, ",1
"5c5caa79cfdd2800011fc34f","b20ho3v716","Affordance Norms_Prolific",1,15,"2023-01-06T03:04:02+00:00",15.591907978058,9,"updated stim.csv","Version9.csv","Version 9","List 9","belly",NA,250,5.846153846,200,0.99406305,251,"BOI","-","-","Please name all of the ways you could use this object. Keep in mind that one object can have many uses. Separate your responses with a comma.",NA,"y",14871,NA,NA,1991,13154,NA,NA,NA,"cuddle, love, sexy,",1
"5c5caa79cfdd2800011fc34f","b20ho3v716","Affordance Norms_Prolific",1,16,"2023-01-06T03:04:18+00:00",15.379879951477,9,"updated stim.csv","Version9.csv","Version 9","List 9","hardware",NA,267,5.52,1249,0.839198693,268,"BOI","-","-","Please name all of the ways you could use this object. Keep in mind that one object can have many uses. Separate your responses with a comma.",NA,"y",14701,NA,NA,1797,13129,NA,NA,NA,"computer storage, furniture, scrap,",1
"5c5caa79cfdd2800011fc34f","b20ho3v716","Affordance Norms_Prolific",1,17,"2023-01-06T03:04:32+00:00",14.199229001999,9,"updated stim.csv","Version9.csv","Version 9","List 9","purse",NA,265,6.291666667,2105,0.327813639,266,"BOI","-","-","Please name all of the ways you could use this object. Keep in mind that one object can have many uses. Separate your responses with a comma.",NA,"y",13490,NA,NA,1586,11956,NA,NA,NA,"buy, store, throw, give,",1
"5c5caa79cfdd2800011fc34f","b20ho3v716","Affordance Norms_Prolific",1,18,"2023-01-06T03:04:42+00:00",10.008793115616,9,"updated stim.csv","Version9.csv","Version 9","List 9","platter",NA,268,5.75,1998,0.769402376,269,"BOI","-","-","Please name all of the ways you could use this object. Keep in mind that one object can have many uses. Separate your responses with a comma.",NA,"y",9339,NA,NA,2178,6750,NA,NA,NA,"plate, food, share, ",1
"5c5caa79cfdd2800011fc34f","b20ho3v716","Affordance Norms_Prolific",1,19,"2023-01-06T03:04:54+00:00",11.7695748806,9,"updated stim.csv","Version9.csv","Version 9","List 9","orchard",NA,270,4.333333333,1816,0.055847864,271,"BOI","-","-","Please name all of the ways you could use this object. Keep in mind that one object can have many uses. Separate your responses with a comma.",NA,"y",11061,NA,NA,1342,9249,NA,NA,NA,"apples, grow other items. ",1
"5c5caa79cfdd2800011fc34f","b20ho3v716","Affordance Norms_Prolific",1,20,"2023-01-06T03:04:59+00:00",5.6108031272888,9,"updated stim.csv","Version9.csv","Version 9","List 9","veal",NA,260,4.5,2840,0.767300611,261,"BOI","-","-","Please name all of the ways you could use this object. Keep in mind that one object can have many uses. Separate your responses with a comma.",NA,"y",5196,NA,NA,2140,3223,NA,NA,NA,"eat,",1
"5c5caa79cfdd2800011fc34f","b20ho3v716","Affordance Norms_Prolific",1,21,"2023-01-06T03:05:05+00:00",6.1676108837128,9,"updated stim.csv","Version9.csv","Version 9","List 9","tyke",NA,245,5.05,2813,0.492849182,246,"BOI","-","-","Please name all of the ways you could use this object. Keep in mind that one object can have many uses. Separate your responses with a comma.",NA,"y",5505,NA,NA,2646,3751,NA,NA,NA,"not sure",1
"5c5caa79cfdd2800011fc34f","b20ho3v716","Affordance Norms_Prolific",1,22,"2023-01-06T03:05:19+00:00",13.535465955734,9,"updated stim.csv","Version9.csv","Version 9","List 9","landscape",NA,252,4.384615385,1462,0.792855773,253,"BOI","-","-","Please name all of the ways you could use this object. Keep in mind that one object can have many uses. Separate your responses with a comma.",NA,"y",12845,NA,NA,1475,11295,NA,NA,NA,"draw, paint, embrace photos, share ",1
"5c5caa79cfdd2800011fc34f","b20ho3v716","Affordance Norms_Prolific",1,23,"2023-01-06T03:05:36+00:00",16.480322122574,9,"updated stim.csv","Version9.csv","Version 9","List 9","strainer",NA,253,4.875,2557,0.13601316,254,"BOI","-","-","Please name all of the ways you could use this object. Keep in mind that one object can have many uses. Separate your responses with a comma.",NA,"y",15798,NA,NA,2453,14305,NA,NA,NA,"fillter a sauce, mix things with, ",1
"5c5caa79cfdd2800011fc34f","b20ho3v716","Affordance Norms_Prolific",1,24,"2023-01-06T03:05:48+00:00",12.887313842773,9,"updated stim.csv","Version9.csv","Version 9","List 9","vessel",NA,248,4.925925926,2852,0.127753764,249,"BOI","-","-","Please name all of the ways you could use this object. Keep in mind that one object can have many uses. Separate your responses with a comma.",NA,"y",12250,NA,NA,1987,10751,NA,NA,NA,"drink, sail, enjoy, fight,",1
"5c5caa79cfdd2800011fc34f","b20ho3v716","Affordance Norms_Prolific",1,25,"2023-01-06T03:06:03+00:00",14.959569215775,9,"updated stim.csv","Version9.csv","Version 9","List 9","altarpiece",NA,269,4.80952381,31,0.560695239,270,"BOI","-","-","Please name all of the ways you could use this object. Keep in mind that one object can have many uses. Separate your responses with a comma.",NA,"y",14260,NA,NA,2397,12294,NA,NA,NA,"worship,destroy, rebuild,",1
"5c5caa79cfdd2800011fc34f","b20ho3v716","Affordance Norms_Prolific",1,26,"2023-01-06T03:06:27+00:00",23.321700811386,9,"updated stim.csv","Version9.csv","Version 9","List 9","saleslady",NA,264,4.28,2221,0.151974823,265,"BOI","-","-","Please name all of the ways you could use this object. Keep in mind that one object can have many uses. Separate your responses with a comma.",NA,"y",22665,NA,NA,3221,19247,NA,NA,NA,"attractive, girlgfriend, model, famous ",1
"5c5caa79cfdd2800011fc34f","b20ho3v716","Affordance Norms_Prolific",1,27,"2023-01-06T03:06:40+00:00",12.945922136307,9,"updated stim.csv","Version9.csv","Version 9","List 9","rancher",NA,243,4.68,2137,0.77966363,244,"BOI","-","-","Please name all of the ways you could use this object. Keep in mind that one object can have many uses. Separate your responses with a comma.",NA,"y",12212,NA,NA,2148,10272,NA,NA,NA,"sauce, burgers, food,",1
"5c5caa79cfdd2800011fc34f","b20ho3v716","Affordance Norms_Prolific",1,28,"2023-01-06T03:06:56+00:00",16.269958972931,9,"updated stim.csv","Version9.csv","Version 9","List 9","goblet",NA,262,5.826086957,1125,0.285427589,263,"BOI","-","-","Please name all of the ways you could use this object. Keep in mind that one object can have many uses. Separate your responses with a comma.",NA,"y",15555,NA,NA,1284,13340,NA,NA,NA,"drink, ornament, weapon, trophy",1
"5c5caa79cfdd2800011fc34f","b20ho3v716","Affordance Norms_Prolific",1,29,"2023-01-06T03:07:14+00:00",17.819911956787,9,"updated stim.csv","Version9.csv","Version 9","List 9","cane",NA,257,6.068965517,413,0.55347765,258,"BOI","-","-","Please name all of the ways you could use this object. Keep in mind that one object can have many uses. Separate your responses with a comma.",NA,"y",17167,NA,NA,4283,15372,NA,NA,NA,"weapon, toy, sex toy, gardening",1
"5c5caa79cfdd2800011fc34f","b20ho3v716","Affordance Norms_Prolific",1,30,"2023-01-06T03:07:21+00:00",7.0733699798584,9,"updated stim.csv","Version9.csv","Version 9","List 9","wound",NA,256,4.583333333,2976,0.28598123,257,"BOI","-","-","Please name all of the ways you could use this object. Keep in mind that one object can have many uses. Separate your responses with a comma.",NA,"y",6663,NA,NA,2558,4610,NA,NA,NA,"wound heal",1
"5c5caa79cfdd2800011fc34f","b20ho3v716","Affordance Norms_Prolific",1,31,"2023-01-06T03:07:40+00:00",18.806298017502,9,"updated stim.csv","Version9.csv","Version 9","List 9","clay",NA,263,5.52,551,0.620791367,264,"BOI","-","-","Please name all of the ways you could use this object. Keep in mind that one object can have many uses. Separate your responses with a comma.",NA,"y",18127,NA,NA,2170,15353,NA,NA,NA,"make toys, art, dolls filler, ",1
"5c5caa79cfdd2800011fc34f","b20ho3v716","Affordance Norms_Prolific",1,32,"2023-01-06T03:07:52+00:00",12.542408943176,9,"updated stim.csv","Version9.csv","Version 9","List 9","token",NA,255,5.2,2721,0.805795808,256,"BOI","-","-","Please name all of the ways you could use this object. Keep in mind that one object can have many uses. Separate your responses with a comma.",NA,"y",11623,NA,NA,3690,9715,NA,NA,NA,"money, weapon, weight,",1
"5c5caa79cfdd2800011fc34f","b20ho3v716","Affordance Norms_Prolific",1,33,"2023-01-06T03:08:14+00:00",21.970762014389,9,"updated stim.csv","Version9.csv","Version 9","List 9","mayor",NA,241,4.28,1629,0.300205289,242,"BOI","-","-","Please name all of the ways you could use this object. Keep in mind that one object can have many uses. Separate your responses with a comma.",NA,"y",20377,NA,NA,15394,19059,NA,NA,NA,"lord",1
"5c5caa79cfdd2800011fc34f","b20ho3v716","Affordance Norms_Prolific",1,34,"2023-01-06T03:08:30+00:00",16.19406414032,9,"updated stim.csv","Version9.csv","Version 9","List 9","bench",NA,242,6.166666667,203,0.96821643,243,"BOI","-","-","Please name all of the ways you could use this object. Keep in mind that one object can have many uses. Separate your responses with a comma.",NA,"y",14748,NA,NA,1998,12268,NA,NA,NA,"grow food, plants, fire wood, ",1
"5c5caa79cfdd2800011fc34f","b20ho3v716","Affordance Norms_Prolific",1,35,"2023-01-06T03:08:48+00:00",17.300545930862,9,"updated stim.csv","Version9.csv","Version 9","List 9","shell",NA,261,5.291666667,2333,0.088519981,262,"BOI","-","-","Please name all of the ways you could use this object. Keep in mind that one object can have many uses. Separate your responses with a comma.",NA,"y",16622,NA,NA,2288,13902,NA,NA,NA,"decoration, design, food, ",1
"5c5caa79cfdd2800011fc34f","b20ho3v716","Affordance Norms_Prolific",1,36,"2023-01-06T03:08:57+00:00",9.8553020954132,9,"updated stim.csv","Version9.csv","Version 9","List 9","asparagus",NA,251,5.56,85,0.630185252,252,"BOI","-","-","Please name all of the ways you could use this object. Keep in mind that one object can have many uses. Separate your responses with a comma.",NA,"y",9206,NA,NA,1468,7637,NA,NA,NA,"food, versatile, eat.",1
"5c5caa79cfdd2800011fc34f","b20ho3v716","Affordance Norms_Prolific",1,37,"2023-01-06T03:09:09+00:00",11.674261808395,9,"updated stim.csv","Version9.csv","Version 9","List 9","block",NA,244,5.413793103,239,0.767968501,245,"BOI","-","-","Please name all of the ways you could use this object. Keep in mind that one object can have many uses. Separate your responses with a comma.",NA,"y",10941,NA,NA,1941,8218,NA,NA,NA,"punch, weapon, fight,",1
"5c5caa79cfdd2800011fc34f","b20ho3v716","Affordance Norms_Prolific",1,38,"2023-01-06T03:09:24+00:00",14.984968185425,9,"updated stim.csv","Version9.csv","Version 9","List 9","tube",NA,247,4.916666667,2791,0.621648514,248,"BOI","-","-","Please name all of the ways you could use this object. Keep in mind that one object can have many uses. Separate your responses with a comma.",NA,"y",14316,NA,NA,3037,12947,NA,NA,NA,"test tube, workhole, fun hole, ",1
"5c5caa79cfdd2800011fc34f","b20ho3v716","Affordance Norms_Prolific",1,39,"2023-01-06T03:09:35+00:00",10.700600862503,9,"updated stim.csv","Version9.csv","Version 9","List 9","duck",NA,246,5.041666667,859,0.394435726,247,"BOI","-","-","Please name all of the ways you could use this object. Keep in mind that one object can have many uses. Separate your responses with a comma.",NA,"y",9968,NA,NA,2038,8776,NA,NA,NA,"quack, food, pet, friend,",1
"5c5caa79cfdd2800011fc34f","b20ho3v716","Affordance Norms_Prolific",1,40,"2023-01-06T03:09:50+00:00",15.069988012314,9,"updated stim.csv","Version9.csv","Version 9","List 9","wrapper",NA,266,5.791666667,2978,0.869670923,267,"BOI","-","-","Please name all of the ways you could use this object. Keep in mind that one object can have many uses. Separate your responses with a comma.",NA,"y",14375,NA,NA,2993,12713,NA,NA,NA,"tape, christmas",1
"5c69aa58a70f0f0001606d01","n9kbmwe45y","Affordance Norms_Prolific",1,11,"2023-01-06T16:04:40+00:00",14.943545818329,89,"updated stim.csv","Version89.csv","Version 89","List 89","catwalk",NA,2665,4.652173913,464,0.140628779,2666,"BOI","-","-","Please name all of the ways you could use this object. Keep in mind that one object can have many uses. Separate your responses with a comma.",NA,"y",14304,NA,NA,5039,12987,NA,NA,NA,"lie, walk, trip, fall, parade",1
"5c69aa58a70f0f0001606d01","n9kbmwe45y","Affordance Norms_Prolific",1,12,"2023-01-06T16:04:56+00:00",15.368559122086,89,"updated stim.csv","Version89.csv","Version 89","List 89","radio",NA,2647,5.291666667,2122,0.897583079,2648,"BOI","-","-","Please name all of the ways you could use this object. Keep in mind that one object can have many uses. Separate your responses with a comma.",NA,"y",14690,NA,NA,1322,13468,NA,NA,NA,"listen, drop, use, twiddle",1
"5c69aa58a70f0f0001606d01","n9kbmwe45y","Affordance Norms_Prolific",1,13,"2023-01-06T16:05:10+00:00",14.596065998077,89,"updated stim.csv","Version89.csv","Version 89","List 89","hamburger",NA,2660,6.148148148,1222,0.48776635,2661,"BOI","-","-","Please name all of the ways you could use this object. Keep in mind that one object can have many uses. Separate your responses with a comma.",NA,"y",13938,NA,NA,1495,12879,NA,NA,NA,"eat, barbeque, vomit, ",1
"5c69aa58a70f0f0001606d01","n9kbmwe45y","Affordance Norms_Prolific",1,14,"2023-01-06T16:05:27+00:00",16.139694929123,89,"updated stim.csv","Version89.csv","Version 89","List 89","bathtub",NA,2650,6.565217391,170,0.48897818,2651,"BOI","-","-","Please name all of the ways you could use this object. Keep in mind that one object can have many uses. Separate your responses with a comma.",NA,"y",15465,NA,NA,1850,14823,NA,NA,NA,"bathe, clean, scrub, drown",1
"5c69aa58a70f0f0001606d01","n9kbmwe45y","Affordance Norms_Prolific",1,15,"2023-01-06T16:05:33+00:00",6.1686160564423,89,"updated stim.csv","Version89.csv","Version 89","List 89","garb",NA,2653,4.541666667,1074,0.214589886,2654,"BOI","-","-","Please name all of the ways you could use this object. Keep in mind that one object can have many uses. Separate your responses with a comma.",NA,"y",5467,NA,NA,2120,4319,NA,NA,NA,"wear",1
"5c69aa58a70f0f0001606d01","n9kbmwe45y","Affordance Norms_Prolific",1,16,"2023-01-06T16:05:48+00:00",14.873632907867,89,"updated stim.csv","Version89.csv","Version 89","List 89","dwarf",NA,2666,4.333333333,871,0.117156022,2667,"BOI","-","-","Please name all of the ways you could use this object. Keep in mind that one object can have many uses. Separate your responses with a comma.",NA,"y",13919,NA,NA,6659,13387,NA,NA,NA,"admire, dress, like",1
"5c69aa58a70f0f0001606d01","n9kbmwe45y","Affordance Norms_Prolific",1,17,"2023-01-06T16:06:00+00:00",12.687720060349,89,"updated stim.csv","Version89.csv","Version 89","List 89","mum",NA,2646,4.416666667,1719,0.704204495,2647,"BOI","-","-","Please name all of the ways you could use this object. Keep in mind that one object can have many uses. Separate your responses with a comma.",NA,"y",12284,NA,NA,1499,12116,NA,NA,NA,"love, care, look after, admire",1
"5c69aa58a70f0f0001606d01","n9kbmwe45y","Affordance Norms_Prolific",1,18,"2023-01-06T16:06:11+00:00",10.293960094452,89,"updated stim.csv","Version89.csv","Version 89","List 89","banister",NA,2651,5.130434783,140,0.506891939,2652,"BOI","-","-","Please name all of the ways you could use this object. Keep in mind that one object can have many uses. Separate your responses with a comma.",NA,"y",9647,NA,NA,2964,9297,NA,NA,NA,"slide, hold, paint",1
"5c69aa58a70f0f0001606d01","n9kbmwe45y","Affordance Norms_Prolific",1,19,"2023-01-06T16:06:22+00:00",11.196785926819,89,"updated stim.csv","Version89.csv","Version 89","List 89","trash",NA,2663,5.136363636,2764,0.824491911,2664,"BOI","-","-","Please name all of the ways you could use this object. Keep in mind that one object can have many uses. Separate your responses with a comma.",NA,"y",10421,NA,NA,3371,9919,NA,NA,NA,"take out, add to",1
"5c69aa58a70f0f0001606d01","n9kbmwe45y","Affordance Norms_Prolific",1,20,"2023-01-06T16:06:39+00:00",17.365425109863,89,"updated stim.csv","Version89.csv","Version 89","List 89","rail",NA,2658,5.517241379,2127,0.025104214,2659,"BOI","-","-","Please name all of the ways you could use this object. Keep in mind that one object can have many uses. Separate your responses with a comma.",NA,"y",16580,NA,NA,4762,16208,NA,NA,NA,"hold, guide, train run on",1
"5c69aa58a70f0f0001606d01","n9kbmwe45y","Affordance Norms_Prolific",1,21,"2023-01-06T16:06:52+00:00",12.673298835754,89,"updated stim.csv","Version89.csv","Version 89","List 89","waitress",NA,2649,4.826086957,2884,0.178678826,2650,"BOI","-","-","Please name all of the ways you could use this object. Keep in mind that one object can have many uses. Separate your responses with a comma.",NA,"y",12013,NA,NA,1814,7616,NA,NA,NA,"ask, pay, tip,",1
"5c69aa58a70f0f0001606d01","n9kbmwe45y","Affordance Norms_Prolific",1,22,"2023-01-06T16:07:05+00:00",12.967587947845,89,"updated stim.csv","Version89.csv","Version 89","List 89","husband",NA,2662,6.041666667,1338,0.500019135,2663,"BOI","-","-","Please name all of the ways you could use this object. Keep in mind that one object can have many uses. Separate your responses with a comma.",NA,"y",12271,NA,NA,1366,11986,NA,NA,NA,"love, care, look after",1
"5c69aa58a70f0f0001606d01","n9kbmwe45y","Affordance Norms_Prolific",1,23,"2023-01-06T16:07:24+00:00",19.381650209427,89,"updated stim.csv","Version89.csv","Version 89","List 89","hat",NA,2652,6.44,1258,0.995555698,2653,"BOI","-","-","Please name all of the ways you could use this object. Keep in mind that one object can have many uses. Separate your responses with a comma.",NA,"y",18619,NA,NA,1682,12594,NA,NA,NA,"wear, step on",1
"5c69aa58a70f0f0001606d01","n9kbmwe45y","Affordance Norms_Prolific",1,24,"2023-01-06T16:07:42+00:00",18.221691846848,89,"updated stim.csv","Version89.csv","Version 89","List 89","brooch",NA,2664,5.130434783,331,0.778970626,2665,"BOI","-","-","Please name all of the ways you could use this object. Keep in mind that one object can have many uses. Separate your responses with a comma.",NA,"y",17513,NA,NA,1614,17328,NA,NA,NA,"wear, keep, love",1
"5c69aa58a70f0f0001606d01","n9kbmwe45y","Affordance Norms_Prolific",1,25,"2023-01-06T16:07:52+00:00",9.7753360271454,89,"updated stim.csv","Version89.csv","Version 89","List 89","needles",NA,2659,5.416666667,1747,0.410145567,2660,"BOI","-","-","Please name all of the ways you could use this object. Keep in mind that one object can have many uses. Separate your responses with a comma.",NA,"y",8934,NA,NA,3248,8314,NA,NA,NA,"pin, sew, inject",1
"5c69aa58a70f0f0001606d01","n9kbmwe45y","Affordance Norms_Prolific",1,26,"2023-01-06T16:08:12+00:00",19.678918123245,89,"updated stim.csv","Version89.csv","Version 89","List 89","cupboard",NA,2661,5.782608696,727,0.324024312,2662,"BOI","-","-","Please name all of the ways you could use this object. Keep in mind that one object can have many uses. Separate your responses with a comma.",NA,"y",19257,NA,NA,2431,17283,NA,NA,NA,"store, hide, fill",1
"5c69aa58a70f0f0001606d01","n9kbmwe45y","Affordance Norms_Prolific",1,27,"2023-01-06T16:08:25+00:00",12.971489906311,89,"updated stim.csv","Version89.csv","Version 89","List 89","barkeep",NA,2670,4.260869565,148,0.310357294,2671,"BOI","-","-","Please name all of the ways you could use this object. Keep in mind that one object can have many uses. Separate your responses with a comma.",NA,"y",12332,NA,NA,4571,5680,NA,NA,NA,"drink",1
"5c69aa58a70f0f0001606d01","n9kbmwe45y","Affordance Norms_Prolific",1,28,"2023-01-06T16:08:43+00:00",17.690906047821,89,"updated stim.csv","Version89.csv","Version 89","List 89","lick",NA,2644,4.652173913,1502,0.157624694,2645,"BOI","-","-","Please name all of the ways you could use this object. Keep in mind that one object can have many uses. Separate your responses with a comma.",NA,"y",17041,NA,NA,14431,16050,NA,NA,NA,"flick, ",1
"5c69aa58a70f0f0001606d01","n9kbmwe45y","Affordance Norms_Prolific",1,29,"2023-01-06T16:08:57+00:00",14.846228837967,89,"updated stim.csv","Version89.csv","Version 89","List 89","guestroom",NA,2642,4.538461538,1190,0.361886166,2643,"BOI","-","-","Please name all of the ways you could use this object. Keep in mind that one object can have many uses. Separate your responses with a comma.",NA,"y",14178,NA,NA,2342,13976,NA,NA,NA,"sleep, relax, tidy, work",1
"5c69aa58a70f0f0001606d01","n9kbmwe45y","Affordance Norms_Prolific",1,30,"2023-01-06T16:09:09+00:00",12.050282001495,89,"updated stim.csv","Version89.csv","Version 89","List 89","crackers",NA,2667,5.913043478,677,0.103099472,2668,"BOI","-","-","Please name all of the ways you could use this object. Keep in mind that one object can have many uses. Separate your responses with a comma.",NA,"y",11260,NA,NA,2513,10368,NA,NA,NA,"pull, eat, throw",1
"5c69aa58a70f0f0001606d01","n9kbmwe45y","Affordance Norms_Prolific",1,31,"2023-01-06T16:09:19+00:00",9.5012800693512,89,"updated stim.csv","Version89.csv","Version 89","List 89","icepick",NA,2657,5.416666667,1347,0.619650655,2658,"BOI","-","-","Please name all of the ways you could use this object. Keep in mind that one object can have many uses. Separate your responses with a comma.",NA,"y",8797,NA,NA,6806,8593,NA,NA,NA,"use, kill",1
"5c69aa58a70f0f0001606d01","n9kbmwe45y","Affordance Norms_Prolific",1,32,"2023-01-06T16:09:31+00:00",11.818197011948,89,"updated stim.csv","Version89.csv","Version 89","List 89","congresswoman",NA,2648,4.32,627,0.309120151,2649,"BOI","-","-","Please name all of the ways you could use this object. Keep in mind that one object can have many uses. Separate your responses with a comma.",NA,"y",10978,NA,NA,3868,10761,NA,NA,NA,"ask, advise, vote",1
"5c69aa58a70f0f0001606d01","n9kbmwe45y","Affordance Norms_Prolific",1,33,"2023-01-06T16:09:43+00:00",12.683780908585,89,"updated stim.csv","Version89.csv","Version 89","List 89","picnicker",NA,2668,4.458333333,1951,0.609841409,2669,"BOI","-","-","Please name all of the ways you could use this object. Keep in mind that one object can have many uses. Separate your responses with a comma.",NA,"y",11958,NA,NA,5296,8542,NA,NA,NA,"sit, eat",1
"5c69aa58a70f0f0001606d01","n9kbmwe45y","Affordance Norms_Prolific",1,34,"2023-01-06T16:09:58+00:00",14.822781085968,89,"updated stim.csv","Version89.csv","Version 89","List 89","band",NA,2643,4.384615385,137,0.320058041,2644,"BOI","-","-","Please name all of the ways you could use this object. Keep in mind that one object can have many uses. Separate your responses with a comma.",NA,"y",14157,NA,NA,2091,10074,NA,NA,NA,"listen, wrap, wind",1
"5c69aa58a70f0f0001606d01","n9kbmwe45y","Affordance Norms_Prolific",1,35,"2023-01-06T16:10:07+00:00",8.4506230354309,89,"updated stim.csv","Version89.csv","Version 89","List 89","croquette",NA,2669,4.681818182,702,0.945016361,2670,"BOI","-","-","Please name all of the ways you could use this object. Keep in mind that one object can have many uses. Separate your responses with a comma.",NA,"y",7791,NA,NA,1435,7496,NA,NA,NA,"eat, cook, make",1
"5c69aa58a70f0f0001606d01","n9kbmwe45y","Affordance Norms_Prolific",1,36,"2023-01-06T16:10:14+00:00",7.3914399147034,89,"updated stim.csv","Version89.csv","Version 89","List 89","jar",NA,2655,6.208333333,1373,0.13576901,2656,"BOI","-","-","Please name all of the ways you could use this object. Keep in mind that one object can have many uses. Separate your responses with a comma.",NA,"y",6731,NA,NA,1504,6398,NA,NA,NA,"open, store, break",1
"5c69aa58a70f0f0001606d01","n9kbmwe45y","Affordance Norms_Prolific",1,37,"2023-01-06T16:10:25+00:00",10.695636034012,89,"updated stim.csv","Version89.csv","Version 89","List 89","rocker",NA,2656,5.04,2184,0.968839811,2657,"BOI","-","-","Please name all of the ways you could use this object. Keep in mind that one object can have many uses. Separate your responses with a comma.",NA,"y",10006,NA,NA,2016,6881,NA,NA,NA,"sit, listen to",1
"5c69aa58a70f0f0001606d01","n9kbmwe45y","Affordance Norms_Prolific",1,38,"2023-01-06T16:10:39+00:00",14.110975980759,89,"updated stim.csv","Version89.csv","Version 89","List 89","plaintiff",NA,2654,4.375,1985,0.803622684,2655,"BOI","-","-","Please name all of the ways you could use this object. Keep in mind that one object can have many uses. Separate your responses with a comma.",NA,"y",13331,NA,NA,8873,12886,NA,NA,NA,"contest, listen",1
"5c69aa58a70f0f0001606d01","n9kbmwe45y","Affordance Norms_Prolific",1,39,"2023-01-06T16:10:49+00:00",9.6996581554413,89,"updated stim.csv","Version89.csv","Version 89","List 89","lace",NA,2641,4.869565217,1445,0.627616705,2642,"BOI","-","-","Please name all of the ways you could use this object. Keep in mind that one object can have many uses. Separate your responses with a comma.",NA,"y",8895,NA,NA,3924,8362,NA,NA,NA,"sew, use, hide",1
"5c69aa58a70f0f0001606d01","n9kbmwe45y","Affordance Norms_Prolific",1,40,"2023-01-06T16:10:59+00:00",10.237854957581,89,"updated stim.csv","Version89.csv","Version 89","List 89","entree",NA,2645,5.28,912,0.254776783,2646,"BOI","-","-","Please name all of the ways you could use this object. Keep in mind that one object can have many uses. Separate your responses with a comma.",NA,"y",9568,NA,NA,1607,9341,NA,NA,NA,"eat, give",1
"5c6f552bd1a8e800013f1bf9","4m47raau6f","Affordance Norms_Prolific",1,11,"2023-01-06T14:59:37+00:00",50.567255020142,11,"updated stim.csv","Version11.csv","Version 11","List 11","bondsman",NA,307,4.416666667,266,0.076800302,308,"BOI","-","-","Please name all of the ways you could use this object. Keep in mind that one object can have many uses. Separate your responses with a comma.",NA,"y",50054,NA,NA,26771,40834,NA,NA,NA,"Hired, used, bought,",1
"5c6f552bd1a8e800013f1bf9","4m47raau6f","Affordance Norms_Prolific",1,12,"2023-01-06T15:00:00+00:00",22.422554969788,11,"updated stim.csv","Version11.csv","Version 11","List 11","molasses",NA,320,5,1675,0.906722331,321,"BOI","-","-","Please name all of the ways you could use this object. Keep in mind that one object can have many uses. Separate your responses with a comma.",NA,"y",21892,NA,NA,2647,20522,NA,NA,NA,"Eaten, stored, mixed, boiled, heated, bought",1
"5c6f552bd1a8e800013f1bf9","4m47raau6f","Affordance Norms_Prolific",1,13,"2023-01-06T15:00:19+00:00",19.667027950287,11,"updated stim.csv","Version11.csv","Version 11","List 11","casserole",NA,305,5.88,452,0.300410442,306,"BOI","-","-","Please name all of the ways you could use this object. Keep in mind that one object can have many uses. Separate your responses with a comma.",NA,"y",19074,NA,NA,2231,15980,NA,NA,NA,"Eaten, stored, cooked, frozen, reheated, sold, shared",1
"5c6f552bd1a8e800013f1bf9","4m47raau6f","Affordance Norms_Prolific",1,14,"2023-01-06T15:01:29+00:00",69.180928230286,11,"updated stim.csv","Version11.csv","Version 11","List 11","flatiron",NA,310,5.590909091,1004,0.687807092,311,"BOI","-","-","Please name all of the ways you could use this object. Keep in mind that one object can have many uses. Separate your responses with a comma.",NA,"y",68611,NA,NA,38674,65580,NA,NA,NA,"Pressed, heated, stored, bought, sold, held, ",1
"5c6f552bd1a8e800013f1bf9","4m47raau6f","Affordance Norms_Prolific",1,15,"2023-01-06T15:02:08+00:00",39.00757598877,11,"updated stim.csv","Version11.csv","Version 11","List 11","hibachi",NA,312,4.666666667,1284,0.898411228,313,"BOI","-","-","Please name all of the ways you could use this object. Keep in mind that one object can have many uses. Separate your responses with a comma.",NA,"y",38433,NA,NA,17315,36784,NA,NA,NA,"Heated, held, stored, boxed, gifted, heated",0.922
"5c6f552bd1a8e800013f1bf9","4m47raau6f","Affordance Norms_Prolific",1,16,"2023-01-06T15:02:38+00:00",30.219839811325,11,"updated stim.csv","Version11.csv","Version 11","List 11","village",NA,321,4.44,2858,0.883973737,322,"BOI","-","-","Please name all of the ways you could use this object. Keep in mind that one object can have many uses. Separate your responses with a comma.",NA,"y",29723,NA,NA,3812,27809,NA,NA,NA,"Lived, grown, left, populated, governed",1
"5c6f552bd1a8e800013f1bf9","4m47raau6f","Affordance Norms_Prolific",1,17,"2023-01-06T15:03:11+00:00",33.331647157669,11,"updated stim.csv","Version11.csv","Version 11","List 11","parakeet",NA,328,5.12,1870,0.759142375,329,"BOI","-","-","Please name all of the ways you could use this object. Keep in mind that one object can have many uses. Separate your responses with a comma.",NA,"y",32785,NA,NA,12831,31824,NA,NA,NA,"Bought, cared, stroked, held, fed, flown",1
"5c6f552bd1a8e800013f1bf9","4m47raau6f","Affordance Norms_Prolific",1,18,"2023-01-06T15:03:38+00:00",27.021499872208,11,"updated stim.csv","Version11.csv","Version 11","List 11","mongoose",NA,329,4.5,1679,0.318991097,330,"BOI","-","-","Please name all of the ways you could use this object. Keep in mind that one object can have many uses. Separate your responses with a comma.",NA,"y",26427,NA,NA,6184,25322,NA,NA,NA,"Cared, stroked, held",1
"5c6f552bd1a8e800013f1bf9","4m47raau6f","Affordance Norms_Prolific",1,19,"2023-01-06T15:04:14+00:00",36.33152794838,11,"updated stim.csv","Version11.csv","Version 11","List 11","pan",NA,326,6.409090909,1856,0.49712645,327,"BOI","-","-","Please name all of the ways you could use this object. Keep in mind that one object can have many uses. Separate your responses with a comma.",NA,"y",35756,NA,NA,3026,32570,NA,NA,NA,"stored, heated, stacked, held, dropped, oiled, cooked, bought, sold",1
"5c6f552bd1a8e800013f1bf9","4m47raau6f","Affordance Norms_Prolific",1,20,"2023-01-06T15:04:31+00:00",16.847026109695,11,"updated stim.csv","Version11.csv","Version 11","List 11","raincoat",NA,325,5.954545455,2130,0.311146933,326,"BOI","-","-","Please name all of the ways you could use this object. Keep in mind that one object can have many uses. Separate your responses with a comma.",NA,"y",16207,NA,NA,2178,15137,NA,NA,NA,"Sold, bought, stored, cleaned, presses, worn, hung",1
"5c6f552bd1a8e800013f1bf9","4m47raau6f","Affordance Norms_Prolific",1,21,"2023-01-06T15:04:47+00:00",15.75047492981,11,"updated stim.csv","Version11.csv","Version 11","List 11","dirt",NA,324,5.08,801,0.738677518,325,"BOI","-","-","Please name all of the ways you could use this object. Keep in mind that one object can have many uses. Separate your responses with a comma.",NA,"y",15176,NA,NA,2582,14224,NA,NA,NA,"Cleaned, washed, held, wiped, scraped",1
"5c6f552bd1a8e800013f1bf9","4m47raau6f","Affordance Norms_Prolific",1,22,"2023-01-06T15:05:25+00:00",37.863504171371,11,"updated stim.csv","Version11.csv","Version 11","List 11","acupuncture",NA,301,5.285714286,12,0.916607563,302,"BOI","-","-","Please name all of the ways you could use this object. Keep in mind that one object can have many uses. Separate your responses with a comma.",NA,"y",37252,NA,NA,2071,36365,NA,NA,NA,"Bought, sold, inserted, practiced",1
"5c6f552bd1a8e800013f1bf9","4m47raau6f","Affordance Norms_Prolific",1,23,"2023-01-06T15:05:36+00:00",11.572882890701,11,"updated stim.csv","Version11.csv","Version 11","List 11","grandchild",NA,315,5.24,1145,0.440329114,316,"BOI","-","-","Please name all of the ways you could use this object. Keep in mind that one object can have many uses. Separate your responses with a comma.",NA,"y",11016,NA,NA,2132,8419,NA,NA,NA,"Held, enjoyed, loved, cared, ",1
"5c6f552bd1a8e800013f1bf9","4m47raau6f","Affordance Norms_Prolific",1,24,"2023-01-06T15:06:15+00:00",38.98303604126,11,"updated stim.csv","Version11.csv","Version 11","List 11","kettledrum",NA,304,4.916666667,1410,0.325157872,305,"BOI","-","-","Please name all of the ways you could use this object. Keep in mind that one object can have many uses. Separate your responses with a comma.",NA,"y",38458,NA,NA,10353,31423,NA,NA,NA,"Played, stored, stacked, held, ",1
"5c6f552bd1a8e800013f1bf9","4m47raau6f","Affordance Norms_Prolific",1,25,"2023-01-06T15:06:44+00:00",28.213891029358,11,"updated stim.csv","Version11.csv","Version 11","List 11","butt",NA,311,5.652173913,374,0.608581961,312,"BOI","-","-","Please name all of the ways you could use this object. Keep in mind that one object can have many uses. Separate your responses with a comma.",NA,"y",27684,NA,NA,4937,26783,NA,NA,NA,"Held, hit, clasped, gripped, attached, detached, removed, touched",1
"5c6f552bd1a8e800013f1bf9","4m47raau6f","Affordance Norms_Prolific",1,26,"2023-01-06T15:07:15+00:00",31.007385969162,11,"updated stim.csv","Version11.csv","Version 11","List 11","crust",NA,303,5.125,716,0.683574325,304,"BOI","-","-","Please name all of the ways you could use this object. Keep in mind that one object can have many uses. Separate your responses with a comma.",NA,"y",30470,NA,NA,1869,29608,NA,NA,NA,"Eaten, removed, cut, sliced, toasted, removed, pulled, baked, binned",1
"5c6f552bd1a8e800013f1bf9","4m47raau6f","Affordance Norms_Prolific",1,27,"2023-01-06T15:07:38+00:00",23.20902299881,11,"updated stim.csv","Version11.csv","Version 11","List 11","trigger",NA,319,5.16,2776,0.22608946,320,"BOI","-","-","Please name all of the ways you could use this object. Keep in mind that one object can have many uses. Separate your responses with a comma.",NA,"y",22668,NA,NA,1832,21796,NA,NA,NA,"Pulled, fired, touched, held, pressed, gripped, pushed",1
"5c6f552bd1a8e800013f1bf9","4m47raau6f","Affordance Norms_Prolific",1,28,"2023-01-06T15:08:17+00:00",39.229429006577,11,"updated stim.csv","Version11.csv","Version 11","List 11","furnace",NA,330,4.68,1066,0.954439673,331,"BOI","-","-","Please name all of the ways you could use this object. Keep in mind that one object can have many uses. Separate your responses with a comma.",NA,"y",38681,NA,NA,1992,36969,NA,NA,NA,"Heated, radiated, repaired",1
"5c6f552bd1a8e800013f1bf9","4m47raau6f","Affordance Norms_Prolific",1,29,"2023-01-06T15:08:29+00:00",11.600379943848,11,"updated stim.csv","Version11.csv","Version 11","List 11","stepdaughter",NA,313,4.72,2525,0.735803548,314,"BOI","-","-","Please name all of the ways you could use this object. Keep in mind that one object can have many uses. Separate your responses with a comma.",NA,"y",10992,NA,NA,2229,8308,NA,NA,NA,"Cared, loved, lived",1
"5c6f552bd1a8e800013f1bf9","4m47raau6f","Affordance Norms_Prolific",1,30,"2023-01-06T15:08:58+00:00",28.960141897202,11,"updated stim.csv","Version11.csv","Version 11","List 11","nut",NA,306,5.555555556,1789,0.73002974,307,"BOI","-","-","Please name all of the ways you could use this object. Keep in mind that one object can have many uses. Separate your responses with a comma.",NA,"y",28371,NA,NA,1887,25561,NA,NA,NA,"Eaten, mixed, stored, skinned, toasted, held, binned, sliced",1
"5c6f552bd1a8e800013f1bf9","4m47raau6f","Affordance Norms_Prolific",1,31,"2023-01-06T15:09:20+00:00",22.053787231445,11,"updated stim.csv","Version11.csv","Version 11","List 11","belt",NA,317,5.80952381,202,0.73583162,318,"BOI","-","-","Please name all of the ways you could use this object. Keep in mind that one object can have many uses. Separate your responses with a comma.",NA,"y",21498,NA,NA,2041,20542,NA,NA,NA,"Worn, bought, sold, stored, tightened, loosened, holed, buckled",1
"5c6f552bd1a8e800013f1bf9","4m47raau6f","Affordance Norms_Prolific",1,32,"2023-01-06T15:09:32+00:00",12.392387866974,11,"updated stim.csv","Version11.csv","Version 11","List 11","teaspoonful",NA,322,4.4,2654,0.628822153,323,"BOI","-","-","Please name all of the ways you could use this object. Keep in mind that one object can have many uses. Separate your responses with a comma.",NA,"y",11874,NA,NA,1824,11106,NA,NA,NA,"Eaten, mixed, stirred, measured",1
"5c6f552bd1a8e800013f1bf9","4m47raau6f","Affordance Norms_Prolific",1,33,"2023-01-06T15:09:43+00:00",11.212419986725,11,"updated stim.csv","Version11.csv","Version 11","List 11","taffy",NA,323,4.6,2622,0.044666984,324,"BOI","-","-","Please name all of the ways you could use this object. Keep in mind that one object can have many uses. Separate your responses with a comma.",NA,"y",10694,NA,NA,1764,9645,NA,NA,NA,"Eaten, pulled, stretched, sold",1
"5c6f552bd1a8e800013f1bf9","4m47raau6f","Affordance Norms_Prolific",1,34,"2023-01-06T15:10:01+00:00",17.72635102272,11,"updated stim.csv","Version11.csv","Version 11","List 11","device",NA,302,5.75,784,0.029470498,303,"BOI","-","-","Please name all of the ways you could use this object. Keep in mind that one object can have many uses. Separate your responses with a comma.",NA,"y",17182,NA,NA,1797,16336,NA,NA,NA,"Used, electrified, digitized, charged, held, dropped",1
"5c6f552bd1a8e800013f1bf9","4m47raau6f","Affordance Norms_Prolific",1,35,"2023-01-06T15:10:12+00:00",10.652100086212,11,"updated stim.csv","Version11.csv","Version 11","List 11","corn",NA,316,6,644,0.631792512,317,"BOI","-","-","Please name all of the ways you could use this object. Keep in mind that one object can have many uses. Separate your responses with a comma.",NA,"y",9985,NA,NA,1708,9223,NA,NA,NA,"Eaten, toasted, baked, mixed",1
"5c6f552bd1a8e800013f1bf9","4m47raau6f","Affordance Norms_Prolific",1,36,"2023-01-06T15:10:23+00:00",11.414021015167,11,"updated stim.csv","Version11.csv","Version 11","List 11","billiards",NA,327,4.925925926,216,0.526458122,328,"BOI","-","-","Please name all of the ways you could use this object. Keep in mind that one object can have many uses. Separate your responses with a comma.",NA,"y",10827,NA,NA,3186,8800,NA,NA,NA,"Played, won, lost",1
"5c6f552bd1a8e800013f1bf9","4m47raau6f","Affordance Norms_Prolific",1,37,"2023-01-06T15:10:51+00:00",28.249292850494,11,"updated stim.csv","Version11.csv","Version 11","List 11","mullets",NA,318,4.304347826,1718,0.363544582,319,"BOI","-","-","Please name all of the ways you could use this object. Keep in mind that one object can have many uses. Separate your responses with a comma.",NA,"y",27705,NA,NA,3736,26530,NA,NA,NA,"Worn, cut, styled, shaved, dyed, gelled, shaved",1
"5c6f552bd1a8e800013f1bf9","4m47raau6f","Affordance Norms_Prolific",1,38,"2023-01-06T15:11:33+00:00",41.493463039398,11,"updated stim.csv","Version11.csv","Version 11","List 11","apartments",NA,309,4.851851852,56,0.982478451,310,"BOI","-","-","Please name all of the ways you could use this object. Keep in mind that one object can have many uses. Separate your responses with a comma.",NA,"y",40998,NA,NA,1876,39124,NA,NA,NA,"Bought, sold, rented, lived, flooded, damaged, shared, emptied, occupied, populated, closed, open, furnished, unfurnished ",1
"5c6f552bd1a8e800013f1bf9","4m47raau6f","Affordance Norms_Prolific",1,39,"2023-01-06T15:11:58+00:00",24.945359945297,11,"updated stim.csv","Version11.csv","Version 11","List 11","rectum",NA,308,5.041666667,2150,0.369250805,309,"BOI","-","-","Please name all of the ways you could use this object. Keep in mind that one object can have many uses. Separate your responses with a comma.",NA,"y",24412,NA,NA,13931,23617,NA,NA,NA,"Cleaned, touched, hidden, clothed, cleaned",1
"5c6f552bd1a8e800013f1bf9","4m47raau6f","Affordance Norms_Prolific",1,40,"2023-01-06T15:12:08+00:00",9.7536690235138,11,"updated stim.csv","Version11.csv","Version 11","List 11","flowerpot",NA,314,5,1017,0.528229772,315,"BOI","-","-","Please name all of the ways you could use this object. Keep in mind that one object can have many uses. Separate your responses with a comma.",NA,"y",9201,NA,NA,1804,8371,NA,NA,NA,"Held, stored, stacked, soiled",1
"5c98310742270c0014d0287a","dauhovcdcc","Affordance Norms_Prolific",1,11,"2023-01-06T18:20:55+00:00",77.397852897644,11,"updated stim.csv","Version11.csv","Version 11","List 11","billiards",NA,327,4.925925926,216,0.526458122,328,"BOI","-","-","Please name all of the ways you could use this object. Keep in mind that one object can have many uses. Separate your responses with a comma.",NA,"y",76978,NA,NA,6848,75141,NA,NA,NA,"play pool, throw balls, use cues as weapons",1
"5c98310742270c0014d0287a","dauhovcdcc","Affordance Norms_Prolific",1,12,"2023-01-06T18:22:01+00:00",65.736638069153,11,"updated stim.csv","Version11.csv","Version 11","List 11","parakeet",NA,328,5.12,1870,0.759142375,329,"BOI","-","-","Please name all of the ways you could use this object. Keep in mind that one object can have many uses. Separate your responses with a comma.",NA,"y",65391,NA,NA,7525,50204,NA,NA,NA,"have it as a pet, talk to it, have a conversation, take pictures of it, burn it, kill it, eat it",1
"5c98310742270c0014d0287a","dauhovcdcc","Affordance Norms_Prolific",1,13,"2023-01-06T18:23:26+00:00",85.574802875519,11,"updated stim.csv","Version11.csv","Version 11","List 11","bondsman",NA,307,4.416666667,266,0.076800302,308,"BOI","-","-","Please name all of the ways you could use this object. Keep in mind that one object can have many uses. Separate your responses with a comma.",NA,"y",85195,NA,NA,4824,82139,NA,NA,NA,"have a conversation, have an affair with him, make a negotiation, use him as a bodyguard, personal driver, personal chef, butler, security guard",1
"5c98310742270c0014d0287a","dauhovcdcc","Affordance Norms_Prolific",1,14,"2023-01-06T18:24:22+00:00",55.953860998154,11,"updated stim.csv","Version11.csv","Version 11","List 11","hibachi",NA,312,4.666666667,1284,0.898411228,313,"BOI","-","-","Please name all of the ways you could use this object. Keep in mind that one object can have many uses. Separate your responses with a comma.",NA,"y",55621,NA,NA,33502,39492,NA,NA,NA,"cook it, eat it, order it at restaurant",1
"5c98310742270c0014d0287a","dauhovcdcc","Affordance Norms_Prolific",1,15,"2023-01-06T18:26:10+00:00",107.79345011711,11,"updated stim.csv","Version11.csv","Version 11","List 11","crust",NA,303,5.125,716,0.683574325,304,"BOI","-","-","Please name all of the ways you could use this object. Keep in mind that one object can have many uses. Separate your responses with a comma.",NA,"y",73686,NA,NA,9161,61460,NA,NA,NA,"eat it, throw it away, hold pizza",1
"5c98310742270c0014d0287a","dauhovcdcc","Affordance Norms_Prolific",1,16,"2023-01-06T18:27:14+00:00",63.911460876465,11,"updated stim.csv","Version11.csv","Version 11","List 11","molasses",NA,320,5,1675,0.906722331,321,"BOI","-","-","Please name all of the ways you could use this object. Keep in mind that one object can have many uses. Separate your responses with a comma.",NA,"y",63567,NA,NA,5679,52901,NA,NA,NA,"use as an ingredient, eat it, pour it, squish it, microwave it, freeze it, burn it, sell it, ",1
"5c98310742270c0014d0287a","dauhovcdcc","Affordance Norms_Prolific",1,17,"2023-01-06T18:28:06+00:00",52.06574511528,11,"updated stim.csv","Version11.csv","Version 11","List 11","corn",NA,316,6,644,0.631792512,317,"BOI","-","-","Please name all of the ways you could use this object. Keep in mind that one object can have many uses. Separate your responses with a comma.",NA,"y",51664,NA,NA,6576,36919,NA,NA,NA,"eat it, bake it, heat it, cook it, throw it, step on it, grow it, sell it, make corn on the cob",1
"5c98310742270c0014d0287a","dauhovcdcc","Affordance Norms_Prolific",1,18,"2023-01-06T18:29:46+00:00",99.53963303566,11,"updated stim.csv","Version11.csv","Version 11","List 11","butt",NA,311,5.652173913,374,0.608581961,312,"BOI","-","-","Please name all of the ways you could use this object. Keep in mind that one object can have many uses. Separate your responses with a comma.",NA,"y",98900,NA,NA,8077,89614,NA,NA,NA,"grab it, slap it, lick, smell, appreciate, hump it, have sex ",1
"5c98310742270c0014d0287a","dauhovcdcc","Affordance Norms_Prolific",1,19,"2023-01-06T18:30:27+00:00",41.025025844574,11,"updated stim.csv","Version11.csv","Version 11","List 11","teaspoonful",NA,322,4.4,2654,0.628822153,323,"BOI","-","-","Please name all of the ways you could use this object. Keep in mind that one object can have many uses. Separate your responses with a comma.",NA,"y",40661,NA,NA,9421,38704,NA,NA,NA,"pour it, use in a recipe, consume it, drop it, measure",1
"5c98310742270c0014d0287a","dauhovcdcc","Affordance Norms_Prolific",1,20,"2023-01-06T18:32:01+00:00",93.997486114502,11,"updated stim.csv","Version11.csv","Version 11","List 11","nut",NA,306,5.555555556,1789,0.73002974,307,"BOI","-","-","Please name all of the ways you could use this object. Keep in mind that one object can have many uses. Separate your responses with a comma.",NA,"y",93632,NA,NA,5780,83212,NA,NA,NA,"eat it, save it for later, give to a squirrel, throw it, shove it up your ass, make a kid have an allergic reaction, make peanut butter, crush it",1
"5c98310742270c0014d0287a","dauhovcdcc","Affordance Norms_Prolific",1,21,"2023-01-06T18:33:33+00:00",91.956439971924,11,"updated stim.csv","Version11.csv","Version 11","List 11","belt",NA,317,5.80952381,202,0.73583162,318,"BOI","-","-","Please name all of the ways you could use this object. Keep in mind that one object can have many uses. Separate your responses with a comma.",NA,"y",91567,NA,NA,12785,75316,NA,NA,NA,"discipline kids, tighten your pants, use as fashion aesthetic, whip someone, sell it",1
"5c98310742270c0014d0287a","dauhovcdcc","Affordance Norms_Prolific",1,22,"2023-01-06T18:34:45+00:00",72.155652046204,11,"updated stim.csv","Version11.csv","Version 11","List 11","casserole",NA,305,5.88,452,0.300410442,306,"BOI","-","-","Please name all of the ways you could use this object. Keep in mind that one object can have many uses. Separate your responses with a comma.",NA,"y",71793,NA,NA,4192,70557,NA,NA,NA,"eat, share, give to homeless, throw away, step on it, smell it, burn it",1
"5c98310742270c0014d0287a","dauhovcdcc","Affordance Norms_Prolific",1,23,"2023-01-06T18:35:40+00:00",55.506811857224,11,"updated stim.csv","Version11.csv","Version 11","List 11","flowerpot",NA,314,5,1017,0.528229772,315,"BOI","-","-","Please name all of the ways you could use this object. Keep in mind that one object can have many uses. Separate your responses with a comma.",NA,"y",55140,NA,NA,4564,40498,NA,NA,NA,"drop on someone's head, store dirt, store a flower, grow seeds, give as a gift ",1
"5c98310742270c0014d0287a","dauhovcdcc","Affordance Norms_Prolific",1,24,"2023-01-06T18:36:38+00:00",57.610995054245,11,"updated stim.csv","Version11.csv","Version 11","List 11","raincoat",NA,325,5.954545455,2130,0.311146933,326,"BOI","-","-","Please name all of the ways you could use this object. Keep in mind that one object can have many uses. Separate your responses with a comma.",NA,"y",57148,NA,NA,2334,54407,NA,NA,NA,"wear it, hang it, wash it, dry it, sit on it, draw on it, throw it, kick it around, tie it around your waist",1
"5c98310742270c0014d0287a","dauhovcdcc","Affordance Norms_Prolific",1,25,"2023-01-06T18:37:54+00:00",76.134392976761,11,"updated stim.csv","Version11.csv","Version 11","List 11","flatiron",NA,310,5.590909091,1004,0.687807092,311,"BOI","-","-","Please name all of the ways you could use this object. Keep in mind that one object can have many uses. Separate your responses with a comma.",NA,"y",75781,NA,NA,34785,71813,NA,NA,NA,"make clothes look nice, burn someone",0.913
"5c98310742270c0014d0287a","dauhovcdcc","Affordance Norms_Prolific",1,26,"2023-01-06T18:39:18+00:00",83.976858139038,11,"updated stim.csv","Version11.csv","Version 11","List 11","device",NA,302,5.75,784,0.029470498,303,"BOI","-","-","Please name all of the ways you could use this object. Keep in mind that one object can have many uses. Separate your responses with a comma.",NA,"y",83504,NA,NA,4314,78411,NA,NA,NA,"call someone, go on internet, email, watch videos, play music, perform mathematical calculations, write a story, make bill payments, read the news, measure heart rate, monitor your sleep",1
"5c98310742270c0014d0287a","dauhovcdcc","Affordance Norms_Prolific",1,27,"2023-01-06T18:39:46+00:00",28.145619869232,11,"updated stim.csv","Version11.csv","Version 11","List 11","acupuncture",NA,301,5.285714286,12,0.916607563,302,"BOI","-","-","Please name all of the ways you could use this object. Keep in mind that one object can have many uses. Separate your responses with a comma.",NA,"y",27773,NA,NA,8470,16700,NA,NA,NA,"fix your body, stab it in someone",1
"5c98310742270c0014d0287a","dauhovcdcc","Affordance Norms_Prolific",1,28,"2023-01-06T18:40:24+00:00",37.682032108307,11,"updated stim.csv","Version11.csv","Version 11","List 11","kettledrum",NA,304,4.916666667,1410,0.325157872,305,"BOI","-","-","Please name all of the ways you could use this object. Keep in mind that one object can have many uses. Separate your responses with a comma.",NA,"y",37328,NA,NA,3474,31217,NA,NA,NA,"play it, throw it, roll it, sell it, give it away",1
"5c98310742270c0014d0287a","dauhovcdcc","Affordance Norms_Prolific",1,29,"2023-01-06T18:40:57+00:00",32.695183992386,11,"updated stim.csv","Version11.csv","Version 11","List 11","trigger",NA,319,5.16,2776,0.22608946,320,"BOI","-","-","Please name all of the ways you could use this object. Keep in mind that one object can have many uses. Separate your responses with a comma.",NA,"y",32326,NA,NA,9068,31038,NA,NA,NA,"pull it, threaten someone, rob a bank",1
"5c98310742270c0014d0287a","dauhovcdcc","Affordance Norms_Prolific",1,30,"2023-01-06T18:41:47+00:00",50.583484888077,11,"updated stim.csv","Version11.csv","Version 11","List 11","mullets",NA,318,4.304347826,1718,0.363544582,319,"BOI","-","-","Please name all of the ways you could use this object. Keep in mind that one object can have many uses. Separate your responses with a comma.",NA,"y",50232,NA,NA,11922,48556,NA,NA,NA,"throw them, put them in a box, burn them, put them in a bag",0.988
"5c98310742270c0014d0287a","dauhovcdcc","Affordance Norms_Prolific",1,31,"2023-01-06T18:43:00+00:00",72.42555809021,11,"updated stim.csv","Version11.csv","Version 11","List 11","rectum",NA,308,5.041666667,2150,0.369250805,309,"BOI","-","-","Please name all of the ways you could use this object. Keep in mind that one object can have many uses. Separate your responses with a comma.",NA,"y",72044,NA,NA,9048,69722,NA,NA,NA,"stick pen inside it, shove your finger up it, have sex, fart, poop",0.991
"5c98310742270c0014d0287a","dauhovcdcc","Affordance Norms_Prolific",1,32,"2023-01-06T18:43:40+00:00",40.278945922852,11,"updated stim.csv","Version11.csv","Version 11","List 11","taffy",NA,323,4.6,2622,0.044666984,324,"BOI","-","-","Please name all of the ways you could use this object. Keep in mind that one object can have many uses. Separate your responses with a comma.",NA,"y",39683,NA,NA,3247,38126,NA,NA,NA,"eat it, break it, throw it, sell it, burn it",0.961
"5c98310742270c0014d0287a","dauhovcdcc","Affordance Norms_Prolific",1,33,"2023-01-06T18:45:20+00:00",100.35366392136,11,"updated stim.csv","Version11.csv","Version 11","List 11","village",NA,321,4.44,2858,0.883973737,322,"BOI","-","-","Please name all of the ways you could use this object. Keep in mind that one object can have many uses. Separate your responses with a comma.",NA,"y",99977,NA,NA,7100,98299,NA,NA,NA,"host a party, invade it, steal its farm, trade with the villagers, use as a new home, store drug money",1
"5c98310742270c0014d0287a","dauhovcdcc","Affordance Norms_Prolific",1,34,"2023-01-06T18:46:23+00:00",63.20298910141,11,"updated stim.csv","Version11.csv","Version 11","List 11","furnace",NA,330,4.68,1066,0.954439673,331,"BOI","-","-","Please name all of the ways you could use this object. Keep in mind that one object can have many uses. Separate your responses with a comma.",NA,"y",62813,NA,NA,6696,61476,NA,NA,NA,"heat source, cook food, burn someone",1
"5c98310742270c0014d0287a","dauhovcdcc","Affordance Norms_Prolific",1,35,"2023-01-06T18:47:17+00:00",53.293271064758,11,"updated stim.csv","Version11.csv","Version 11","List 11","pan",NA,326,6.409090909,1856,0.49712645,327,"BOI","-","-","Please name all of the ways you could use this object. Keep in mind that one object can have many uses. Separate your responses with a comma.",NA,"y",52902,NA,NA,2067,51658,NA,NA,NA,"fry eggs, make hamburgers, hit someone, pour oil on it, fry vegetables",1
"5c98310742270c0014d0287a","dauhovcdcc","Affordance Norms_Prolific",1,36,"2023-01-06T18:48:43+00:00",85.957002878189,11,"updated stim.csv","Version11.csv","Version 11","List 11","stepdaughter",NA,313,4.72,2525,0.735803548,314,"BOI","-","-","Please name all of the ways you could use this object. Keep in mind that one object can have many uses. Separate your responses with a comma.",NA,"y",85596,NA,NA,8923,56638,NA,NA,NA,"teach her algebra, feed her, go on a drive, talk about aliens, ",0.883
"5c98310742270c0014d0287a","dauhovcdcc","Affordance Norms_Prolific",1,37,"2023-01-06T18:49:29+00:00",46.516955137253,11,"updated stim.csv","Version11.csv","Version 11","List 11","grandchild",NA,315,5.24,1145,0.440329114,316,"BOI","-","-","Please name all of the ways you could use this object. Keep in mind that one object can have many uses. Separate your responses with a comma.",NA,"y",46131,NA,NA,8397,44596,NA,NA,NA,"read a book, feed them, take care of them, go on a walk, hold their hand",1
"5c98310742270c0014d0287a","dauhovcdcc","Affordance Norms_Prolific",1,38,"2023-01-06T18:50:18+00:00",48.669808864594,11,"updated stim.csv","Version11.csv","Version 11","List 11","apartments",NA,309,4.851851852,56,0.982478451,310,"BOI","-","-","Please name all of the ways you could use this object. Keep in mind that one object can have many uses. Separate your responses with a comma.",NA,"y",48290,NA,NA,9590,44834,NA,NA,NA,"use as shelter, rent a room, sleep, have a conversation with someone, do a ding dong ditch prank",0.978
"5c98310742270c0014d0287a","dauhovcdcc","Affordance Norms_Prolific",1,39,"2023-01-06T18:50:56+00:00",38.492621183395,11,"updated stim.csv","Version11.csv","Version 11","List 11","mongoose",NA,329,4.5,1679,0.318991097,330,"BOI","-","-","Please name all of the ways you could use this object. Keep in mind that one object can have many uses. Separate your responses with a comma.",NA,"y",38119,NA,NA,8035,29450,NA,NA,NA,"catch it, take pictures of it, kill it, kick it, punch it, burn it, eat it, throw it",1
"5c98310742270c0014d0287a","dauhovcdcc","Affordance Norms_Prolific",1,40,"2023-01-06T18:51:25+00:00",28.406774997711,11,"updated stim.csv","Version11.csv","Version 11","List 11","dirt",NA,324,5.08,801,0.738677518,325,"BOI","-","-","Please name all of the ways you could use this object. Keep in mind that one object can have many uses. Separate your responses with a comma.",NA,"y",28042,NA,NA,3721,25713,NA,NA,NA,"eat it, touch it, throw it, slam it, stomp on it, dig your hands in it",1
"5cc5c31a89c84a0001377a39","apu3jht6c8","Affordance Norms_Prolific",1,11,"2023-01-06T18:37:29+00:00",53.870229005814,35,"updated stim.csv","Version35.csv","Version 35","List 35","broom",NA,1022,6.416666667,332,0.112184071,1023,"BOI","-","-","Please name all of the ways you could use this object. Keep in mind that one object can have many uses. Separate your responses with a comma.",NA,"y",53242,NA,NA,7765,17883,NA,NA,NA,"clean a floor,",1
"5cc5c31a89c84a0001377a39","apu3jht6c8","Affordance Norms_Prolific",1,12,"2023-01-06T18:38:35+00:00",65.654283046722,35,"updated stim.csv","Version35.csv","Version 35","List 35","fence",NA,1046,5.62962963,962,0.462536133,1047,"BOI","-","-","Please name all of the ways you could use this object. Keep in mind that one object can have many uses. Separate your responses with a comma.",NA,"y",65041,NA,NA,8373,60742,NA,NA,NA,"keep people in a garden, keep people out of a garden",1
"5cc5c31a89c84a0001377a39","apu3jht6c8","Affordance Norms_Prolific",1,13,"2023-01-06T18:39:39+00:00",64.622016906738,35,"updated stim.csv","Version35.csv","Version 35","List 35","receipt",NA,1028,5.28,2143,0.827374267,1029,"BOI","-","-","Please name all of the ways you could use this object. Keep in mind that one object can have many uses. Separate your responses with a comma.",NA,"y",63998,NA,NA,9255,61324,NA,NA,NA,"proof of purchase,to take something back",1
"5cc5c31a89c84a0001377a39","apu3jht6c8","Affordance Norms_Prolific",1,14,"2023-01-06T18:40:11+00:00",31.74308514595,35,"updated stim.csv","Version35.csv","Version 35","List 35","machetes",NA,1040,5.260869565,1566,0.890397938,1041,"BOI","-","-","Please name all of the ways you could use this object. Keep in mind that one object can have many uses. Separate your responses with a comma.",NA,"y",30842,NA,NA,11372,28477,NA,NA,NA,"to harm someone, to chop something",1
"5cc5c31a89c84a0001377a39","apu3jht6c8","Affordance Norms_Prolific",1,15,"2023-01-06T18:40:22+00:00",11.133611917496,35,"updated stim.csv","Version35.csv","Version 35","List 35","lint",NA,1048,5.04,1520,0.72200839,1049,"BOI","-","-","Please name all of the ways you could use this object. Keep in mind that one object can have many uses. Separate your responses with a comma.",NA,"y",10781,NA,NA,-1,-1,NA,NA,NA,"",1
"5cc5c31a89c84a0001377a39","apu3jht6c8","Affordance Norms_Prolific",1,16,"2023-01-06T18:40:30+00:00",7.977233171463,35,"updated stim.csv","Version35.csv","Version 35","List 35","caseworker",NA,1039,4.32,447,0.044631855,1040,"BOI","-","-","Please name all of the ways you could use this object. Keep in mind that one object can have many uses. Separate your responses with a comma.",NA,"y",7634,NA,NA,-1,-1,NA,NA,NA,"",1
"5cc5c31a89c84a0001377a39","apu3jht6c8","Affordance Norms_Prolific",1,17,"2023-01-06T18:40:35+00:00",4.5940639972687,35,"updated stim.csv","Version35.csv","Version 35","List 35","farmhand",NA,1026,4.4,948,0.830285329,1027,"BOI","-","-","Please name all of the ways you could use this object. Keep in mind that one object can have many uses. Separate your responses with a comma.",NA,"y",4265,NA,NA,-1,-1,NA,NA,NA,"",1
