"Username","ID","ExperimentName","Session","Trial","Date","TimeDif","Condition.Number","Stimuli.File","Order.File","Condition.Description","Condition.Notes","Stimuli.Cue","Stimuli.Answer","Stimuli.Shuffle","Stimuli.Stimuli.Notes","Stimuli.Value","Stimuli.Rand","Procedure.Item","Procedure.Trial.Type","Procedure.Max.Time","Procedure.Min.Time","Procedure.Text","Procedure.Procedure.Notes","Procedure.Shuffle","Response.RT","Response.Response","Response.Accuracy","Response.RTfirst","Response.RTlast","Response.strictAcc","Response.lenientAcc","Response.focus","Response.JOL","Response.Focus"
"5693df018d93fe000dfa5733","ihv0os95m5","Affordance Norms_Prolific",1,11,"2023-02-01T21:51:55+00:00",13.461864948273,65,"updated stim.csv","Version65.csv","Version 65","List 65","ski",NA,1943,5.52,2397,0.388689884,1944,"BOI","-","-","Please name all of the ways you could use this object. Keep in mind that one object can have many uses. Separate your responses with a comma.",NA,"y",13117,NA,NA,2226,10693,NA,NA,NA,"skiing, exercise",1
"5693df018d93fe000dfa5733","ihv0os95m5","Affordance Norms_Prolific",1,12,"2023-02-01T21:52:07+00:00",12.050687074661,65,"updated stim.csv","Version65.csv","Version 65","List 65","optician",NA,1922,4.851851852,1813,0.623184015,1923,"BOI","-","-","Please name all of the ways you could use this object. Keep in mind that one object can have many uses. Separate your responses with a comma.",NA,"y",11706,NA,NA,2261,10210,NA,NA,NA,"getting new glasses, checking eyesight",1
"5693df018d93fe000dfa5733","ihv0os95m5","Affordance Norms_Prolific",1,13,"2023-02-01T21:52:21+00:00",13.669754981995,65,"updated stim.csv","Version65.csv","Version 65","List 65","fist",NA,1928,6.08,993,0.53562043,1929,"BOI","-","-","Please name all of the ways you could use this object. Keep in mind that one object can have many uses. Separate your responses with a comma.",NA,"y",13318,NA,NA,1601,10014,NA,NA,NA,"punching, throwing, snapped in half",1
"5693df018d93fe000dfa5733","ihv0os95m5","Affordance Norms_Prolific",1,14,"2023-02-01T21:53:38+00:00",76.514014005661,65,"updated stim.csv","Version65.csv","Version 65","List 65","carpenter",NA,1924,5.464285714,436,0.758607588,1925,"BOI","-","-","Please name all of the ways you could use this object. Keep in mind that one object can have many uses. Separate your responses with a comma.",NA,"y",75924,NA,NA,9990,66728,NA,NA,NA,"carpenting, installation, removing, dismantling",1
"5693df018d93fe000dfa5733","ihv0os95m5","Affordance Norms_Prolific",1,15,"2023-02-01T21:54:02+00:00",24.547535896301,65,"updated stim.csv","Version65.csv","Version 65","List 65","ocean",NA,1921,5.217391304,1799,0.570371973,1922,"BOI","-","-","Please name all of the ways you could use this object. Keep in mind that one object can have many uses. Separate your responses with a comma.",NA,"y",23971,NA,NA,3300,23184,NA,NA,NA,"jump in it, drink it, drown in it, swim in it, dive in it, have a boat sail on it",1
"5693df018d93fe000dfa5733","ihv0os95m5","Affordance Norms_Prolific",1,16,"2023-02-01T21:54:21+00:00",18.603164196014,65,"updated stim.csv","Version65.csv","Version 65","List 65","machete",NA,1930,5.791666667,1565,0.198098874,1931,"BOI","-","-","Please name all of the ways you could use this object. Keep in mind that one object can have many uses. Separate your responses with a comma.",NA,"y",18248,NA,NA,1759,17769,NA,NA,NA,"kill someone with it, snap it in half, throw it, stomp on it, cut items, hide it away",1
"5693df018d93fe000dfa5733","ihv0os95m5","Affordance Norms_Prolific",1,17,"2023-02-01T21:54:51+00:00",29.950951814651,65,"updated stim.csv","Version65.csv","Version 65","List 65","wood",NA,1946,5.590909091,2956,0.526528339,1947,"BOI","-","-","Please name all of the ways you could use this object. Keep in mind that one object can have many uses. Separate your responses with a comma.",NA,"y",29369,NA,NA,1217,28127,NA,NA,NA,"chop it, make it into items like desks, preserve it, burn it, throw it, stomp on it, shoot it",1
"5693df018d93fe000dfa5733","ihv0os95m5","Affordance Norms_Prolific",1,18,"2023-02-01T21:55:07+00:00",16.586454153061,65,"updated stim.csv","Version65.csv","Version 65","List 65","hall",NA,1950,4.346153846,1219,0.79267533,1951,"BOI","-","-","Please name all of the ways you could use this object. Keep in mind that one object can have many uses. Separate your responses with a comma.",NA,"y",16222,NA,NA,2268,15023,NA,NA,NA,"walk in it, run in it, jog in it, do exercise in it, stomp in it, jump in it",1
"5693df018d93fe000dfa5733","ihv0os95m5","Affordance Norms_Prolific",1,19,"2023-02-01T21:55:17+00:00",9.2937169075012,65,"updated stim.csv","Version65.csv","Version 65","List 65","windshield",NA,1945,5.708333333,2945,0.584714095,1946,"BOI","-","-","Please name all of the ways you could use this object. Keep in mind that one object can have many uses. Separate your responses with a comma.",NA,"y",8931,NA,NA,5296,7842,NA,NA,NA,"make it go left and right",1
"5693df018d93fe000dfa5733","ihv0os95m5","Affordance Norms_Prolific",1,20,"2023-02-01T21:55:28+00:00",11.513930082321,65,"updated stim.csv","Version65.csv","Version 65","List 65","tag",NA,1937,4.72,2623,0.400888747,1938,"BOI","-","-","Please name all of the ways you could use this object. Keep in mind that one object can have many uses. Separate your responses with a comma.",NA,"y",11159,NA,NA,3062,9234,NA,NA,NA,"put it on something, snap it in half, lose it",1
"5693df018d93fe000dfa5733","ihv0os95m5","Affordance Norms_Prolific",1,21,"2023-02-01T21:55:37+00:00",9.2349970340729,65,"updated stim.csv","Version65.csv","Version 65","List 65","holding",NA,1941,4.428571429,1297,0.75355436,1942,"BOI","-","-","Please name all of the ways you could use this object. Keep in mind that one object can have many uses. Separate your responses with a comma.",NA,"y",8883,NA,NA,2005,8204,NA,NA,NA,"hold onto it, break it",1
"5693df018d93fe000dfa5733","ihv0os95m5","Affordance Norms_Prolific",1,22,"2023-02-01T21:55:49+00:00",12.08361697197,65,"updated stim.csv","Version65.csv","Version 65","List 65","barrel",NA,1933,5.304347826,153,0.49886335,1934,"BOI","-","-","Please name all of the ways you could use this object. Keep in mind that one object can have many uses. Separate your responses with a comma.",NA,"y",11717,NA,NA,1622,11272,NA,NA,NA,"roll in, snap it in half, crush it, open it, store it somewhere",1
"5693df018d93fe000dfa5733","ihv0os95m5","Affordance Norms_Prolific",1,23,"2023-02-01T21:56:31+00:00",41.22301697731,65,"updated stim.csv","Version65.csv","Version 65","List 65","scarf",NA,1940,6.434782609,2268,0.420756978,1941,"BOI","-","-","Please name all of the ways you could use this object. Keep in mind that one object can have many uses. Separate your responses with a comma.",NA,"y",40645,NA,NA,1298,38449,NA,NA,NA,"put it around your head, hang it up, sell it, wash it, dry it, put it on as an accessory around your chest, burn it, rip it, tear it apart, put it in water",1
"5693df018d93fe000dfa5733","ihv0os95m5","Affordance Norms_Prolific",1,24,"2023-02-01T21:56:47+00:00",16.226010084152,65,"updated stim.csv","Version65.csv","Version 65","List 65","lollipop",NA,1925,6.48,1545,0.523001154,1926,"BOI","-","-","Please name all of the ways you could use this object. Keep in mind that one object can have many uses. Separate your responses with a comma.",NA,"y",15853,NA,NA,1157,14240,NA,NA,NA,"suck on it, chew it, throw it in the bin, throw it at the wall, stomp on it",1
"5693df018d93fe000dfa5733","ihv0os95m5","Affordance Norms_Prolific",1,25,"2023-02-01T21:57:12+00:00",25.034780979156,65,"updated stim.csv","Version65.csv","Version 65","List 65","tweezer",NA,1926,5.272727273,2810,0.766244776,1927,"BOI","-","-","Please name all of the ways you could use this object. Keep in mind that one object can have many uses. Separate your responses with a comma.",NA,"y",24456,NA,NA,2893,22139,NA,NA,NA,"pluck out hair, pluck out blackheads, throw it away, dismantle it, burn it, shoot it,",1
"5693df018d93fe000dfa5733","ihv0os95m5","Affordance Norms_Prolific",1,26,"2023-02-01T21:57:25+00:00",12.713600873947,65,"updated stim.csv","Version65.csv","Version 65","List 65","sex",NA,1939,5.16,2316,0.788611907,1940,"BOI","-","-","Please name all of the ways you could use this object. Keep in mind that one object can have many uses. Separate your responses with a comma.",NA,"y",12372,NA,NA,6047,10575,NA,NA,NA,"to have intimacy",1
"5693df018d93fe000dfa5733","ihv0os95m5","Affordance Norms_Prolific",1,27,"2023-02-01T21:57:35+00:00",10.192690134048,65,"updated stim.csv","Version65.csv","Version 65","List 65","tractor",NA,1935,5.590909091,2753,0.880841086,1936,"BOI","-","-","Please name all of the ways you could use this object. Keep in mind that one object can have many uses. Separate your responses with a comma.",NA,"y",9221,NA,NA,4242,6931,NA,NA,NA,"as a vehicle",1
"5693df018d93fe000dfa5733","ihv0os95m5","Affordance Norms_Prolific",1,28,"2023-02-01T21:57:40+00:00",4.9212408065796,65,"updated stim.csv","Version65.csv","Version 65","List 65","pupil",NA,1938,4.8,2102,0.944100244,1939,"BOI","-","-","Please name all of the ways you could use this object. Keep in mind that one object can have many uses. Separate your responses with a comma.",NA,"y",4407,NA,NA,1531,2551,NA,NA,NA,"learning",1
"5693df018d93fe000dfa5733","ihv0os95m5","Affordance Norms_Prolific",1,29,"2023-02-01T21:57:48+00:00",8.0162551403046,65,"updated stim.csv","Version65.csv","Version 65","List 65","toaster",NA,1929,6.04,2710,0.130654908,1930,"BOI","-","-","Please name all of the ways you could use this object. Keep in mind that one object can have many uses. Separate your responses with a comma.",NA,"y",7667,NA,NA,1277,3256,NA,NA,NA,"making toast",1
"5693df018d93fe000dfa5733","ihv0os95m5","Affordance Norms_Prolific",1,30,"2023-02-01T21:58:03+00:00",14.743777990341,65,"updated stim.csv","Version65.csv","Version 65","List 65","stroller",NA,1942,6.5,2570,0.532036853,1943,"BOI","-","-","Please name all of the ways you could use this object. Keep in mind that one object can have many uses. Separate your responses with a comma.",NA,"y",14335,NA,NA,2189,13513,NA,NA,NA,"with a baby inside, with groceries inside where the baby is meant to go",1
"5693df018d93fe000dfa5733","ihv0os95m5","Affordance Norms_Prolific",1,31,"2023-02-01T21:58:16+00:00",13.778589010239,65,"updated stim.csv","Version65.csv","Version 65","List 65","cardigan",NA,1947,6.130434783,432,0.798376463,1948,"BOI","-","-","Please name all of the ways you could use this object. Keep in mind that one object can have many uses. Separate your responses with a comma.",NA,"y",13425,NA,NA,1098,12645,NA,NA,NA,"wearing it, throwing it away, burning it, binning it, giving it to charity",1
"5693df018d93fe000dfa5733","ihv0os95m5","Affordance Norms_Prolific",1,32,"2023-02-01T21:58:22+00:00",5.4111158847809,65,"updated stim.csv","Version65.csv","Version 65","List 65","canoe",NA,1923,5.818181818,417,0.726793628,1924,"BOI","-","-","Please name all of the ways you could use this object. Keep in mind that one object can have many uses. Separate your responses with a comma.",NA,"y",5057,NA,NA,1782,2913,NA,NA,NA,"canoeing ",1
"5693df018d93fe000dfa5733","ihv0os95m5","Affordance Norms_Prolific",1,33,"2023-02-01T21:58:30+00:00",8.5277609825134,65,"updated stim.csv","Version65.csv","Version 65","List 65","scribbling",NA,1934,4.814814815,2288,0.993607388,1935,"BOI","-","-","Please name all of the ways you could use this object. Keep in mind that one object can have many uses. Separate your responses with a comma.",NA,"y",8177,NA,NA,5553,6814,NA,NA,NA,"drawing",0.871
"5693df018d93fe000dfa5733","ihv0os95m5","Affordance Norms_Prolific",1,34,"2023-02-01T21:58:39+00:00",9.2541060447693,65,"updated stim.csv","Version65.csv","Version 65","List 65","cob",NA,1949,4.636363636,582,0.371725658,1950,"BOI","-","-","Please name all of the ways you could use this object. Keep in mind that one object can have many uses. Separate your responses with a comma.",NA,"y",8899,NA,NA,1213,7640,NA,NA,NA,"eating it, roasting it",1
"5693df018d93fe000dfa5733","ihv0os95m5","Affordance Norms_Prolific",1,35,"2023-02-01T21:58:43+00:00",3.8495650291443,65,"updated stim.csv","Version65.csv","Version 65","List 65","wheel",NA,1927,5.458333333,2921,0.954848444,1928,"BOI","-","-","Please name all of the ways you could use this object. Keep in mind that one object can have many uses. Separate your responses with a comma.",NA,"y",3481,NA,NA,1576,2207,NA,NA,NA,"driving",1
"5693df018d93fe000dfa5733","ihv0os95m5","Affordance Norms_Prolific",1,36,"2023-02-01T21:58:46+00:00",2.8078079223633,65,"updated stim.csv","Version65.csv","Version 65","List 65","stirrup",NA,1944,4.958333333,2538,0.709877255,1945,"BOI","-","-","Please name all of the ways you could use this object. Keep in mind that one object can have many uses. Separate your responses with a comma.",NA,"y",2451,NA,NA,-1,-1,NA,NA,NA,"",1
"5693df018d93fe000dfa5733","ihv0os95m5","Affordance Norms_Prolific",1,37,"2023-02-01T21:58:54+00:00",7.5236160755157,65,"updated stim.csv","Version65.csv","Version 65","List 65","Swan",NA,1932,NA,3004,0.764397231,1933,"BOI","-","-","Please name all of the ways you could use this object. Keep in mind that one object can have many uses. Separate your responses with a comma.",NA,"y",7176,NA,NA,4113,6340,NA,NA,NA,"keeping it as a pet",1
"5693df018d93fe000dfa5733","ihv0os95m5","Affordance Norms_Prolific",1,38,"2023-02-01T21:59:03+00:00",9.3655989170074,65,"updated stim.csv","Version65.csv","Version 65","List 65","kidney",NA,1936,4.68,1415,0.23946005,1937,"BOI","-","-","Please name all of the ways you could use this object. Keep in mind that one object can have many uses. Separate your responses with a comma.",NA,"y",8868,NA,NA,1399,6701,NA,NA,NA,"donating it, preserving it, taking care of it",1
"5693df018d93fe000dfa5733","ihv0os95m5","Affordance Norms_Prolific",1,39,"2023-02-01T21:59:12+00:00",9.4165360927582,65,"updated stim.csv","Version65.csv","Version 65","List 65","ladybug",NA,1948,4.875,1450,0.037104651,1949,"BOI","-","-","Please name all of the ways you could use this object. Keep in mind that one object can have many uses. Separate your responses with a comma.",NA,"y",9068,NA,NA,1625,8035,NA,NA,NA,"preserving it, letting it go into the wild, feeding it",1
"5693df018d93fe000dfa5733","ihv0os95m5","Affordance Norms_Prolific",1,40,"2023-02-01T21:59:19+00:00",6.3295109272003,65,"updated stim.csv","Version65.csv","Version 65","List 65","chalk",NA,1931,5.92,491,0.617558901,1932,"BOI","-","-","Please name all of the ways you could use this object. Keep in mind that one object can have many uses. Separate your responses with a comma.",NA,"y",5975,NA,NA,1813,5274,NA,NA,NA,"writing on the board",1
"5875778b5c17910001ea4f35","8bl07ipy9t","Affordance Norms_Prolific",1,11,"2023-02-04T21:52:38+00:00",34.932002067566,69,"updated stim.csv","Version69.csv","Version 69","List 69","farmhouse",NA,2055,5.068965517,949,0.607320841,2056,"BOI","-","-","Please name all of the ways you could use this object. Keep in mind that one object can have many uses. Separate your responses with a comma.",NA,"y",34124,NA,NA,4614,33135,NA,NA,NA,"live, work, protect, dry, house, meet",1
"5875778b5c17910001ea4f35","8bl07ipy9t","Affordance Norms_Prolific",1,12,"2023-02-04T21:52:55+00:00",17.373990058899,69,"updated stim.csv","Version69.csv","Version 69","List 69","firecracker",NA,2047,4.916666667,985,0.557520939,2048,"BOI","-","-","Please name all of the ways you could use this object. Keep in mind that one object can have many uses. Separate your responses with a comma.",NA,"y",16915,NA,NA,4012,16070,NA,NA,NA,"impress, scare, celebrate, enjoy",1
"5875778b5c17910001ea4f35","8bl07ipy9t","Affordance Norms_Prolific",1,13,"2023-02-04T21:54:02+00:00",66.027860879898,69,"updated stim.csv","Version69.csv","Version 69","List 69","armoire",NA,2041,4.904761905,73,0.052185151,2042,"BOI","-","-","Please name all of the ways you could use this object. Keep in mind that one object can have many uses. Separate your responses with a comma.",NA,"y",65193,NA,NA,16925,28448,NA,NA,NA,"keep, store, protect, ",0.965
"5875778b5c17910001ea4f35","8bl07ipy9t","Affordance Norms_Prolific",1,14,"2023-02-04T21:54:44+00:00",42.638336181641,69,"updated stim.csv","Version69.csv","Version 69","List 69","sponge",NA,2069,6.5,2480,0.696963991,2070,"BOI","-","-","Please name all of the ways you could use this object. Keep in mind that one object can have many uses. Separate your responses with a comma.",NA,"y",41789,NA,NA,1949,19117,NA,NA,NA,"soak, wash, eat, clean, wipe, ",1
"5875778b5c17910001ea4f35","8bl07ipy9t","Affordance Norms_Prolific",1,15,"2023-02-04T21:55:38+00:00",54.340147972107,69,"updated stim.csv","Version69.csv","Version 69","List 69","nightie",NA,2042,5.62962963,1771,0.901097667,2043,"BOI","-","-","Please name all of the ways you could use this object. Keep in mind that one object can have many uses. Separate your responses with a comma.",NA,"y",53560,NA,NA,4011,52742,NA,NA,NA,"wear, wash",1
"5875778b5c17910001ea4f35","8bl07ipy9t","Affordance Norms_Prolific",1,16,"2023-02-04T21:55:49+00:00",10.863711833954,69,"updated stim.csv","Version69.csv","Version 69","List 69","thimble",NA,2048,5.347826087,2681,0.809801416,2049,"BOI","-","-","Please name all of the ways you could use this object. Keep in mind that one object can have many uses. Separate your responses with a comma.",NA,"y",10377,NA,NA,1937,8054,NA,NA,NA,"sew, protect, play, ",1
"5875778b5c17910001ea4f35","8bl07ipy9t","Affordance Norms_Prolific",1,17,"2023-02-04T21:56:09+00:00",19.243746042252,69,"updated stim.csv","Version69.csv","Version 69","List 69","crop",NA,2050,4.833333333,700,0.508408081,2051,"BOI","-","-","Please name all of the ways you could use this object. Keep in mind that one object can have many uses. Separate your responses with a comma.",NA,"y",18711,NA,NA,4508,16789,NA,NA,NA,"ride, whip, harvest, eat, share",1
"5875778b5c17910001ea4f35","8bl07ipy9t","Affordance Norms_Prolific",1,18,"2023-02-04T21:57:06+00:00",57.349882125854,69,"updated stim.csv","Version69.csv","Version 69","List 69","phone",NA,2046,6.5,1940,0.865824601,2047,"BOI","-","-","Please name all of the ways you could use this object. Keep in mind that one object can have many uses. Separate your responses with a comma.",NA,"y",56479,NA,NA,34476,54717,NA,NA,NA,"speak, play, browse, text, message, listen, watch, type",1
"5875778b5c17910001ea4f35","8bl07ipy9t","Affordance Norms_Prolific",1,19,"2023-02-04T21:57:38+00:00",32.014564990997,69,"updated stim.csv","Version69.csv","Version 69","List 69","radiator",NA,2054,5.217391304,2121,0.849996905,2055,"BOI","-","-","Please name all of the ways you could use this object. Keep in mind that one object can have many uses. Separate your responses with a comma.",NA,"y",31005,NA,NA,3489,29946,NA,NA,NA,"warm, dry, run",1
"5875778b5c17910001ea4f35","8bl07ipy9t","Affordance Norms_Prolific",1,20,"2023-02-04T21:57:55+00:00",16.6276948452,69,"updated stim.csv","Version69.csv","Version 69","List 69","lily",NA,2052,4.884615385,1510,0.933135702,2053,"BOI","-","-","Please name all of the ways you could use this object. Keep in mind that one object can have many uses. Separate your responses with a comma.",NA,"y",15954,NA,NA,5099,14430,NA,NA,NA,"brighten, cheer, gift, ",1
"5875778b5c17910001ea4f35","8bl07ipy9t","Affordance Norms_Prolific",1,21,"2023-02-04T21:58:48+00:00",52.996327161789,69,"updated stim.csv","Version69.csv","Version 69","List 69","battery",NA,2061,4.8,172,0.309515417,2062,"BOI","-","-","Please name all of the ways you could use this object. Keep in mind that one object can have many uses. Separate your responses with a comma.",NA,"y",52163,NA,NA,2068,51069,NA,NA,NA,"charge, run, discharge, power",1
"5875778b5c17910001ea4f35","8bl07ipy9t","Affordance Norms_Prolific",1,22,"2023-02-04T21:59:14+00:00",26.740349054337,69,"updated stim.csv","Version69.csv","Version 69","List 69","medicine",NA,2063,5.692307692,1638,0.021183078,2064,"BOI","-","-","Please name all of the ways you could use this object. Keep in mind that one object can have many uses. Separate your responses with a comma.",NA,"y",25779,NA,NA,5580,24556,NA,NA,NA,"help, improve, protect,",1
"5875778b5c17910001ea4f35","8bl07ipy9t","Affordance Norms_Prolific",1,23,"2023-02-04T21:59:39+00:00",24.27546787262,69,"updated stim.csv","Version69.csv","Version 69","List 69","cloth",NA,2070,5.961538462,568,0.069972611,2071,"BOI","-","-","Please name all of the ways you could use this object. Keep in mind that one object can have many uses. Separate your responses with a comma.",NA,"y",23479,NA,NA,1937,18620,NA,NA,NA,"dry, clean, wash, wipe, freshen, ",1
"5875778b5c17910001ea4f35","8bl07ipy9t","Affordance Norms_Prolific",1,24,"2023-02-04T22:00:24+00:00",45.751662969589,69,"updated stim.csv","Version69.csv","Version 69","List 69","mascara",NA,2057,5.703703704,1612,0.241914287,2058,"BOI","-","-","Please name all of the ways you could use this object. Keep in mind that one object can have many uses. Separate your responses with a comma.",NA,"y",44988,NA,NA,2455,43431,NA,NA,NA,"hide, improve, conceal",1
"5875778b5c17910001ea4f35","8bl07ipy9t","Affordance Norms_Prolific",1,25,"2023-02-04T22:00:46+00:00",21.232409954071,69,"updated stim.csv","Version69.csv","Version 69","List 69","foot",NA,2060,6,1029,0.672429638,2061,"BOI","-","-","Please name all of the ways you could use this object. Keep in mind that one object can have many uses. Separate your responses with a comma.",NA,"y",20507,NA,NA,2143,19233,NA,NA,NA,"run, hop, kick, sprint, jump,",1
"5875778b5c17910001ea4f35","8bl07ipy9t","Affordance Norms_Prolific",1,26,"2023-02-04T22:01:03+00:00",17.401640176773,69,"updated stim.csv","Version69.csv","Version 69","List 69","neckerchief",NA,2051,5.347826087,1740,0.029417573,2052,"BOI","-","-","Please name all of the ways you could use this object. Keep in mind that one object can have many uses. Separate your responses with a comma.",NA,"y",16933,NA,NA,2277,16083,NA,NA,NA,"wear, warm, improve",1
"5875778b5c17910001ea4f35","8bl07ipy9t","Affordance Norms_Prolific",1,27,"2023-02-04T22:01:31+00:00",27.583029031754,69,"updated stim.csv","Version69.csv","Version 69","List 69","home",NA,2058,5.434782609,1299,0.801909438,2059,"BOI","-","-","Please name all of the ways you could use this object. Keep in mind that one object can have many uses. Separate your responses with a comma.",NA,"y",26730,NA,NA,10416,25870,NA,NA,NA,"live, eat, house, warm, share,",1
"5875778b5c17910001ea4f35","8bl07ipy9t","Affordance Norms_Prolific",1,28,"2023-02-04T22:03:22+00:00",111.14802384377,69,"updated stim.csv","Version69.csv","Version 69","List 69","moonshine",NA,2064,5.260869565,1682,0.261203355,2065,"BOI","-","-","Please name all of the ways you could use this object. Keep in mind that one object can have many uses. Separate your responses with a comma.",NA,"y",110264,NA,NA,94518,108294,NA,NA,NA,"drink, enjoy, walk, stare, light",1
"5875778b5c17910001ea4f35","8bl07ipy9t","Affordance Norms_Prolific",1,29,"2023-02-04T22:03:43+00:00",21.139583110809,69,"updated stim.csv","Version69.csv","Version 69","List 69","bunk",NA,2066,4.260869565,360,0.933970977,2067,"BOI","-","-","Please name all of the ways you could use this object. Keep in mind that one object can have many uses. Separate your responses with a comma.",NA,"y",20325,NA,NA,8403,17814,NA,NA,NA,"lift, sleep, miss, rest",1
"5875778b5c17910001ea4f35","8bl07ipy9t","Affordance Norms_Prolific",1,30,"2023-02-04T22:04:57+00:00",73.739656925201,69,"updated stim.csv","Version69.csv","Version 69","List 69","medallion",NA,2059,5.541666667,1635,0.593281575,2060,"BOI","-","-","Please name all of the ways you could use this object. Keep in mind that one object can have many uses. Separate your responses with a comma.",NA,"y",72942,NA,NA,4079,66677,NA,NA,NA,"gift, wear",0.745
"5875778b5c17910001ea4f35","8bl07ipy9t","Affordance Norms_Prolific",1,31,"2023-02-04T22:05:21+00:00",24.328133106232,69,"updated stim.csv","Version69.csv","Version 69","List 69","rubbish",NA,2049,4.666666667,2201,0.65494414,2050,"BOI","-","-","Please name all of the ways you could use this object. Keep in mind that one object can have many uses. Separate your responses with a comma.",NA,"y",23593,NA,NA,1971,23002,NA,NA,NA,"throw, recycle, hide",1
"5875778b5c17910001ea4f35","8bl07ipy9t","Affordance Norms_Prolific",1,32,"2023-02-04T22:05:36+00:00",15.379812955856,69,"updated stim.csv","Version69.csv","Version 69","List 69","masseur",NA,2068,5.6,1615,0.872292757,2069,"BOI","-","-","Please name all of the ways you could use this object. Keep in mind that one object can have many uses. Separate your responses with a comma.",NA,"y",14912,NA,NA,2752,13936,NA,NA,NA,"massage, relax, enjoy, pay",1
"5875778b5c17910001ea4f35","8bl07ipy9t","Affordance Norms_Prolific",1,33,"2023-02-04T22:06:04+00:00",28.053702831268,69,"updated stim.csv","Version69.csv","Version 69","List 69","cape",NA,2053,5.416666667,424,0.375751754,2054,"BOI","-","-","Please name all of the ways you could use this object. Keep in mind that one object can have many uses. Separate your responses with a comma.",NA,"y",27358,NA,NA,9646,25572,NA,NA,NA,"wrap, hide",1
"5875778b5c17910001ea4f35","8bl07ipy9t","Affordance Norms_Prolific",1,34,"2023-02-04T22:06:25+00:00",20.290279150009,69,"updated stim.csv","Version69.csv","Version 69","List 69","candidate",NA,2056,4.739130435,409,0.163378695,2057,"BOI","-","-","Please name all of the ways you could use this object. Keep in mind that one object can have many uses. Separate your responses with a comma.",NA,"y",19541,NA,NA,4701,11882,NA,NA,NA,"elect, decided, choose, ",1
"5875778b5c17910001ea4f35","8bl07ipy9t","Affordance Norms_Prolific",1,35,"2023-02-04T22:06:49+00:00",24.449940919876,69,"updated stim.csv","Version69.csv","Version 69","List 69","cheekbone",NA,2045,4.88,504,0.553378119,2046,"BOI","-","-","Please name all of the ways you could use this object. Keep in mind that one object can have many uses. Separate your responses with a comma.",NA,"y",23774,NA,NA,18413,22848,NA,NA,NA,"rub, smile",1
"5875778b5c17910001ea4f35","8bl07ipy9t","Affordance Norms_Prolific",1,36,"2023-02-04T22:07:16+00:00",26.426305055618,69,"updated stim.csv","Version69.csv","Version 69","List 69","kite",NA,2044,5.8,1427,0.898180033,2045,"BOI","-","-","Please name all of the ways you could use this object. Keep in mind that one object can have many uses. Separate your responses with a comma.",NA,"y",25472,NA,NA,1715,5974,NA,NA,NA,"fly, run, ",1
"5875778b5c17910001ea4f35","8bl07ipy9t","Affordance Norms_Prolific",1,37,"2023-02-04T22:07:30+00:00",14.502069950104,69,"updated stim.csv","Version69.csv","Version 69","List 69","bleach",NA,2065,5.32,234,0.58088773,2066,"BOI","-","-","Please name all of the ways you could use this object. Keep in mind that one object can have many uses. Separate your responses with a comma.",NA,"y",13982,NA,NA,1625,13091,NA,NA,NA,"clean, wipe, disinfect, poison",1
"5875778b5c17910001ea4f35","8bl07ipy9t","Affordance Norms_Prolific",1,38,"2023-02-04T22:08:33+00:00",62.653732061386,69,"updated stim.csv","Version69.csv","Version 69","List 69","cuff",NA,2067,5.333333333,724,0.92115639,2068,"BOI","-","-","Please name all of the ways you could use this object. Keep in mind that one object can have many uses. Separate your responses with a comma.",NA,"y",61864,NA,NA,1968,3464,NA,NA,NA,"hit, ",1
"5875778b5c17910001ea4f35","8bl07ipy9t","Affordance Norms_Prolific",1,39,"2023-02-04T22:09:00+00:00",27.371495008469,69,"updated stim.csv","Version69.csv","Version 69","List 69","snack",NA,2043,6.142857143,2425,0.564086134,2044,"BOI","-","-","Please name all of the ways you could use this object. Keep in mind that one object can have many uses. Separate your responses with a comma.",NA,"y",26616,NA,NA,1737,25678,NA,NA,NA,"eat, share, nibble, fill",1
"5875778b5c17910001ea4f35","8bl07ipy9t","Affordance Norms_Prolific",1,40,"2023-02-04T22:09:13+00:00",12.778925895691,69,"updated stim.csv","Version69.csv","Version 69","List 69","brace",NA,2062,5.04,299,0.200654341,2063,"BOI","-","-","Please name all of the ways you could use this object. Keep in mind that one object can have many uses. Separate your responses with a comma.",NA,"y",12339,NA,NA,2376,11222,NA,NA,NA,"ready, wear, ping",1
"59142b45ef024b0001c54c33","v2uj23r116","Affordance Norms_Prolific",1,11,"2023-02-01T21:54:18+00:00",33.855813026428,67,"updated stim.csv","Version67.csv","Version 67","List 67","footwear",NA,2005,6.434782609,1040,0.292834956,2006,"BOI","-","-","Please name all of the ways you could use this object. Keep in mind that one object can have many uses. Separate your responses with a comma.",NA,"y",33026,NA,NA,2375,27930,NA,NA,NA,"wear, warm, walk, run, skip, hop, jump, ",1
"59142b45ef024b0001c54c33","v2uj23r116","Affordance Norms_Prolific",1,12,"2023-02-01T21:54:55+00:00",37.296674966812,67,"updated stim.csv","Version67.csv","Version 67","List 67","shoulder",NA,1998,5.869565217,2362,0.605582564,1999,"BOI","-","-","Please name all of the ways you could use this object. Keep in mind that one object can have many uses. Separate your responses with a comma.",NA,"y",36535,NA,NA,7681,32724,NA,NA,NA,"roll, barge, lift, ",1
"59142b45ef024b0001c54c33","v2uj23r116","Affordance Norms_Prolific",1,13,"2023-02-01T21:55:14+00:00",18.367691040039,67,"updated stim.csv","Version67.csv","Version 67","List 67","grater",NA,2006,4.92,1162,0.650765044,2007,"BOI","-","-","Please name all of the ways you could use this object. Keep in mind that one object can have many uses. Separate your responses with a comma.",NA,"y",17614,NA,NA,4424,13855,NA,NA,NA,"slicing, reducing, cooking, baking",1
"59142b45ef024b0001c54c33","v2uj23r116","Affordance Norms_Prolific",1,14,"2023-02-01T21:55:46+00:00",31.818002939224,67,"updated stim.csv","Version67.csv","Version 67","List 67","doorstop",NA,1996,5.260869565,829,0.705561413,1997,"BOI","-","-","Please name all of the ways you could use this object. Keep in mind that one object can have many uses. Separate your responses with a comma.",NA,"y",31137,NA,NA,3731,30336,NA,NA,NA,"open, safety, secure, stopping",1
"59142b45ef024b0001c54c33","v2uj23r116","Affordance Norms_Prolific",1,15,"2023-02-01T21:56:21+00:00",35.352399110794,67,"updated stim.csv","Version67.csv","Version 67","List 67","cauldron",NA,1982,4.8,465,0.297205256,1983,"BOI","-","-","Please name all of the ways you could use this object. Keep in mind that one object can have many uses. Separate your responses with a comma.",NA,"y",34476,NA,NA,1808,8826,NA,NA,NA,"cooking, brewing, warming, ",1
"59142b45ef024b0001c54c33","v2uj23r116","Affordance Norms_Prolific",1,16,"2023-02-01T21:56:59+00:00",37.551415920258,67,"updated stim.csv","Version67.csv","Version 67","List 67","tartar",NA,1999,4.48,2636,0.549182873,2000,"BOI","-","-","Please name all of the ways you could use this object. Keep in mind that one object can have many uses. Separate your responses with a comma.",NA,"y",36805,NA,NA,17017,35618,NA,NA,NA,"teeth, coating, sauce, damaging",0.847
"59142b45ef024b0001c54c33","v2uj23r116","Affordance Norms_Prolific",1,17,"2023-02-01T21:58:06+00:00",67.829519987106,67,"updated stim.csv","Version67.csv","Version 67","List 67","medics",NA,2008,4.28,1639,0.433953081,2009,"BOI","-","-","Please name all of the ways you could use this object. Keep in mind that one object can have many uses. Separate your responses with a comma.",NA,"y",67148,NA,NA,2784,64623,NA,NA,NA,"helping, protection, rescue, save",1
"59142b45ef024b0001c54c33","v2uj23r116","Affordance Norms_Prolific",1,18,"2023-02-01T21:58:38+00:00",31.600476980209,67,"updated stim.csv","Version67.csv","Version 67","List 67","leg",NA,1981,5.875,1486,0.661471965,1982,"BOI","-","-","Please name all of the ways you could use this object. Keep in mind that one object can have many uses. Separate your responses with a comma.",NA,"y",30912,NA,NA,2386,29555,NA,NA,NA,"run, walk, hop, skip, jump, kick, swing, cycle",1
"59142b45ef024b0001c54c33","v2uj23r116","Affordance Norms_Prolific",1,19,"2023-02-01T21:58:57+00:00",18.596369981766,67,"updated stim.csv","Version67.csv","Version 67","List 67","suds",NA,1986,4.652173913,2578,0.179184754,1987,"BOI","-","-","Please name all of the ways you could use this object. Keep in mind that one object can have many uses. Separate your responses with a comma.",NA,"y",17895,NA,NA,2767,16758,NA,NA,NA,"clean, wash, soaping, brighten, ",1
"59142b45ef024b0001c54c33","v2uj23r116","Affordance Norms_Prolific",1,20,"2023-02-01T21:59:19+00:00",22.893616914749,67,"updated stim.csv","Version67.csv","Version 67","List 67","peg",NA,1995,4.391304348,1908,0.186482345,1996,"BOI","-","-","Please name all of the ways you could use this object. Keep in mind that one object can have many uses. Separate your responses with a comma.",NA,"y",22150,NA,NA,3194,15638,NA,NA,NA,"fresh, hold, dry, ",1
"59142b45ef024b0001c54c33","v2uj23r116","Affordance Norms_Prolific",1,21,"2023-02-01T21:59:52+00:00",32.982074022293,67,"updated stim.csv","Version67.csv","Version 67","List 67","skeleton",NA,2007,4.347826087,2392,0.772068064,2008,"BOI","-","-","Please name all of the ways you could use this object. Keep in mind that one object can have many uses. Separate your responses with a comma.",NA,"y",32271,NA,NA,11464,31382,NA,NA,NA,"protection, body parts, scare, educate, learn",1
"59142b45ef024b0001c54c33","v2uj23r116","Affordance Norms_Prolific",1,22,"2023-02-01T22:00:21+00:00",28.866539001465,67,"updated stim.csv","Version67.csv","Version 67","List 67","road",NA,1987,5.896551724,2176,0.214610967,1988,"BOI","-","-","Please name all of the ways you could use this object. Keep in mind that one object can have many uses. Separate your responses with a comma.",NA,"y",28153,NA,NA,2019,19823,NA,NA,NA,"travel, drive, walk, quicken",1
"59142b45ef024b0001c54c33","v2uj23r116","Affordance Norms_Prolific",1,23,"2023-02-01T22:00:37+00:00",15.727831125259,67,"updated stim.csv","Version67.csv","Version 67","List 67","chauffeur",NA,2004,4.84,498,0.951698933,2005,"BOI","-","-","Please name all of the ways you could use this object. Keep in mind that one object can have many uses. Separate your responses with a comma.",NA,"y",15019,NA,NA,1533,13969,NA,NA,NA,"drive, help, open, comfort,",1
"59142b45ef024b0001c54c33","v2uj23r116","Affordance Norms_Prolific",1,24,"2023-02-01T22:01:06+00:00",29.242305994034,67,"updated stim.csv","Version67.csv","Version 67","List 67","volleyball",NA,2003,6.52,2873,0.85546806,2004,"BOI","-","-","Please name all of the ways you could use this object. Keep in mind that one object can have many uses. Separate your responses with a comma.",NA,"y",28565,NA,NA,3041,25500,NA,NA,NA,"throw, play, bounce, catch, roll, ",1
"59142b45ef024b0001c54c33","v2uj23r116","Affordance Norms_Prolific",1,25,"2023-02-01T22:01:34+00:00",27.909648895264,67,"updated stim.csv","Version67.csv","Version 67","List 67","spacesuit",NA,1989,4.814814815,2459,0.840285102,1990,"BOI","-","-","Please name all of the ways you could use this object. Keep in mind that one object can have many uses. Separate your responses with a comma.",NA,"y",27189,NA,NA,3211,11065,NA,NA,NA,"breathe, visit, space, ",1
"59142b45ef024b0001c54c33","v2uj23r116","Affordance Norms_Prolific",1,26,"2023-02-01T22:01:55+00:00",20.589470148087,67,"updated stim.csv","Version67.csv","Version 67","List 67","crane",NA,1985,4.695652174,681,0.806513987,1986,"BOI","-","-","Please name all of the ways you could use this object. Keep in mind that one object can have many uses. Separate your responses with a comma.",NA,"y",19889,NA,NA,2994,18683,NA,NA,NA,"lift, lower, see, build, help, fly",1
"59142b45ef024b0001c54c33","v2uj23r116","Affordance Norms_Prolific",1,27,"2023-02-01T22:02:06+00:00",11.094589948654,67,"updated stim.csv","Version67.csv","Version 67","List 67","pizza",NA,1990,6.541666667,1982,0.113019029,1991,"BOI","-","-","Please name all of the ways you could use this object. Keep in mind that one object can have many uses. Separate your responses with a comma.",NA,"y",10399,NA,NA,1596,9316,NA,NA,NA,"eat, share, cook, slice, ",1
"59142b45ef024b0001c54c33","v2uj23r116","Affordance Norms_Prolific",1,28,"2023-02-01T22:02:27+00:00",21.259370088577,67,"updated stim.csv","Version67.csv","Version 67","List 67","hairdo",NA,1983,5.08,1211,0.48706309,1984,"BOI","-","-","Please name all of the ways you could use this object. Keep in mind that one object can have many uses. Separate your responses with a comma.",NA,"y",20556,NA,NA,1635,16448,NA,NA,NA,"style, cut, trim, chop",1
"59142b45ef024b0001c54c33","v2uj23r116","Affordance Norms_Prolific",1,29,"2023-02-01T22:02:51+00:00",23.724467992783,67,"updated stim.csv","Version67.csv","Version 67","List 67","tableware",NA,1997,6.083333333,2620,0.484193956,1998,"BOI","-","-","Please name all of the ways you could use this object. Keep in mind that one object can have many uses. Separate your responses with a comma.",NA,"y",22985,NA,NA,2434,17077,NA,NA,NA,"eating, serving, sharing, ",1
"59142b45ef024b0001c54c33","v2uj23r116","Affordance Norms_Prolific",1,30,"2023-02-01T22:03:15+00:00",24.040124893188,67,"updated stim.csv","Version67.csv","Version 67","List 67","catalogue",NA,2009,5.916666667,456,0.739372902,2010,"BOI","-","-","Please name all of the ways you could use this object. Keep in mind that one object can have many uses. Separate your responses with a comma.",NA,"y",23347,NA,NA,3690,20937,NA,NA,NA,"books, records, shopping, buying, browsing",1
"59142b45ef024b0001c54c33","v2uj23r116","Affordance Norms_Prolific",1,31,"2023-02-01T22:04:51+00:00",96.346101045609,67,"updated stim.csv","Version67.csv","Version 67","List 67","nightclub",NA,1988,4.409090909,1768,0.999144795,1989,"BOI","-","-","Please name all of the ways you could use this object. Keep in mind that one object can have many uses. Separate your responses with a comma.",NA,"y",95560,NA,NA,78276,89529,NA,NA,NA,"dancing, drinking, partying, celebrating, ",0.205
"59142b45ef024b0001c54c33","v2uj23r116","Affordance Norms_Prolific",1,32,"2023-02-01T22:05:12+00:00",20.451323032379,67,"updated stim.csv","Version67.csv","Version 67","List 67","street",NA,1992,4.708333333,2563,0.740081383,1993,"BOI","-","-","Please name all of the ways you could use this object. Keep in mind that one object can have many uses. Separate your responses with a comma.",NA,"y",19704,NA,NA,2466,18656,NA,NA,NA,"driving, living, sleeping, visiting",1
"59142b45ef024b0001c54c33","v2uj23r116","Affordance Norms_Prolific",1,33,"2023-02-01T22:05:24+00:00",12.814298868179,67,"updated stim.csv","Version67.csv","Version 67","List 67","editor",NA,1993,4.5,889,0.360576131,1994,"BOI","-","-","Please name all of the ways you could use this object. Keep in mind that one object can have many uses. Separate your responses with a comma.",NA,"y",12093,NA,NA,1918,10445,NA,NA,NA,"change, writing, correcting, designing",1
"59142b45ef024b0001c54c33","v2uj23r116","Affordance Norms_Prolific",1,34,"2023-02-01T22:05:52+00:00",27.261408090591,67,"updated stim.csv","Version67.csv","Version 67","List 67","female",NA,1994,5.689655172,960,0.268985457,1995,"BOI","-","-","Please name all of the ways you could use this object. Keep in mind that one object can have many uses. Separate your responses with a comma.",NA,"y",26548,NA,NA,2908,19851,NA,NA,NA,"lover, carer, protector, ",1
"59142b45ef024b0001c54c33","v2uj23r116","Affordance Norms_Prolific",1,35,"2023-02-01T22:06:05+00:00",13.650671005249,67,"updated stim.csv","Version67.csv","Version 67","List 67","magnolia",NA,1991,5.416666667,1573,0.321448476,1992,"BOI","-","-","Please name all of the ways you could use this object. Keep in mind that one object can have many uses. Separate your responses with a comma.",NA,"y",12932,NA,NA,3001,11230,NA,NA,NA,"smelling, painting, ",1
"59142b45ef024b0001c54c33","v2uj23r116","Affordance Norms_Prolific",1,36,"2023-02-01T22:06:19+00:00",13.115975856781,67,"updated stim.csv","Version67.csv","Version 67","List 67","plexiglas",NA,1984,5.041666667,2006,0.424852806,1985,"BOI","-","-","Please name all of the ways you could use this object. Keep in mind that one object can have many uses. Separate your responses with a comma.",NA,"y",12439,NA,NA,3129,6570,NA,NA,NA,"protecting, ",1
"59142b45ef024b0001c54c33","v2uj23r116","Affordance Norms_Prolific",1,37,"2023-02-01T22:06:43+00:00",24.371438026428,67,"updated stim.csv","Version67.csv","Version 67","List 67","shopkeeper",NA,2010,4.555555556,2353,0.457303608,2011,"BOI","-","-","Please name all of the ways you could use this object. Keep in mind that one object can have many uses. Separate your responses with a comma.",NA,"y",23634,NA,NA,2685,21841,NA,NA,NA,"selling, stocking, speaking, buying, sharing, helping",1
"59142b45ef024b0001c54c33","v2uj23r116","Affordance Norms_Prolific",1,38,"2023-02-01T22:07:28+00:00",45.022907018661,67,"updated stim.csv","Version67.csv","Version 67","List 67","whiskey",NA,2000,6.08,2930,0.642694997,2001,"BOI","-","-","Please name all of the ways you could use this object. Keep in mind that one object can have many uses. Separate your responses with a comma.",NA,"y",44114,NA,NA,1739,6909,NA,NA,NA,"drinking, selling, sharing",0.321
"59142b45ef024b0001c54c33","v2uj23r116","Affordance Norms_Prolific",1,39,"2023-02-01T22:08:03+00:00",34.592977046967,67,"updated stim.csv","Version67.csv","Version 67","List 67","milk",NA,2001,5.956521739,1660,0.537528185,2002,"BOI","-","-","Please name all of the ways you could use this object. Keep in mind that one object can have many uses. Separate your responses with a comma.",NA,"y",33495,NA,NA,4013,28365,NA,NA,NA,"milkshake, bathing, drinking, cheese, ",1
"59142b45ef024b0001c54c33","v2uj23r116","Affordance Norms_Prolific",1,40,"2023-02-01T22:09:08+00:00",65.190411090851,67,"updated stim.csv","Version67.csv","Version 67","List 67","pennant",NA,2002,5.153846154,1916,0.413808656,2003,"BOI","-","-","Please name all of the ways you could use this object. Keep in mind that one object can have many uses. Separate your responses with a comma.",NA,"y",64314,NA,NA,28309,32568,NA,NA,NA,"notifying, ",0.483
"597b0c6ed573480001404b95","1itb507em7","Affordance Norms_Prolific",1,11,"2023-02-04T21:49:09+00:00",28.853749990463,68,"updated stim.csv","Version68.csv","Version 68","List 68","bellman",NA,2028,4.32,199,0.245771883,2029,"BOI","-","-","Please name all of the ways you could use this object. Keep in mind that one object can have many uses. Separate your responses with a comma.",NA,"y",28237,NA,NA,15653,27090,NA,NA,NA,"carry luggage, get tips for nearby places, chat to, socialise, network",0.915
"597b0c6ed573480001404b95","1itb507em7","Affordance Norms_Prolific",1,12,"2023-02-04T21:49:20+00:00",11.438777923584,68,"updated stim.csv","Version68.csv","Version 68","List 68","stitching",NA,2031,4.444444444,2539,0.655086265,2032,"BOI","-","-","Please name all of the ways you could use this object. Keep in mind that one object can have many uses. Separate your responses with a comma.",NA,"y",10809,NA,NA,2137,10008,NA,NA,NA,"fix clothes, sell as a service, make art",1
"597b0c6ed573480001404b95","1itb507em7","Affordance Norms_Prolific",1,13,"2023-02-04T21:49:39+00:00",19.303815126419,68,"updated stim.csv","Version68.csv","Version 68","List 68","stoneware",NA,2029,5.434782609,2546,0.497418797,2030,"BOI","-","-","Please name all of the ways you could use this object. Keep in mind that one object can have many uses. Separate your responses with a comma.",NA,"y",18681,NA,NA,2391,17693,NA,NA,NA,"use it as a weight, eat out of, use as a plant pot, sell it, hold water from a leak, use as a toy",1
"597b0c6ed573480001404b95","1itb507em7","Affordance Norms_Prolific",1,14,"2023-02-04T21:50:02+00:00",22.981612920761,68,"updated stim.csv","Version68.csv","Version 68","List 68","chisel",NA,2012,5.333333333,531,0.069548231,2013,"BOI","-","-","Please name all of the ways you could use this object. Keep in mind that one object can have many uses. Separate your responses with a comma.",NA,"y",22349,NA,NA,1612,18848,NA,NA,NA,"as a screwdriver, as a chisel, to strip paint, to take a nail out, to break something",1
"597b0c6ed573480001404b95","1itb507em7","Affordance Norms_Prolific",1,15,"2023-02-04T21:50:18+00:00",15.647359848022,68,"updated stim.csv","Version68.csv","Version 68","List 68","primates",NA,2035,4.956521739,2064,0.991264711,2036,"BOI","-","-","Please name all of the ways you could use this object. Keep in mind that one object can have many uses. Separate your responses with a comma.",NA,"y",15003,NA,NA,6007,13517,NA,NA,NA,"pet, companion, sell to a zoo",1
"597b0c6ed573480001404b95","1itb507em7","Affordance Norms_Prolific",1,16,"2023-02-04T21:50:34+00:00",15.999709129333,68,"updated stim.csv","Version68.csv","Version 68","List 68","textile",NA,2018,4.964285714,2672,0.527774819,2019,"BOI","-","-","Please name all of the ways you could use this object. Keep in mind that one object can have many uses. Separate your responses with a comma.",NA,"y",15357,NA,NA,2050,14005,NA,NA,NA,"make clothes, make costumes, make art, make homeware, sell it",1
"597b0c6ed573480001404b95","1itb507em7","Affordance Norms_Prolific",1,17,"2023-02-04T21:50:47+00:00",12.983103990555,68,"updated stim.csv","Version68.csv","Version 68","List 68","guy",NA,2032,5.84,1202,0.057966825,2033,"BOI","-","-","Please name all of the ways you could use this object. Keep in mind that one object can have many uses. Separate your responses with a comma.",NA,"y",12353,NA,NA,4326,10444,NA,NA,NA,"friend, sex, companion",1
"597b0c6ed573480001404b95","1itb507em7","Affordance Norms_Prolific",1,18,"2023-02-04T21:50:57+00:00",9.8041679859161,68,"updated stim.csv","Version68.csv","Version 68","List 68","businessman",NA,2021,5.25,370,0.089892927,2022,"BOI","-","-","Please name all of the ways you could use this object. Keep in mind that one object can have many uses. Separate your responses with a comma.",NA,"y",9211,NA,NA,1602,8153,NA,NA,NA,"network, sell business ideas",1
"597b0c6ed573480001404b95","1itb507em7","Affordance Norms_Prolific",1,19,"2023-02-04T21:51:08+00:00",11.412831068039,68,"updated stim.csv","Version68.csv","Version 68","List 68","whistle",NA,2014,4.47826087,2932,0.42180029,2015,"BOI","-","-","Please name all of the ways you could use this object. Keep in mind that one object can have many uses. Separate your responses with a comma.",NA,"y",10834,NA,NA,1521,9499,NA,NA,NA,"make a loud noise, get attention, control people, control a dog",1
"597b0c6ed573480001404b95","1itb507em7","Affordance Norms_Prolific",1,20,"2023-02-04T21:51:27+00:00",19.033181905746,68,"updated stim.csv","Version68.csv","Version 68","List 68","umbrella",NA,2019,6.4,2816,0.200181782,2020,"BOI","-","-","Please name all of the ways you could use this object. Keep in mind that one object can have many uses. Separate your responses with a comma.",NA,"y",18440,NA,NA,1858,17512,NA,NA,NA,"keep rain off, keep sun off, as a toy, as a way to reach objects out of reach",1
"597b0c6ed573480001404b95","1itb507em7","Affordance Norms_Prolific",1,21,"2023-02-04T21:51:36+00:00",9.0489399433136,68,"updated stim.csv","Version68.csv","Version 68","List 68","toothbrush",NA,2039,6.72,2732,0.483988167,2040,"BOI","-","-","Please name all of the ways you could use this object. Keep in mind that one object can have many uses. Separate your responses with a comma.",NA,"y",8466,NA,NA,1169,7373,NA,NA,NA,"clean teeth, clean anything, scrub things, sell it",1
"597b0c6ed573480001404b95","1itb507em7","Affordance Norms_Prolific",1,22,"2023-02-04T21:51:46+00:00",9.5128581523895,68,"updated stim.csv","Version68.csv","Version 68","List 68","violinist",NA,2034,4.47826087,2866,0.784228985,2035,"BOI","-","-","Please name all of the ways you could use this object. Keep in mind that one object can have many uses. Separate your responses with a comma.",NA,"y",8934,NA,NA,2002,7109,NA,NA,NA,"play music, sell music, record music",1
"597b0c6ed573480001404b95","1itb507em7","Affordance Norms_Prolific",1,23,"2023-02-04T21:51:59+00:00",13.638530015945,68,"updated stim.csv","Version68.csv","Version 68","List 68","dorm",NA,2036,4.32,830,0.263180029,2037,"BOI","-","-","Please name all of the ways you could use this object. Keep in mind that one object can have many uses. Separate your responses with a comma.",NA,"y",13046,NA,NA,1687,11984,NA,NA,NA,"sell beds, sleep in, take beds out and use for literally any purpose",1
"597b0c6ed573480001404b95","1itb507em7","Affordance Norms_Prolific",1,24,"2023-02-04T21:52:15+00:00",15.170014858246,68,"updated stim.csv","Version68.csv","Version 68","List 68","chickenfeed",NA,2024,4.72,518,0.040830639,2025,"BOI","-","-","Please name all of the ways you could use this object. Keep in mind that one object can have many uses. Separate your responses with a comma.",NA,"y",14585,NA,NA,1200,13586,NA,NA,NA,"feed to chickens, feed to other animals, feed to humans, as fuel",1
"597b0c6ed573480001404b95","1itb507em7","Affordance Norms_Prolific",1,25,"2023-02-04T21:52:28+00:00",13.264760017395,68,"updated stim.csv","Version68.csv","Version 68","List 68","teaspoon",NA,2040,4.76,2653,0.662535659,2041,"BOI","-","-","Please name all of the ways you could use this object. Keep in mind that one object can have many uses. Separate your responses with a comma.",NA,"y",12686,NA,NA,2395,11804,NA,NA,NA,"to cook with, to stir tea with, to measure things with, to take medicine with",1
"597b0c6ed573480001404b95","1itb507em7","Affordance Norms_Prolific",1,26,"2023-02-04T21:52:31+00:00",3.0453369617462,68,"updated stim.csv","Version68.csv","Version 68","List 68","shipman",NA,2016,4.407407407,2344,0.005292281,2017,"BOI","-","-","Please name all of the ways you could use this object. Keep in mind that one object can have many uses. Separate your responses with a comma.",NA,"y",2697,NA,NA,-1,-1,NA,NA,NA,"",1
"597b0c6ed573480001404b95","1itb507em7","Affordance Norms_Prolific",1,27,"2023-02-04T21:52:41+00:00",10.141446113586,68,"updated stim.csv","Version68.csv","Version 68","List 68","nursery",NA,2038,4.875,1788,0.084612721,2039,"BOI","-","-","Please name all of the ways you could use this object. Keep in mind that one object can have many uses. Separate your responses with a comma.",NA,"y",9527,NA,NA,1588,8648,NA,NA,NA,"take kids to, sell as a service, as a makeshift place for anything",1
"597b0c6ed573480001404b95","1itb507em7","Affordance Norms_Prolific",1,28,"2023-02-04T21:52:54+00:00",12.65807890892,68,"updated stim.csv","Version68.csv","Version 68","List 68","slacks",NA,2025,6.103448276,2404,0.852495011,2026,"BOI","-","-","Please name all of the ways you could use this object. Keep in mind that one object can have many uses. Separate your responses with a comma.",NA,"y",12026,NA,NA,5175,11218,NA,NA,NA,"rags, clothes, art",1
"597b0c6ed573480001404b95","1itb507em7","Affordance Norms_Prolific",1,29,"2023-02-04T21:53:11+00:00",16.800790071487,68,"updated stim.csv","Version68.csv","Version 68","List 68","pig",NA,2030,4.56,1955,0.159792263,2031,"BOI","-","-","Please name all of the ways you could use this object. Keep in mind that one object can have many uses. Separate your responses with a comma.",NA,"y",16161,NA,NA,8286,15098,NA,NA,NA,"food, companion, guard animal",0.877
"597b0c6ed573480001404b95","1itb507em7","Affordance Norms_Prolific",1,30,"2023-02-04T21:53:18+00:00",7.7947690486908,68,"updated stim.csv","Version68.csv","Version 68","List 68","slipknot",NA,2023,4.84,2416,0.917641539,2024,"BOI","-","-","Please name all of the ways you could use this object. Keep in mind that one object can have many uses. Separate your responses with a comma.",NA,"y",7159,NA,NA,1999,6356,NA,NA,NA,"tie a noose, hold a boat",1
"597b0c6ed573480001404b95","1itb507em7","Affordance Norms_Prolific",1,31,"2023-02-04T21:53:27+00:00",8.8363330364227,68,"updated stim.csv","Version68.csv","Version 68","List 68","staircase",NA,2022,5.695652174,2500,0.073290028,2023,"BOI","-","-","Please name all of the ways you could use this object. Keep in mind that one object can have many uses. Separate your responses with a comma.",NA,"y",8203,NA,NA,4845,6615,NA,NA,NA,"go up and down",1
"597b0c6ed573480001404b95","1itb507em7","Affordance Norms_Prolific",1,32,"2023-02-04T21:53:43+00:00",15.421396970749,68,"updated stim.csv","Version68.csv","Version 68","List 68","wiring",NA,2017,4.428571429,2952,0.837825634,2018,"BOI","-","-","Please name all of the ways you could use this object. Keep in mind that one object can have many uses. Separate your responses with a comma.",NA,"y",14792,NA,NA,2719,13831,NA,NA,NA,"electronics, electrical items, fix anything, make art, make jewellery ",1
"597b0c6ed573480001404b95","1itb507em7","Affordance Norms_Prolific",1,33,"2023-02-04T21:53:49+00:00",6.406790971756,68,"updated stim.csv","Version68.csv","Version 68","List 68","sketchpad",NA,2015,5.36,2395,0.024242965,2016,"BOI","-","-","Please name all of the ways you could use this object. Keep in mind that one object can have many uses. Separate your responses with a comma.",NA,"y",5760,NA,NA,1215,4903,NA,NA,NA,"draw on, write in, sell it",1
"597b0c6ed573480001404b95","1itb507em7","Affordance Norms_Prolific",1,34,"2023-02-04T21:53:53+00:00",3.6955940723419,68,"updated stim.csv","Version68.csv","Version 68","List 68","supper",NA,2013,5.2,2592,0.312553979,2014,"BOI","-","-","Please name all of the ways you could use this object. Keep in mind that one object can have many uses. Separate your responses with a comma.",NA,"y",3327,NA,NA,1033,2295,NA,NA,NA,"eat it, sell it",1
"597b0c6ed573480001404b95","1itb507em7","Affordance Norms_Prolific",1,35,"2023-02-04T21:54:13+00:00",20.368358850479,68,"updated stim.csv","Version68.csv","Version 68","List 68","winch",NA,2020,5.045454545,2940,0.86917347,2021,"BOI","-","-","Please name all of the ways you could use this object. Keep in mind that one object can have many uses. Separate your responses with a comma.",NA,"y",19767,NA,NA,2145,18698,NA,NA,NA,"lift items up to a tall building, lift animals, get a car out of a ditch",1
"597b0c6ed573480001404b95","1itb507em7","Affordance Norms_Prolific",1,36,"2023-02-04T21:54:28+00:00",14.495190143585,68,"updated stim.csv","Version68.csv","Version 68","List 68","zucchini",NA,2026,5.923076923,3000,0.986805745,2027,"BOI","-","-","Please name all of the ways you could use this object. Keep in mind that one object can have many uses. Separate your responses with a comma.",NA,"y",13890,NA,NA,8109,12263,NA,NA,NA,"cook it, fuck it, eat it, sell it",0.932
"597b0c6ed573480001404b95","1itb507em7","Affordance Norms_Prolific",1,37,"2023-02-04T21:54:39+00:00",11.738333940506,68,"updated stim.csv","Version68.csv","Version 68","List 68","ottoman",NA,2027,5.833333333,1826,0.037881735,2028,"BOI","-","-","Please name all of the ways you could use this object. Keep in mind that one object can have many uses. Separate your responses with a comma.",NA,"y",11112,NA,NA,1592,9529,NA,NA,NA,"sit on, foot rest, sell it, table, step",1
"597b0c6ed573480001404b95","1itb507em7","Affordance Norms_Prolific",1,38,"2023-02-04T21:54:49+00:00",9.9587399959564,68,"updated stim.csv","Version68.csv","Version 68","List 68","button",NA,2033,6.153846154,381,0.124075145,2034,"BOI","-","-","Please name all of the ways you could use this object. Keep in mind that one object can have many uses. Separate your responses with a comma.",NA,"y",9374,NA,NA,2112,8501,NA,NA,NA,"affix something, art, sell it",1
"597b0c6ed573480001404b95","1itb507em7","Affordance Norms_Prolific",1,39,"2023-02-04T21:55:03+00:00",13.828225851059,68,"updated stim.csv","Version68.csv","Version 68","List 68","servant",NA,2037,4.782608696,2313,0.645755241,2038,"BOI","-","-","Please name all of the ways you could use this object. Keep in mind that one object can have many uses. Separate your responses with a comma.",NA,"y",13248,NA,NA,1801,12197,NA,NA,NA,"get food, get drinks, call someone, companion, friend, sex",1
"597b0c6ed573480001404b95","1itb507em7","Affordance Norms_Prolific",1,40,"2023-02-04T21:55:09+00:00",5.4906871318817,68,"updated stim.csv","Version68.csv","Version 68","List 68","questionnaire",NA,2011,4.461538462,2113,0.398995323,2012,"BOI","-","-","Please name all of the ways you could use this object. Keep in mind that one object can have many uses. Separate your responses with a comma.",NA,"y",4810,NA,NA,2371,3911,NA,NA,NA,"fill it in",1
"5af5f227672ea800010d3b8d","tb38attbm3","Affordance Norms_Prolific",1,11,"2023-02-01T21:52:24+00:00",38.58525800705,62,"updated stim.csv","Version62.csv","Version 62","List 62","shingle",NA,1831,4.625,2341,0.575695646,1832,"BOI","-","-","Please name all of the ways you could use this object. Keep in mind that one object can have many uses. Separate your responses with a comma.",NA,"y",38016,NA,NA,35013,37772,NA,NA,NA,"decoration",1
"5af5f227672ea800010d3b8d","tb38attbm3","Affordance Norms_Prolific",1,12,"2023-02-01T21:52:38+00:00",14.437706947327,62,"updated stim.csv","Version62.csv","Version 62","List 62","tuna",NA,1857,4.916666667,2797,0.252862233,1858,"BOI","-","-","Please name all of the ways you could use this object. Keep in mind that one object can have many uses. Separate your responses with a comma.",NA,"y",13834,NA,NA,1437,13595,NA,NA,NA,"eating, feeding to the cat, making a sandwich, chucking at a wall",1
"5af5f227672ea800010d3b8d","tb38attbm3","Affordance Norms_Prolific",1,13,"2023-02-01T21:52:52+00:00",13.808093070984,62,"updated stim.csv","Version62.csv","Version 62","List 62","pedometer",NA,1838,5.681818182,1904,0.404973688,1839,"BOI","-","-","Please name all of the ways you could use this object. Keep in mind that one object can have many uses. Separate your responses with a comma.",NA,"y",13239,NA,NA,1604,13083,NA,NA,NA,"counting steps, looking at",1
"5af5f227672ea800010d3b8d","tb38attbm3","Affordance Norms_Prolific",1,14,"2023-02-01T21:53:16+00:00",23.374425888062,62,"updated stim.csv","Version62.csv","Version 62","List 62","gingerbread",NA,1835,5.48,1105,0.086538967,1836,"BOI","-","-","Please name all of the ways you could use this object. Keep in mind that one object can have many uses. Separate your responses with a comma.",NA,"y",22800,NA,NA,2006,6118,NA,NA,NA,"making, baking",1
"5af5f227672ea800010d3b8d","tb38attbm3","Affordance Norms_Prolific",1,15,"2023-02-01T21:53:23+00:00",7.5786001682281,62,"updated stim.csv","Version62.csv","Version 62","List 62","hookers",NA,1853,5.08,1309,0.038086137,1854,"BOI","-","-","Please name all of the ways you could use this object. Keep in mind that one object can have many uses. Separate your responses with a comma.",NA,"y",6982,NA,NA,4566,6680,NA,NA,NA,"playing rugby",1
"5af5f227672ea800010d3b8d","tb38attbm3","Affordance Norms_Prolific",1,16,"2023-02-01T21:53:28+00:00",4.3919270038605,62,"updated stim.csv","Version62.csv","Version 62","List 62","burlap",NA,1843,5.333333333,367,0.714399014,1844,"BOI","-","-","Please name all of the ways you could use this object. Keep in mind that one object can have many uses. Separate your responses with a comma.",NA,"y",4061,NA,NA,3090,3701,NA,NA,NA,"cloth",1
"5af5f227672ea800010d3b8d","tb38attbm3","Affordance Norms_Prolific",1,17,"2023-02-01T21:53:35+00:00",7.793879032135,62,"updated stim.csv","Version62.csv","Version 62","List 62","dressmaker",NA,1837,4.875,846,0.56333446,1838,"BOI","-","-","Please name all of the ways you could use this object. Keep in mind that one object can have many uses. Separate your responses with a comma.",NA,"y",6015,NA,NA,4158,5852,NA,NA,NA,"making dresses",1
"5af5f227672ea800010d3b8d","tb38attbm3","Affordance Norms_Prolific",1,18,"2023-02-01T21:53:40+00:00",4.4561059474945,62,"updated stim.csv","Version62.csv","Version 62","List 62","antique",NA,1858,4.423076923,50,0.737049157,1859,"BOI","-","-","Please name all of the ways you could use this object. Keep in mind that one object can have many uses. Separate your responses with a comma.",NA,"y",3793,NA,NA,2426,3427,NA,NA,NA,"selling",1
"5af5f227672ea800010d3b8d","tb38attbm3","Affordance Norms_Prolific",1,19,"2023-02-01T21:53:46+00:00",6.5898790359497,62,"updated stim.csv","Version62.csv","Version 62","List 62","tinderbox",NA,1834,4.958333333,2702,0.83776024,1835,"BOI","-","-","Please name all of the ways you could use this object. Keep in mind that one object can have many uses. Separate your responses with a comma.",NA,"y",6275,NA,NA,4981,5951,NA,NA,NA,"god knows",1
"5af5f227672ea800010d3b8d","tb38attbm3","Affordance Norms_Prolific",1,20,"2023-02-01T21:53:53+00:00",6.4808778762817,62,"updated stim.csv","Version62.csv","Version 62","List 62","rose",NA,1859,5.76,2194,0.446710875,1860,"BOI","-","-","Please name all of the ways you could use this object. Keep in mind that one object can have many uses. Separate your responses with a comma.",NA,"y",5919,NA,NA,2925,5717,NA,NA,NA,"decorating a room",1
"5af5f227672ea800010d3b8d","tb38attbm3","Affordance Norms_Prolific",1,21,"2023-02-01T21:53:56+00:00",3.0548961162567,62,"updated stim.csv","Version62.csv","Version 62","List 62","coffee",NA,1836,5.538461538,592,0.10162462,1837,"BOI","-","-","Please name all of the ways you could use this object. Keep in mind that one object can have many uses. Separate your responses with a comma.",NA,"y",2718,NA,NA,1354,2290,NA,NA,NA,"drinking",1
"5af5f227672ea800010d3b8d","tb38attbm3","Affordance Norms_Prolific",1,22,"2023-02-01T21:53:58+00:00",2.466824054718,62,"updated stim.csv","Version62.csv","Version 62","List 62","booklet",NA,1833,5.5,275,0.179367431,1834,"BOI","-","-","Please name all of the ways you could use this object. Keep in mind that one object can have many uses. Separate your responses with a comma.",NA,"y",2136,NA,NA,1194,1889,NA,NA,NA,"reading",1
"5af5f227672ea800010d3b8d","tb38attbm3","Affordance Norms_Prolific",1,23,"2023-02-01T21:54:06+00:00",7.5058479309082,62,"updated stim.csv","Version62.csv","Version 62","List 62","crankshaft",NA,1848,4.666666667,682,0.492233898,1849,"BOI","-","-","Please name all of the ways you could use this object. Keep in mind that one object can have many uses. Separate your responses with a comma.",NA,"y",6905,NA,NA,6210,6669,NA,NA,NA,"milk",1
"5af5f227672ea800010d3b8d","tb38attbm3","Affordance Norms_Prolific",1,24,"2023-02-01T21:54:08+00:00",2.4926159381866,62,"updated stim.csv","Version62.csv","Version 62","List 62","dictionary",NA,1851,6.04,790,0.142711561,1852,"BOI","-","-","Please name all of the ways you could use this object. Keep in mind that one object can have many uses. Separate your responses with a comma.",NA,"y",2146,NA,NA,1292,1983,NA,NA,NA,"reading",1
"5af5f227672ea800010d3b8d","tb38attbm3","Affordance Norms_Prolific",1,25,"2023-02-01T21:54:14+00:00",6.0645580291748,62,"updated stim.csv","Version62.csv","Version 62","List 62","tourniquet",NA,1839,4.956521739,2745,0.067069767,1840,"BOI","-","-","Please name all of the ways you could use this object. Keep in mind that one object can have many uses. Separate your responses with a comma.",NA,"y",5486,NA,NA,4002,5269,NA,NA,NA,"standing on",1
"5af5f227672ea800010d3b8d","tb38attbm3","Affordance Norms_Prolific",1,26,"2023-02-01T21:54:18+00:00",3.3829810619354,62,"updated stim.csv","Version62.csv","Version 62","List 62","bistro",NA,1832,4.518518519,226,0.266151381,1833,"BOI","-","-","Please name all of the ways you could use this object. Keep in mind that one object can have many uses. Separate your responses with a comma.",NA,"y",3044,NA,NA,1851,2785,NA,NA,NA,"sitting in",1
"5af5f227672ea800010d3b8d","tb38attbm3","Affordance Norms_Prolific",1,27,"2023-02-01T21:54:23+00:00",4.7245848178864,62,"updated stim.csv","Version62.csv","Version 62","List 62","shopper",NA,1846,4.541666667,2354,0.086521622,1847,"BOI","-","-","Please name all of the ways you could use this object. Keep in mind that one object can have many uses. Separate your responses with a comma.",NA,"y",4391,NA,NA,2210,4230,NA,NA,NA,"buying stuff",1
"5af5f227672ea800010d3b8d","tb38attbm3","Affordance Norms_Prolific",1,28,"2023-02-01T21:54:29+00:00",6.7160789966583,62,"updated stim.csv","Version62.csv","Version 62","List 62","husk",NA,1841,4.304347826,1339,0.813667226,1842,"BOI","-","-","Please name all of the ways you could use this object. Keep in mind that one object can have many uses. Separate your responses with a comma.",NA,"y",6138,NA,NA,3438,4056,NA,NA,NA,"singing",1
"5af5f227672ea800010d3b8d","tb38attbm3","Affordance Norms_Prolific",1,29,"2023-02-01T21:54:33+00:00",3.4380991458893,62,"updated stim.csv","Version62.csv","Version 62","List 62","sweatband",NA,1860,6.041666667,2603,0.370117836,1861,"BOI","-","-","Please name all of the ways you could use this object. Keep in mind that one object can have many uses. Separate your responses with a comma.",NA,"y",3101,NA,NA,1606,2592,NA,NA,NA,"sweating",1
"5af5f227672ea800010d3b8d","tb38attbm3","Affordance Norms_Prolific",1,30,"2023-02-01T21:54:37+00:00",4.1823270320892,62,"updated stim.csv","Version62.csv","Version 62","List 62","track",NA,1845,4.916666667,2751,0.091398052,1846,"BOI","-","-","Please name all of the ways you could use this object. Keep in mind that one object can have many uses. Separate your responses with a comma.",NA,"y",3855,NA,NA,2435,3407,NA,NA,NA,"tracking",1
"5af5f227672ea800010d3b8d","tb38attbm3","Affordance Norms_Prolific",1,31,"2023-02-01T21:54:40+00:00",3.518189907074,62,"updated stim.csv","Version62.csv","Version 62","List 62","museum",NA,1849,4.333333333,1722,0.455905801,1850,"BOI","-","-","Please name all of the ways you could use this object. Keep in mind that one object can have many uses. Separate your responses with a comma.",NA,"y",3191,NA,NA,2073,2660,NA,NA,NA,"learning",1
"5af5f227672ea800010d3b8d","tb38attbm3","Affordance Norms_Prolific",1,32,"2023-02-01T21:54:46+00:00",5.8976430892944,62,"updated stim.csv","Version62.csv","Version 62","List 62","mantel",NA,1842,5,1595,0.899141268,1843,"BOI","-","-","Please name all of the ways you could use this object. Keep in mind that one object can have many uses. Separate your responses with a comma.",NA,"y",4739,NA,NA,2996,4650,NA,NA,NA,"storing cards",1
"5af5f227672ea800010d3b8d","tb38attbm3","Affordance Norms_Prolific",1,33,"2023-02-01T21:54:53+00:00",6.7338650226593,62,"updated stim.csv","Version62.csv","Version 62","List 62","cleavers",NA,1840,5.48,554,0.531713648,1841,"BOI","-","-","Please name all of the ways you could use this object. Keep in mind that one object can have many uses. Separate your responses with a comma.",NA,"y",6162,NA,NA,4318,6002,NA,NA,NA,"cutting meat",1
"5af5f227672ea800010d3b8d","tb38attbm3","Affordance Norms_Prolific",1,34,"2023-02-01T21:54:56+00:00",2.8972008228302,62,"updated stim.csv","Version62.csv","Version 62","List 62","scotch",NA,1852,5.4,2281,0.068387276,1853,"BOI","-","-","Please name all of the ways you could use this object. Keep in mind that one object can have many uses. Separate your responses with a comma.",NA,"y",2574,NA,NA,1549,2347,NA,NA,NA,"drinking",1
"5af5f227672ea800010d3b8d","tb38attbm3","Affordance Norms_Prolific",1,35,"2023-02-01T21:54:59+00:00",3.1702761650085,62,"updated stim.csv","Version62.csv","Version 62","List 62","weaponry",NA,1856,5,2915,0.043267068,1857,"BOI","-","-","Please name all of the ways you could use this object. Keep in mind that one object can have many uses. Separate your responses with a comma.",NA,"y",2842,NA,NA,1493,2719,NA,NA,NA,"looking at",1
"5af5f227672ea800010d3b8d","tb38attbm3","Affordance Norms_Prolific",1,36,"2023-02-01T21:55:03+00:00",4.3083369731903,62,"updated stim.csv","Version62.csv","Version 62","List 62","heads",NA,1844,4.28,1272,0.346752524,1845,"BOI","-","-","Please name all of the ways you could use this object. Keep in mind that one object can have many uses. Separate your responses with a comma.",NA,"y",3971,NA,NA,2900,3640,NA,NA,NA,"thinking",1
"5af5f227672ea800010d3b8d","tb38attbm3","Affordance Norms_Prolific",1,37,"2023-02-01T21:55:09+00:00",5.6201958656311,62,"updated stim.csv","Version62.csv","Version 62","List 62","lifebuoy",NA,1847,4.260869565,1505,0.626818545,1848,"BOI","-","-","Please name all of the ways you could use this object. Keep in mind that one object can have many uses. Separate your responses with a comma.",NA,"y",5034,NA,NA,2119,4850,NA,NA,NA,"floating",1
"5af5f227672ea800010d3b8d","tb38attbm3","Affordance Norms_Prolific",1,38,"2023-02-01T21:55:12+00:00",2.5214581489563,62,"updated stim.csv","Version62.csv","Version 62","List 62","fish",NA,1850,5.592592593,989,0.021287722,1851,"BOI","-","-","Please name all of the ways you could use this object. Keep in mind that one object can have many uses. Separate your responses with a comma.",NA,"y",2166,NA,NA,1355,1910,NA,NA,NA,"eating",1
"5af5f227672ea800010d3b8d","tb38attbm3","Affordance Norms_Prolific",1,39,"2023-02-01T21:55:19+00:00",6.9435319900513,62,"updated stim.csv","Version62.csv","Version 62","List 62","beaker",NA,1855,5.416666667,180,0.721862353,1856,"BOI","-","-","Please name all of the ways you could use this object. Keep in mind that one object can have many uses. Separate your responses with a comma.",NA,"y",6327,NA,NA,4286,6117,NA,NA,NA,"storing liquid",1
"5af5f227672ea800010d3b8d","tb38attbm3","Affordance Norms_Prolific",1,40,"2023-02-01T21:55:22+00:00",3.4080770015717,62,"updated stim.csv","Version62.csv","Version 62","List 62","rope",NA,1854,6.2,2192,0.92769485,1855,"BOI","-","-","Please name all of the ways you could use this object. Keep in mind that one object can have many uses. Separate your responses with a comma.",NA,"y",3070,NA,NA,1576,2508,NA,NA,NA,"climbing",1
"5b5f35fe64516800018b8ed2","qnh45duu2e","Affordance Norms_Prolific",1,11,"2023-02-01T21:18:38+00:00",14.653054952621,50,"updated stim.csv","Version50.csv","Version 50","List 50","cent",NA,1473,5.12,477,0.762430445,1474,"BOI","-","-","Please name all of the ways you could use this object. Keep in mind that one object can have many uses. Separate your responses with a comma.",NA,"y",14326,NA,NA,4805,12229,NA,NA,NA,"paying, tossing a coin",1
"5b5f35fe64516800018b8ed2","qnh45duu2e","Affordance Norms_Prolific",1,12,"2023-02-01T21:18:48+00:00",9.6493780612946,50,"updated stim.csv","Version50.csv","Version 50","List 50","merchant",NA,1478,4.5,1648,0.862362774,1479,"BOI","-","-","Please name all of the ways you could use this object. Keep in mind that one object can have many uses. Separate your responses with a comma.",NA,"y",9317,NA,NA,2612,7803,NA,NA,NA,"paying, playing, selling",1
"5b5f35fe64516800018b8ed2","qnh45duu2e","Affordance Norms_Prolific",1,13,"2023-02-01T21:19:00+00:00",11.964439868927,50,"updated stim.csv","Version50.csv","Version 50","List 50","pineapple",NA,1477,6.304347826,1971,0.761657813,1478,"BOI","-","-","Please name all of the ways you could use this object. Keep in mind that one object can have many uses. Separate your responses with a comma.",NA,"y",11634,NA,NA,1226,9953,NA,NA,NA,"eating, juicing, model",1
"5b5f35fe64516800018b8ed2","qnh45duu2e","Affordance Norms_Prolific",1,14,"2023-02-01T21:19:11+00:00",10.570379018784,50,"updated stim.csv","Version50.csv","Version 50","List 50","joystick",NA,1472,6.12,1392,0.982163105,1473,"BOI","-","-","Please name all of the ways you could use this object. Keep in mind that one object can have many uses. Separate your responses with a comma.",NA,"y",10245,NA,NA,1316,9035,NA,NA,NA,"playing games, moving, jumping, ducking",1
"5b5f35fe64516800018b8ed2","qnh45duu2e","Affordance Norms_Prolific",1,15,"2023-02-01T21:19:21+00:00",10.671895027161,50,"updated stim.csv","Version50.csv","Version 50","List 50","muzzle",NA,1490,4.391304348,1730,0.007150831,1491,"BOI","-","-","Please name all of the ways you could use this object. Keep in mind that one object can have many uses. Separate your responses with a comma.",NA,"y",10342,NA,NA,2574,8229,NA,NA,NA,"mask, prevent barking, prevent biting",1
"5b5f35fe64516800018b8ed2","qnh45duu2e","Affordance Norms_Prolific",1,16,"2023-02-01T21:19:51+00:00",29.363660097122,50,"updated stim.csv","Version50.csv","Version 50","List 50","geranium",NA,1471,4.695652174,1099,0.007035307,1472,"BOI","-","-","Please name all of the ways you could use this object. Keep in mind that one object can have many uses. Separate your responses with a comma.",NA,"y",28791,NA,NA,5518,26213,NA,NA,NA,"visual, oxygen, wildlife",1
"5b5f35fe64516800018b8ed2","qnh45duu2e","Affordance Norms_Prolific",1,17,"2023-02-01T21:20:04+00:00",13.833922863007,50,"updated stim.csv","Version50.csv","Version 50","List 50","cliff",NA,1494,4.64,559,0.960386824,1495,"BOI","-","-","Please name all of the ways you could use this object. Keep in mind that one object can have many uses. Separate your responses with a comma.",NA,"y",13502,NA,NA,1609,12577,NA,NA,NA,"view, climbing, abseiling, pictures",1
"5b5f35fe64516800018b8ed2","qnh45duu2e","Affordance Norms_Prolific",1,18,"2023-02-01T21:20:10+00:00",5.5620980262756,50,"updated stim.csv","Version50.csv","Version 50","List 50","shallot",NA,1479,5.380952381,2319,0.326027795,1480,"BOI","-","-","Please name all of the ways you could use this object. Keep in mind that one object can have many uses. Separate your responses with a comma.",NA,"y",5233,NA,NA,3393,3992,NA,NA,NA,"eating",1
"5b5f35fe64516800018b8ed2","qnh45duu2e","Affordance Norms_Prolific",1,19,"2023-02-01T21:20:23+00:00",12.606221914291,50,"updated stim.csv","Version50.csv","Version 50","List 50","shavings",NA,1498,4.6,2325,0.943267903,1499,"BOI","-","-","Please name all of the ways you could use this object. Keep in mind that one object can have many uses. Separate your responses with a comma.",NA,"y",12278,NA,NA,3345,10968,NA,NA,NA,"collecting, practice, sharping",1
"5b5f35fe64516800018b8ed2","qnh45duu2e","Affordance Norms_Prolific",1,20,"2023-02-01T21:20:38+00:00",15.613723039627,50,"updated stim.csv","Version50.csv","Version 50","List 50","grandson",NA,1486,5.785714286,1153,0.920052368,1487,"BOI","-","-","Please name all of the ways you could use this object. Keep in mind that one object can have many uses. Separate your responses with a comma.",NA,"y",15286,NA,NA,1786,14138,NA,NA,NA,"fun, love, spending time, playing, talking",1
"5b5f35fe64516800018b8ed2","qnh45duu2e","Affordance Norms_Prolific",1,21,"2023-02-01T21:20:47+00:00",8.583920955658,50,"updated stim.csv","Version50.csv","Version 50","List 50","pullover",NA,1476,4.56,2093,0.876188413,1477,"BOI","-","-","Please name all of the ways you could use this object. Keep in mind that one object can have many uses. Separate your responses with a comma.",NA,"y",8255,NA,NA,2020,6259,NA,NA,NA,"excersize, stopping a car,",1
"5b5f35fe64516800018b8ed2","qnh45duu2e","Affordance Norms_Prolific",1,22,"2023-02-01T21:21:01+00:00",13.94417309761,50,"updated stim.csv","Version50.csv","Version 50","List 50","needle",NA,1495,5.739130435,1745,0.011099069,1496,"BOI","-","-","Please name all of the ways you could use this object. Keep in mind that one object can have many uses. Separate your responses with a comma.",NA,"y",13621,NA,NA,1313,12296,NA,NA,NA,"pricking, sewing, drawing blood, injecting medicine",1
"5b5f35fe64516800018b8ed2","qnh45duu2e","Affordance Norms_Prolific",1,23,"2023-02-01T21:21:17+00:00",16.399841070175,50,"updated stim.csv","Version50.csv","Version 50","List 50","orange",NA,1489,5.08,1814,0.39432897,1490,"BOI","-","-","Please name all of the ways you could use this object. Keep in mind that one object can have many uses. Separate your responses with a comma.",NA,"y",16073,NA,NA,1207,14470,NA,NA,NA,"eating, juicing, drawing a face, squeezing",1
"5b5f35fe64516800018b8ed2","qnh45duu2e","Affordance Norms_Prolific",1,24,"2023-02-01T21:21:33+00:00",15.76659989357,50,"updated stim.csv","Version50.csv","Version 50","List 50","potato",NA,1483,5.6,2047,0.406568985,1484,"BOI","-","-","Please name all of the ways you could use this object. Keep in mind that one object can have many uses. Separate your responses with a comma.",NA,"y",15438,NA,NA,1152,14184,NA,NA,NA,"eating, cutting up, as a paint stamp tool, using in a potato gun",1
"5b5f35fe64516800018b8ed2","qnh45duu2e","Affordance Norms_Prolific",1,25,"2023-02-01T21:21:45+00:00",12.370053052902,50,"updated stim.csv","Version50.csv","Version 50","List 50","sombrero",NA,1492,5.518518519,2449,0.141496717,1493,"BOI","-","-","Please name all of the ways you could use this object. Keep in mind that one object can have many uses. Separate your responses with a comma.",NA,"y",12036,NA,NA,1842,10226,NA,NA,NA,"hiding sun, shade, style, dressing up",1
"5b5f35fe64516800018b8ed2","qnh45duu2e","Affordance Norms_Prolific",1,26,"2023-02-01T21:22:02+00:00",16.237771987915,50,"updated stim.csv","Version50.csv","Version 50","List 50","nanny",NA,1480,4.6,1734,0.074386571,1481,"BOI","-","-","Please name all of the ways you could use this object. Keep in mind that one object can have many uses. Separate your responses with a comma.",NA,"y",15903,NA,NA,6309,9405,NA,NA,NA,"looking after child, ",1
"5b5f35fe64516800018b8ed2","qnh45duu2e","Affordance Norms_Prolific",1,27,"2023-02-01T21:22:14+00:00",12.391568899155,50,"updated stim.csv","Version50.csv","Version 50","List 50","drywall",NA,1481,5.208333333,858,0.569608208,1482,"BOI","-","-","Please name all of the ways you could use this object. Keep in mind that one object can have many uses. Separate your responses with a comma.",NA,"y",12063,NA,NA,1878,10886,NA,NA,NA,"erecting structures, decorating, renovating rooms",1
"5b5f35fe64516800018b8ed2","qnh45duu2e","Affordance Norms_Prolific",1,28,"2023-02-01T21:22:34+00:00",20.09601521492,50,"updated stim.csv","Version50.csv","Version 50","List 50","necktie",NA,1482,6.043478261,1742,0.48846066,1483,"BOI","-","-","Please name all of the ways you could use this object. Keep in mind that one object can have many uses. Separate your responses with a comma.",NA,"y",19766,NA,NA,2382,18774,NA,NA,NA,"dressing smart, impressing at job interviews",1
"5b5f35fe64516800018b8ed2","qnh45duu2e","Affordance Norms_Prolific",1,29,"2023-02-01T21:22:48+00:00",14.210030794144,50,"updated stim.csv","Version50.csv","Version 50","List 50","metal",NA,1491,5.130434783,1650,0.340369684,1492,"BOI","-","-","Please name all of the ways you could use this object. Keep in mind that one object can have many uses. Separate your responses with a comma.",NA,"y",13863,NA,NA,2357,12509,NA,NA,NA,"cars, utensils, tools, jewelry",1
"5b5f35fe64516800018b8ed2","qnh45duu2e","Affordance Norms_Prolific",1,30,"2023-02-01T21:22:58+00:00",9.8340001106262,50,"updated stim.csv","Version50.csv","Version 50","List 50","forehead",NA,1475,5.777777778,1045,0.693073513,1476,"BOI","-","-","Please name all of the ways you could use this object. Keep in mind that one object can have many uses. Separate your responses with a comma.",NA,"y",9506,NA,NA,1805,8173,NA,NA,NA,"heading a football, resting on, massaging",1
"5b5f35fe64516800018b8ed2","qnh45duu2e","Affordance Norms_Prolific",1,31,"2023-02-01T21:23:09+00:00",11.292021036148,50,"updated stim.csv","Version50.csv","Version 50","List 50","poultry",NA,1487,4.826086957,2053,0.292741478,1488,"BOI","-","-","Please name all of the ways you could use this object. Keep in mind that one object can have many uses. Separate your responses with a comma.",NA,"y",10963,NA,NA,1435,10443,NA,NA,NA,"eating, rasing, getting eggs, cooking, pets",1
"5b5f35fe64516800018b8ed2","qnh45duu2e","Affordance Norms_Prolific",1,32,"2023-02-01T21:23:21+00:00",11.590466022491,50,"updated stim.csv","Version50.csv","Version 50","List 50","saddle",NA,1499,4.954545455,2212,0.102420564,1500,"BOI","-","-","Please name all of the ways you could use this object. Keep in mind that one object can have many uses. Separate your responses with a comma.",NA,"y",11260,NA,NA,1462,9798,NA,NA,NA,"sitting, as a stepping stone",1
"5b5f35fe64516800018b8ed2","qnh45duu2e","Affordance Norms_Prolific",1,33,"2023-02-01T21:23:30+00:00",8.8518190383911,50,"updated stim.csv","Version50.csv","Version 50","List 50","pudding",NA,1496,5.958333333,2088,0.756193093,1497,"BOI","-","-","Please name all of the ways you could use this object. Keep in mind that one object can have many uses. Separate your responses with a comma.",NA,"y",8520,NA,NA,1222,6174,NA,NA,NA,"eating, treating someone, cooking",1
"5b5f35fe64516800018b8ed2","qnh45duu2e","Affordance Norms_Prolific",1,34,"2023-02-01T21:23:43+00:00",13.685800790787,50,"updated stim.csv","Version50.csv","Version 50","List 50","celery",NA,1484,6.086956522,471,0.206824668,1485,"BOI","-","-","Please name all of the ways you could use this object. Keep in mind that one object can have many uses. Separate your responses with a comma.",NA,"y",13354,NA,NA,1522,11186,NA,NA,NA,"eating, as an ingredient in a recipe, growing",1
"5b5f35fe64516800018b8ed2","qnh45duu2e","Affordance Norms_Prolific",1,35,"2023-02-01T21:23:54+00:00",10.923651218414,50,"updated stim.csv","Version50.csv","Version 50","List 50","corset",NA,1493,5.44,653,0.182805435,1494,"BOI","-","-","Please name all of the ways you could use this object. Keep in mind that one object can have many uses. Separate your responses with a comma.",NA,"y",10587,NA,NA,4296,7816,NA,NA,NA,"dressing up,",1
"5b5f35fe64516800018b8ed2","qnh45duu2e","Affordance Norms_Prolific",1,36,"2023-02-01T21:24:10+00:00",15.812382936478,50,"updated stim.csv","Version50.csv","Version 50","List 50","coin",NA,1485,6.4,595,0.12909015,1486,"BOI","-","-","Please name all of the ways you could use this object. Keep in mind that one object can have many uses. Separate your responses with a comma.",NA,"y",15480,NA,NA,2208,14080,NA,NA,NA,"tossing, paying for goods, throwing in a fountain",1
"5b5f35fe64516800018b8ed2","qnh45duu2e","Affordance Norms_Prolific",1,37,"2023-02-01T21:24:33+00:00",22.352059841156,50,"updated stim.csv","Version50.csv","Version 50","List 50","Ladder",NA,1497,6.117567568,1447,0.768215251,1498,"BOI","-","-","Please name all of the ways you could use this object. Keep in mind that one object can have many uses. Separate your responses with a comma.",NA,"y",21761,NA,NA,1362,20738,NA,NA,NA,"climbing, resting against a wall, to wash a window, to wash top of vans",1
"5b5f35fe64516800018b8ed2","qnh45duu2e","Affordance Norms_Prolific",1,38,"2023-02-01T21:24:46+00:00",13.289976119995,50,"updated stim.csv","Version50.csv","Version 50","List 50","houseboy",NA,1500,4.583333333,1328,0.370650802,1501,"BOI","-","-","Please name all of the ways you could use this object. Keep in mind that one object can have many uses. Separate your responses with a comma.",NA,"y",12959,NA,NA,2037,11821,NA,NA,NA,"as a cleaner, as someone to mind a house",1
"5b5f35fe64516800018b8ed2","qnh45duu2e","Affordance Norms_Prolific",1,39,"2023-02-01T21:24:59+00:00",13.171936988831,50,"updated stim.csv","Version50.csv","Version 50","List 50","councilwoman",NA,1488,4.583333333,664,0.502846209,1489,"BOI","-","-","Please name all of the ways you could use this object. Keep in mind that one object can have many uses. Separate your responses with a comma.",NA,"y",12826,NA,NA,3010,11555,NA,NA,NA,"to get rules changed, to enforce rules, to complain to",1
"5b5f35fe64516800018b8ed2","qnh45duu2e","Affordance Norms_Prolific",1,40,"2023-02-01T21:25:14+00:00",15.447695016861,50,"updated stim.csv","Version50.csv","Version 50","List 50","wildcat",NA,1474,4.583333333,2938,0.77598471,1475,"BOI","-","-","Please name all of the ways you could use this object. Keep in mind that one object can have many uses. Separate your responses with a comma.",NA,"y",15114,NA,NA,3541,14237,NA,NA,NA,"to kill vermin, to observe at a zoo",1
"5b9d57e5737d030001ad2cbf","io4zndiike","Affordance Norms_Prolific",1,11,"2023-02-01T21:51:21+00:00",18.601483106613,59,"updated stim.csv","Version59.csv","Version 59","List 59","diploma",NA,1746,5.96,798,0.946243713,1747,"BOI","-","-","Please name all of the ways you could use this object. Keep in mind that one object can have many uses. Separate your responses with a comma.",NA,"y",18023,NA,NA,3634,17684,NA,NA,NA,"looking, checking, framing, burning",1
"5b9d57e5737d030001ad2cbf","io4zndiike","Affordance Norms_Prolific",1,12,"2023-02-01T21:51:32+00:00",11.359493017197,59,"updated stim.csv","Version59.csv","Version 59","List 59","knitting",NA,1751,4.304347826,1436,0.568372099,1752,"BOI","-","-","Please name all of the ways you could use this object. Keep in mind that one object can have many uses. Separate your responses with a comma.",NA,"y",10779,NA,NA,3736,10104,NA,NA,NA,"touching, wearing, washing",1
"5b9d57e5737d030001ad2cbf","io4zndiike","Affordance Norms_Prolific",1,13,"2023-02-01T21:51:48+00:00",15.747854948044,59,"updated stim.csv","Version59.csv","Version 59","List 59","eye",NA,1747,5.72,929,0.443037439,1748,"BOI","-","-","Please name all of the ways you could use this object. Keep in mind that one object can have many uses. Separate your responses with a comma.",NA,"y",15164,NA,NA,1529,14905,NA,NA,NA,"looking, colouring, closing, blinking",1
"5b9d57e5737d030001ad2cbf","io4zndiike","Affordance Norms_Prolific",1,14,"2023-02-01T21:51:56+00:00",8.1420819759369,59,"updated stim.csv","Version59.csv","Version 59","List 59","surgeon",NA,1748,5,2595,0.062436921,1749,"BOI","-","-","Please name all of the ways you could use this object. Keep in mind that one object can have many uses. Separate your responses with a comma.",NA,"y",7523,NA,NA,5697,7056,NA,NA,NA,"operations",1
"5b9d57e5737d030001ad2cbf","io4zndiike","Affordance Norms_Prolific",1,15,"2023-02-01T21:52:15+00:00",18.565937042236,59,"updated stim.csv","Version59.csv","Version 59","List 59","electrocardiogram",NA,1752,4.347826087,898,0.132707639,1753,"BOI","-","-","Please name all of the ways you could use this object. Keep in mind that one object can have many uses. Separate your responses with a comma.",NA,"y",17981,NA,NA,3755,17643,NA,NA,NA,"heart check, blood flow",1
"5b9d57e5737d030001ad2cbf","io4zndiike","Affordance Norms_Prolific",1,16,"2023-02-01T21:52:45+00:00",30.098041057587,59,"updated stim.csv","Version59.csv","Version 59","List 59","statuette",NA,1750,4.739130435,2514,0.930875652,1751,"BOI","-","-","Please name all of the ways you could use this object. Keep in mind that one object can have many uses. Separate your responses with a comma.",NA,"y",29518,NA,NA,2969,28700,NA,NA,NA,"touch it, look at it, use as a weapon, smash it, donate it, cuddle it",1
"5b9d57e5737d030001ad2cbf","io4zndiike","Affordance Norms_Prolific",1,17,"2023-02-01T21:53:09+00:00",24.510452032089,59,"updated stim.csv","Version59.csv","Version 59","List 59","midwife",NA,1757,5,1659,0.497275333,1758,"BOI","-","-","Please name all of the ways you could use this object. Keep in mind that one object can have many uses. Separate your responses with a comma.",NA,"y",23932,NA,NA,5048,22889,NA,NA,NA,"pull babies out, be caring, help people, go to the pub with",1
"5b9d57e5737d030001ad2cbf","io4zndiike","Affordance Norms_Prolific",1,18,"2023-02-01T21:53:39+00:00",29.683750867844,59,"updated stim.csv","Version59.csv","Version 59","List 59","tenant",NA,1756,4.8,2662,0.79293781,1757,"BOI","-","-","Please name all of the ways you could use this object. Keep in mind that one object can have many uses. Separate your responses with a comma.",NA,"y",28886,NA,NA,2738,28339,NA,NA,NA,"rent paid, make friends, get rid of, exploit, get angry",1
"5b9d57e5737d030001ad2cbf","io4zndiike","Affordance Norms_Prolific",1,19,"2023-02-01T21:54:10+00:00",30.88685297966,59,"updated stim.csv","Version59.csv","Version 59","List 59","stirrer",NA,1745,4.615384615,2537,0.139093933,1746,"BOI","-","-","Please name all of the ways you could use this object. Keep in mind that one object can have many uses. Separate your responses with a comma.",NA,"y",30300,NA,NA,2151,29641,NA,NA,NA,"stir tea, stir coffee, pick ear or nose, flick at someone, bin it, burn it",1
"5b9d57e5737d030001ad2cbf","io4zndiike","Affordance Norms_Prolific",1,20,"2023-02-01T21:54:56+00:00",45.603150129318,59,"updated stim.csv","Version59.csv","Version 59","List 59","outhouse",NA,1755,4.64,1829,0.122401729,1756,"BOI","-","-","Please name all of the ways you could use this object. Keep in mind that one object can have many uses. Separate your responses with a comma.",NA,"y",44984,NA,NA,7937,43828,NA,NA,NA,"have a liaison, store rubbish, keep cats, store bikes, brew beer, kiss girls",1
"5b9d57e5737d030001ad2cbf","io4zndiike","Affordance Norms_Prolific",1,21,"2023-02-01T21:55:29+00:00",33.507048845291,59,"updated stim.csv","Version59.csv","Version 59","List 59","axes",NA,1764,4.833333333,107,0.618408666,1765,"BOI","-","-","Please name all of the ways you could use this object. Keep in mind that one object can have many uses. Separate your responses with a comma.",NA,"y",32944,NA,NA,2795,32685,NA,NA,NA,"chop wood, kill things, make a noise, sharpen them, scare people",1
"5b9d57e5737d030001ad2cbf","io4zndiike","Affordance Norms_Prolific",1,22,"2023-02-01T21:55:51+00:00",22.00455904007,59,"updated stim.csv","Version59.csv","Version 59","List 59","holder",NA,1767,4.28,1296,0.95017996,1768,"BOI","-","-","Please name all of the ways you could use this object. Keep in mind that one object can have many uses. Separate your responses with a comma.",NA,"y",21385,NA,NA,2292,21270,NA,NA,NA,"put stuff there, hide things, view objects",1
"5b9d57e5737d030001ad2cbf","io4zndiike","Affordance Norms_Prolific",1,23,"2023-02-01T21:56:28+00:00",36.628458976746,59,"updated stim.csv","Version59.csv","Version 59","List 59","softball",NA,1761,5.75,2444,0.483229766,1762,"BOI","-","-","Please name all of the ways you could use this object. Keep in mind that one object can have many uses. Separate your responses with a comma.",NA,"y",36051,NA,NA,1789,35328,NA,NA,NA,"play ball, throw it, catch it, bite it, burn it, donate it, stab it",1
"5b9d57e5737d030001ad2cbf","io4zndiike","Affordance Norms_Prolific",1,24,"2023-02-01T21:56:45+00:00",17.154000043869,59,"updated stim.csv","Version59.csv","Version 59","List 59","honeysuckle",NA,1759,5.375,1305,0.241027144,1760,"BOI","-","-","Please name all of the ways you could use this object. Keep in mind that one object can have many uses. Separate your responses with a comma.",NA,"y",16559,NA,NA,2717,15949,NA,NA,NA,"smell it, plant it, view it, love it, water it",1
"5b9d57e5737d030001ad2cbf","io4zndiike","Affordance Norms_Prolific",1,25,"2023-02-01T21:57:07+00:00",22.483709096909,59,"updated stim.csv","Version59.csv","Version 59","List 59","bullet",NA,1741,5.772727273,353,0.384139642,1742,"BOI","-","-","Please name all of the ways you could use this object. Keep in mind that one object can have many uses. Separate your responses with a comma.",NA,"y",21871,NA,NA,2028,20398,NA,NA,NA,"load into a gun, fire it, crush it, donate it, flush it",1
"5b9d57e5737d030001ad2cbf","io4zndiike","Affordance Norms_Prolific",1,26,"2023-02-01T21:57:28+00:00",20.708170890808,59,"updated stim.csv","Version59.csv","Version 59","List 59","whip",NA,1754,5,2925,0.659916917,1755,"BOI","-","-","Please name all of the ways you could use this object. Keep in mind that one object can have many uses. Separate your responses with a comma.",NA,"y",20049,NA,NA,2637,19438,NA,NA,NA,"hit things, make a noise, wrap up in it, smell it",1
"5b9d57e5737d030001ad2cbf","io4zndiike","Affordance Norms_Prolific",1,27,"2023-02-01T21:57:51+00:00",22.673623085022,59,"updated stim.csv","Version59.csv","Version 59","List 59","soccer",NA,1766,4.64,2438,0.415669367,1767,"BOI","-","-","Please name all of the ways you could use this object. Keep in mind that one object can have many uses. Separate your responses with a comma.",NA,"y",22092,NA,NA,1752,21610,NA,NA,NA,"play it, watch it, admire it, get annoyed, lose it, head it",1
"5b9d57e5737d030001ad2cbf","io4zndiike","Affordance Norms_Prolific",1,28,"2023-02-01T21:58:23+00:00",31.891578912735,59,"updated stim.csv","Version59.csv","Version 59","List 59","baggage",NA,1749,5.965517241,122,0.141549146,1750,"BOI","-","-","Please name all of the ways you could use this object. Keep in mind that one object can have many uses. Separate your responses with a comma.",NA,"y",31288,NA,NA,2514,30981,NA,NA,NA,"store clothes, go travelling, look inside, smell it, burn it, add sticker",1
"5b9d57e5737d030001ad2cbf","io4zndiike","Affordance Norms_Prolific",1,29,"2023-02-01T21:58:48+00:00",25.07223200798,59,"updated stim.csv","Version59.csv","Version 59","List 59","beautician",NA,1760,4.608695652,183,0.543328676,1761,"BOI","-","-","Please name all of the ways you could use this object. Keep in mind that one object can have many uses. Separate your responses with a comma.",NA,"y",24440,NA,NA,2035,24228,NA,NA,NA,"look, feel, borrow, use, fancy, speak with, be impressed",1
"5b9d57e5737d030001ad2cbf","io4zndiike","Affordance Norms_Prolific",1,30,"2023-02-01T21:59:11+00:00",23.623548030853,59,"updated stim.csv","Version59.csv","Version 59","List 59","shoehorn",NA,1770,5.75,2350,0.543116011,1771,"BOI","-","-","Please name all of the ways you could use this object. Keep in mind that one object can have many uses. Separate your responses with a comma.",NA,"y",23038,NA,NA,1849,17419,NA,NA,NA,"put on shoe, hit people, scratch back, hang on wall",1
"5b9d57e5737d030001ad2cbf","io4zndiike","Affordance Norms_Prolific",1,31,"2023-02-01T21:59:28+00:00",16.285846948624,59,"updated stim.csv","Version59.csv","Version 59","List 59","tile",NA,1762,4.76,2697,0.15917771,1763,"BOI","-","-","Please name all of the ways you could use this object. Keep in mind that one object can have many uses. Separate your responses with a comma.",NA,"y",15665,NA,NA,1358,15582,NA,NA,NA,"place on wall, break, score, colour, smash",1
"5b9d57e5737d030001ad2cbf","io4zndiike","Affordance Norms_Prolific",1,32,"2023-02-01T21:59:39+00:00",10.9437520504,59,"updated stim.csv","Version59.csv","Version 59","List 59","beret",NA,1742,5.695652174,204,0.534744098,1743,"BOI","-","-","Please name all of the ways you could use this object. Keep in mind that one object can have many uses. Separate your responses with a comma.",NA,"y",10368,NA,NA,1790,10238,NA,NA,NA,"wear on head, set fire too, give as a gift",1
"5b9d57e5737d030001ad2cbf","io4zndiike","Affordance Norms_Prolific",1,33,"2023-02-01T21:59:57+00:00",18.77783203125,59,"updated stim.csv","Version59.csv","Version 59","List 59","belongings",NA,1753,5.173913043,201,0.384209393,1754,"BOI","-","-","Please name all of the ways you could use this object. Keep in mind that one object can have many uses. Separate your responses with a comma.",NA,"y",18193,NA,NA,1869,17902,NA,NA,NA,"keep them, give away, hoard, show, count, be proud of",1
"5b9d57e5737d030001ad2cbf","io4zndiike","Affordance Norms_Prolific",1,34,"2023-02-01T22:00:17+00:00",19.324574947357,59,"updated stim.csv","Version59.csv","Version 59","List 59","slush",NA,1763,4.541666667,2419,0.001805092,1764,"BOI","-","-","Please name all of the ways you could use this object. Keep in mind that one object can have many uses. Separate your responses with a comma.",NA,"y",18745,NA,NA,2309,18246,NA,NA,NA,"kick it, slide it, look at it, salt it, admire, touch",1
"5b9d57e5737d030001ad2cbf","io4zndiike","Affordance Norms_Prolific",1,35,"2023-02-01T22:00:40+00:00",23.443921089172,59,"updated stim.csv","Version59.csv","Version 59","List 59","stagecoach",NA,1769,4.538461538,2498,0.60122922,1770,"BOI","-","-","Please name all of the ways you could use this object. Keep in mind that one object can have many uses. Separate your responses with a comma.",NA,"y",22824,NA,NA,1427,22581,NA,NA,NA,"ride it, feed the horses, look out the window, go places, feel the bumps",1
"5b9d57e5737d030001ad2cbf","io4zndiike","Affordance Norms_Prolific",1,36,"2023-02-01T22:01:02+00:00",21.746136903763,59,"updated stim.csv","Version59.csv","Version 59","List 59","attire",NA,1765,5.086956522,95,0.100168074,1766,"BOI","-","-","Please name all of the ways you could use this object. Keep in mind that one object can have many uses. Separate your responses with a comma.",NA,"y",21164,NA,NA,1338,20938,NA,NA,NA,"wear, look, touch, tear, buy, clean, adjust",1
"5b9d57e5737d030001ad2cbf","io4zndiike","Affordance Norms_Prolific",1,37,"2023-02-01T22:01:14+00:00",12.625679969788,59,"updated stim.csv","Version59.csv","Version 59","List 59","triceps",NA,1758,5.52,2774,0.029767692,1759,"BOI","-","-","Please name all of the ways you could use this object. Keep in mind that one object can have many uses. Separate your responses with a comma.",NA,"y",12045,NA,NA,2267,11739,NA,NA,NA,"touch, look, tense, grow",1
"5b9d57e5737d030001ad2cbf","io4zndiike","Affordance Norms_Prolific",1,38,"2023-02-01T22:01:29+00:00",14.832148075104,59,"updated stim.csv","Version59.csv","Version 59","List 59","musician",NA,1744,4.47826087,1724,0.807811062,1745,"BOI","-","-","Please name all of the ways you could use this object. Keep in mind that one object can have many uses. Separate your responses with a comma.",NA,"y",14239,NA,NA,1452,13644,NA,NA,NA,"listen, look, help, follow, pay",1
"5b9d57e5737d030001ad2cbf","io4zndiike","Affordance Norms_Prolific",1,39,"2023-02-01T22:01:50+00:00",20.577418088913,59,"updated stim.csv","Version59.csv","Version 59","List 59","trolley",NA,1743,5.416666667,2780,0.015846997,1744,"BOI","-","-","Please name all of the ways you could use this object. Keep in mind that one object can have many uses. Separate your responses with a comma.",NA,"y",19951,NA,NA,1148,18941,NA,NA,NA,"push, pull, fill, empty, ride, burn, push in the river",1
"5b9d57e5737d030001ad2cbf","io4zndiike","Affordance Norms_Prolific",1,40,"2023-02-01T22:02:04+00:00",14.518821001053,59,"updated stim.csv","Version59.csv","Version 59","List 59","runner",NA,1768,4.608695652,2207,0.70961419,1769,"BOI","-","-","Please name all of the ways you could use this object. Keep in mind that one object can have many uses. Separate your responses with a comma.",NA,"y",13935,NA,NA,2651,13676,NA,NA,NA,"follow, trip up, admire, give a drink to",1
"5c0ca233632102000147c7db","rm3mhrm9qj","Affordance Norms_Prolific",1,11,"2023-02-04T21:53:36+00:00",6.484757900238,79,"updated stim.csv","Version79.csv","Version 79","List 79","saw",NA,2348,4.76,2253,0.618102518,2349,"BOI","-","-","Please name all of the ways you could use this object. Keep in mind that one object can have many uses. Separate your responses with a comma.",NA,"y",5699,NA,NA,2714,4329,NA,NA,NA,"to saw things",1
"5c0ca233632102000147c7db","rm3mhrm9qj","Affordance Norms_Prolific",1,12,"2023-02-04T21:53:43+00:00",7.6580560207367,79,"updated stim.csv","Version79.csv","Version 79","List 79","deer",NA,2366,4.416666667,765,0.832559416,2367,"BOI","-","-","Please name all of the ways you could use this object. Keep in mind that one object can have many uses. Separate your responses with a comma.",NA,"y",6840,NA,NA,5405,5525,NA,NA,NA,"eh",1
"5c0ca233632102000147c7db","rm3mhrm9qj","Affordance Norms_Prolific",1,13,"2023-02-04T21:53:48+00:00",4.5843980312347,79,"updated stim.csv","Version79.csv","Version 79","List 79","jewelry",NA,2350,6.576923077,1386,0.713923994,2351,"BOI","-","-","Please name all of the ways you could use this object. Keep in mind that one object can have many uses. Separate your responses with a comma.",NA,"y",4065,NA,NA,1598,2582,NA,NA,NA,"wear it",1
"5c0ca233632102000147c7db","rm3mhrm9qj","Affordance Norms_Prolific",1,14,"2023-02-04T21:53:53+00:00",4.5182349681854,79,"updated stim.csv","Version79.csv","Version 79","List 79","barbecue",NA,2343,4.833333333,146,0.033897424,2344,"BOI","-","-","Please name all of the ways you could use this object. Keep in mind that one object can have many uses. Separate your responses with a comma.",NA,"y",4006,NA,NA,2180,2539,NA,NA,NA,"cook",1
"5c0ca233632102000147c7db","rm3mhrm9qj","Affordance Norms_Prolific",1,15,"2023-02-04T21:53:56+00:00",3.1374821662903,79,"updated stim.csv","Version79.csv","Version 79","List 79","doorman",NA,2349,4.68,826,0.616558737,2350,"BOI","-","-","Please name all of the ways you could use this object. Keep in mind that one object can have many uses. Separate your responses with a comma.",NA,"y",2623,NA,NA,2285,2357,NA,NA,NA,"ok",1
