"Username","ID","ExperimentName","Session","Trial","Date","TimeDif","Condition.Number","Stimuli.File","Order.File","Condition.Description","Condition.Notes","Stimuli.Cue","Stimuli.Answer","Stimuli.Shuffle","Stimuli.Stimuli.Notes","Stimuli.Value","Stimuli.Rand","Procedure.Item","Procedure.Trial.Type","Procedure.Max.Time","Procedure.Min.Time","Procedure.Text","Procedure.Procedure.Notes","Procedure.Shuffle","Response.RT","Response.Response","Response.Accuracy","Response.RTfirst","Response.RTlast","Response.strictAcc","Response.lenientAcc","Response.focus","Response.JOL","Response.Focus"
"5642444817bdbe00062a1129","vyzcqauv9h","Affordance Norms_Prolific",1,11,"2023-07-28T14:29:29+00:00",9.9394538402557,1,"updated stim.csv","Version1.csv","Version 1","List 1","plaintiff",NA,13,4.444444444,1011,0.860315666,14,"BOI","-","-","Please name all of the ways you could use this object. Keep in mind that one object can have many uses. Separate your responses with a comma.",NA,"y",9472,NA,NA,3282,6872,NA,NA,NA,"talk to",1
"5642444817bdbe00062a1129","vyzcqauv9h","Affordance Norms_Prolific",1,12,"2023-07-28T14:29:48+00:00",19.323817968369,1,"updated stim.csv","Version1.csv","Version 1","List 1","dude",NA,4,5.416666667,1464,0.391267155,5,"BOI","-","-","Please name all of the ways you could use this object. Keep in mind that one object can have many uses. Separate your responses with a comma.",NA,"y",18897,NA,NA,5658,18533,NA,NA,NA,"be friends with, piggyback, company",1
"5642444817bdbe00062a1129","vyzcqauv9h","Affordance Norms_Prolific",1,13,"2023-07-28T14:30:03+00:00",14.383112192154,1,"updated stim.csv","Version1.csv","Version 1","List 1","tonic",NA,27,5.434782609,1877,0.096670334,28,"BOI","-","-","Please name all of the ways you could use this object. Keep in mind that one object can have many uses. Separate your responses with a comma.",NA,"y",13954,NA,NA,1983,5582,NA,NA,NA,"drink, put out fire",1
"5642444817bdbe00062a1129","vyzcqauv9h","Affordance Norms_Prolific",1,14,"2023-07-28T14:30:20+00:00",17.539431810379,1,"updated stim.csv","Version1.csv","Version 1","List 1","bully",NA,20,5.458333333,2953,0.249710528,21,"BOI","-","-","Please name all of the ways you could use this object. Keep in mind that one object can have many uses. Separate your responses with a comma.",NA,"y",17122,NA,NA,5794,16391,NA,NA,NA,"fight, talk to, fight for you",1
"5642444817bdbe00062a1129","vyzcqauv9h","Affordance Norms_Prolific",1,15,"2023-07-28T14:30:50+00:00",29.353753089905,1,"updated stim.csv","Version1.csv","Version 1","List 1","tiller",NA,9,4.875,2448,0.423270691,10,"BOI","-","-","Please name all of the ways you could use this object. Keep in mind that one object can have many uses. Separate your responses with a comma.",NA,"y",28917,NA,NA,18793,28367,NA,NA,NA,"cultivate land, attack people, create art",1
"5642444817bdbe00062a1129","vyzcqauv9h","Affordance Norms_Prolific",1,16,"2023-07-28T14:31:04+00:00",14.871651887894,1,"updated stim.csv","Version1.csv","Version 1","List 1","taxpayer",NA,29,5.88,1967,0.018459114,30,"BOI","-","-","Please name all of the ways you could use this object. Keep in mind that one object can have many uses. Separate your responses with a comma.",NA,"y",14455,NA,NA,5368,14365,NA,NA,NA,"talk to, get taxes from, discuss tax reform with",1
"5642444817bdbe00062a1129","vyzcqauv9h","Affordance Norms_Prolific",1,17,"2023-07-28T14:31:32+00:00",27.098449230194,1,"updated stim.csv","Version1.csv","Version 1","List 1","crotch",NA,14,4.958333333,2722,0.368202979,15,"BOI","-","-","Please name all of the ways you could use this object. Keep in mind that one object can have many uses. Separate your responses with a comma.",NA,"y",26668,NA,NA,2682,5739,NA,NA,NA,"store things",1
"5642444817bdbe00062a1129","vyzcqauv9h","Affordance Norms_Prolific",1,18,"2023-07-28T14:31:44+00:00",11.98700094223,1,"updated stim.csv","Version1.csv","Version 1","List 1","boa",NA,21,4.4,243,0.879020377,22,"BOI","-","-","Please name all of the ways you could use this object. Keep in mind that one object can have many uses. Separate your responses with a comma.",NA,"y",8031,NA,NA,2220,7573,NA,NA,NA,"strangle, eat, attack, skin",1
"5642444817bdbe00062a1129","vyzcqauv9h","Affordance Norms_Prolific",1,19,"2023-07-28T14:32:02+00:00",18.204946994781,1,"updated stim.csv","Version1.csv","Version 1","List 1","morsel",NA,15,4.666666667,1168,0.129741388,16,"BOI","-","-","Please name all of the ways you could use this object. Keep in mind that one object can have many uses. Separate your responses with a comma.",NA,"y",17776,NA,NA,10602,17321,NA,NA,NA,"eat, gift, bribe, burn",1
"5642444817bdbe00062a1129","vyzcqauv9h","Affordance Norms_Prolific",1,20,"2023-07-28T14:32:16+00:00",14.023237943649,1,"updated stim.csv","Version1.csv","Version 1","List 1","apparatus",NA,1,4.538461538,764,0.261476603,2,"BOI","-","-","Please name all of the ways you could use this object. Keep in mind that one object can have many uses. Separate your responses with a comma.",NA,"y",13571,NA,NA,3367,13479,NA,NA,NA,"measure, calculate, destroy, build",1
"5642444817bdbe00062a1129","vyzcqauv9h","Affordance Norms_Prolific",1,21,"2023-07-28T14:32:41+00:00",25.676320075989,1,"updated stim.csv","Version1.csv","Version 1","List 1","meadow",NA,30,5.64,2491,0.148115672,31,"BOI","-","-","Please name all of the ways you could use this object. Keep in mind that one object can have many uses. Separate your responses with a comma.",NA,"y",25249,NA,NA,6021,25064,NA,NA,NA,"farm, run around in, plant seeds, plant trees, car park, build houses",1
"5642444817bdbe00062a1129","vyzcqauv9h","Affordance Norms_Prolific",1,22,"2023-07-28T14:32:56+00:00",14.330431938171,1,"updated stim.csv","Version1.csv","Version 1","List 1","burlap",NA,10,6.25,323,0.73335018,11,"BOI","-","-","Please name all of the ways you could use this object. Keep in mind that one object can have many uses. Separate your responses with a comma.",NA,"y",13903,NA,NA,7474,12911,NA,NA,NA,"turn into bag, burn for heat, burn for light",1
"5642444817bdbe00062a1129","vyzcqauv9h","Affordance Norms_Prolific",1,23,"2023-07-28T14:33:20+00:00",23.94465303421,1,"updated stim.csv","Version1.csv","Version 1","List 1","pigtail",NA,5,5.833333333,1647,0.48521541,6,"BOI","-","-","Please name all of the ways you could use this object. Keep in mind that one object can have many uses. Separate your responses with a comma.",NA,"y",21635,NA,NA,3784,20811,NA,NA,NA,"tie into knots, dye ",1
"5642444817bdbe00062a1129","vyzcqauv9h","Affordance Norms_Prolific",1,24,"2023-07-28T14:33:49+00:00",29.097862005234,1,"updated stim.csv","Version1.csv","Version 1","List 1","tampon",NA,2,6.416666667,2301,0.945985105,3,"BOI","-","-","Please name all of the ways you could use this object. Keep in mind that one object can have many uses. Separate your responses with a comma.",NA,"y",28669,NA,NA,13075,26997,NA,NA,NA,"absorb liquid, stop bleeding, block gap",1
"5642444817bdbe00062a1129","vyzcqauv9h","Affordance Norms_Prolific",1,25,"2023-07-28T14:34:04+00:00",14.744991064072,1,"updated stim.csv","Version1.csv","Version 1","List 1","panhandler",NA,12,5.777777778,2235,0.168486135,13,"BOI","-","-","Please name all of the ways you could use this object. Keep in mind that one object can have many uses. Separate your responses with a comma.",NA,"y",14297,NA,NA,2963,14207,NA,NA,NA,"pan for gold, sift through dirt, clean water",1
"5642444817bdbe00062a1129","vyzcqauv9h","Affordance Norms_Prolific",1,26,"2023-07-28T14:34:11+00:00",6.9262988567352,1,"updated stim.csv","Version1.csv","Version 1","List 1","virgin",NA,17,5.481481481,1600,0.476399064,18,"BOI","-","-","Please name all of the ways you could use this object. Keep in mind that one object can have many uses. Separate your responses with a comma.",NA,"y",6488,NA,NA,3808,5418,NA,NA,NA,"talk to",1
"5642444817bdbe00062a1129","vyzcqauv9h","Affordance Norms_Prolific",1,27,"2023-07-28T14:34:24+00:00",13.784919977188,1,"updated stim.csv","Version1.csv","Version 1","List 1","amulet",NA,19,5.227272727,1241,0.629851612,20,"BOI","-","-","Please name all of the ways you could use this object. Keep in mind that one object can have many uses. Separate your responses with a comma.",NA,"y",13306,NA,NA,10949,13154,NA,NA,NA,"wear, melt, sell",1
"5642444817bdbe00062a1129","vyzcqauv9h","Affordance Norms_Prolific",1,28,"2023-07-28T14:34:28+00:00",4.1908609867096,1,"updated stim.csv","Version1.csv","Version 1","List 1","loaf",NA,11,5.92,2708,0.629763414,12,"BOI","-","-","Please name all of the ways you could use this object. Keep in mind that one object can have many uses. Separate your responses with a comma.",NA,"y",3769,NA,NA,1305,3291,NA,NA,NA,"eat, cut, burn",1
"5642444817bdbe00062a1129","vyzcqauv9h","Affordance Norms_Prolific",1,29,"2023-07-28T14:34:40+00:00",11.262371063232,1,"updated stim.csv","Version1.csv","Version 1","List 1","hailstone",NA,16,5.565217391,1319,0.287274537,17,"BOI","-","-","Please name all of the ways you could use this object. Keep in mind that one object can have many uses. Separate your responses with a comma.",NA,"y",10839,NA,NA,6192,10282,NA,NA,NA,"throw, melt, suck on, chew",1
"5642444817bdbe00062a1129","vyzcqauv9h","Affordance Norms_Prolific",1,30,"2023-07-28T14:36:44+00:00",123.8365790844,1,"updated stim.csv","Version1.csv","Version 1","List 1","ski",NA,18,4.666666667,1815,0.413937663,19,"BOI","-","-","Please name all of the ways you could use this object. Keep in mind that one object can have many uses. Separate your responses with a comma.",NA,"y",120572,NA,NA,112438,118660,NA,NA,NA,"ski on, dig, cut, weapon, melt",0.511
"5642444817bdbe00062a1129","vyzcqauv9h","Affordance Norms_Prolific",1,31,"2023-07-28T14:36:54+00:00",10.627952814102,1,"updated stim.csv","Version1.csv","Version 1","List 1","mitt",NA,22,4.826086957,1618,0.113902737,23,"BOI","-","-","Please name all of the ways you could use this object. Keep in mind that one object can have many uses. Separate your responses with a comma.",NA,"y",10199,NA,NA,3294,8769,NA,NA,NA,"wear, warm, store water",1
"5642444817bdbe00062a1129","vyzcqauv9h","Affordance Norms_Prolific",1,32,"2023-07-28T14:41:11+00:00",256.32703399658,1,"updated stim.csv","Version1.csv","Version 1","List 1","fauna",NA,25,4.333333333,252,0.347548191,26,"BOI","-","-","Please name all of the ways you could use this object. Keep in mind that one object can have many uses. Separate your responses with a comma.",NA,"y",255535,NA,NA,251207,255308,NA,NA,NA,"smell, cook, burn, farm",1
"5642444817bdbe00062a1129","vyzcqauv9h","Affordance Norms_Prolific",1,33,"2023-07-28T14:41:26+00:00",15.558449029922,1,"updated stim.csv","Version1.csv","Version 1","List 1","granite",NA,26,4.727272727,2510,0.797812576,27,"BOI","-","-","Please name all of the ways you could use this object. Keep in mind that one object can have many uses. Separate your responses with a comma.",NA,"y",15126,NA,NA,2608,13951,NA,NA,NA,"smash, build, weapon, walk, climb",1
"5642444817bdbe00062a1129","vyzcqauv9h","Affordance Norms_Prolific",1,34,"2023-07-28T14:41:35+00:00",8.958878993988,1,"updated stim.csv","Version1.csv","Version 1","List 1","nylon",NA,6,4.375,1389,0.172930083,7,"BOI","-","-","Please name all of the ways you could use this object. Keep in mind that one object can have many uses. Separate your responses with a comma.",NA,"y",8516,NA,NA,1813,8306,NA,NA,NA,"knit, burn, wear, tie",1
"5642444817bdbe00062a1129","vyzcqauv9h","Affordance Norms_Prolific",1,35,"2023-07-28T14:42:40+00:00",65.238245010376,1,"updated stim.csv","Version1.csv","Version 1","List 1","trench",NA,28,5.142857143,2618,0.332046282,29,"BOI","-","-","Please name all of the ways you could use this object. Keep in mind that one object can have many uses. Separate your responses with a comma.",NA,"y",64453,NA,NA,9862,61928,NA,NA,NA,"fill with water, walk in, trap people",1
"5642444817bdbe00062a1129","vyzcqauv9h","Affordance Norms_Prolific",1,36,"2023-07-28T14:43:20+00:00",39.5779941082,1,"updated stim.csv","Version1.csv","Version 1","List 1","dye",NA,23,4.84,1448,0.448711971,24,"BOI","-","-","Please name all of the ways you could use this object. Keep in mind that one object can have many uses. Separate your responses with a comma.",NA,"y",39024,NA,NA,32531,38908,NA,NA,NA,"dye clothes, colour water, make signs",1
"5642444817bdbe00062a1129","vyzcqauv9h","Affordance Norms_Prolific",1,37,"2023-07-28T14:43:39+00:00",19.333433866501,1,"updated stim.csv","Version1.csv","Version 1","List 1","smock",NA,3,5.76,1666,0.330502966,4,"BOI","-","-","Please name all of the ways you could use this object. Keep in mind that one object can have many uses. Separate your responses with a comma.",NA,"y",18854,NA,NA,1818,18712,NA,NA,NA,"wear, burn for fuel, carry objects in, hide, cover a fire",1
"5642444817bdbe00062a1129","vyzcqauv9h","Affordance Norms_Prolific",1,38,"2023-07-28T14:44:01+00:00",21.851150035858,1,"updated stim.csv","Version1.csv","Version 1","List 1","defendant",NA,24,5.347826087,469,0.48837589,25,"BOI","-","-","Please name all of the ways you could use this object. Keep in mind that one object can have many uses. Separate your responses with a comma.",NA,"y",21389,NA,NA,20514,21190,NA,NA,NA,"talk to",1
"5642444817bdbe00062a1129","vyzcqauv9h","Affordance Norms_Prolific",1,39,"2023-07-28T14:44:26+00:00",24.820848941803,1,"updated stim.csv","Version1.csv","Version 1","List 1","hinge",NA,7,6.230769231,308,0.981109369,8,"BOI","-","-","Please name all of the ways you could use this object. Keep in mind that one object can have many uses. Separate your responses with a comma.",NA,"y",24348,NA,NA,3187,24230,NA,NA,NA,"use for doors, weapon, cut, spark for fire",1
"5642444817bdbe00062a1129","vyzcqauv9h","Affordance Norms_Prolific",1,40,"2023-07-28T14:44:37+00:00",11.204993009567,1,"updated stim.csv","Version1.csv","Version 1","List 1","crossbar",NA,8,5.454545455,1935,0.125396232,9,"BOI","-","-","Please name all of the ways you could use this object. Keep in mind that one object can have many uses. Separate your responses with a comma.",NA,"y",10776,NA,NA,1703,10609,NA,NA,NA,"pry things open, stab things, break things, lock things",1
"5995889da2bbe000018833d9","56lpzofy0q","Affordance Norms_Prolific",1,11,"2023-07-28T14:27:46+00:00",14.568192005157,1,"updated stim.csv","Version1.csv","Version 1","List 1","smock",NA,3,5.76,1666,0.330502966,4,"BOI","-","-","Please name all of the ways you could use this object. Keep in mind that one object can have many uses. Separate your responses with a comma.",NA,"y",13892,NA,NA,2156,13609,NA,NA,NA,"dress, body cover, protection, ",1
"5995889da2bbe000018833d9","56lpzofy0q","Affordance Norms_Prolific",1,12,"2023-07-28T14:28:03+00:00",17.389128923416,1,"updated stim.csv","Version1.csv","Version 1","List 1","loaf",NA,11,5.92,2708,0.629763414,12,"BOI","-","-","Please name all of the ways you could use this object. Keep in mind that one object can have many uses. Separate your responses with a comma.",NA,"y",16726,NA,NA,3628,5595,NA,NA,NA,"eat, bake, ",1
"5995889da2bbe000018833d9","56lpzofy0q","Affordance Norms_Prolific",1,13,"2023-07-28T14:28:28+00:00",25.181819915771,1,"updated stim.csv","Version1.csv","Version 1","List 1","hinge",NA,7,6.230769231,308,0.981109369,8,"BOI","-","-","Please name all of the ways you could use this object. Keep in mind that one object can have many uses. Separate your responses with a comma.",NA,"y",21467,NA,NA,3510,20763,NA,NA,NA,"hold door on frame, dating site, hang something",1
"5995889da2bbe000018833d9","56lpzofy0q","Affordance Norms_Prolific",1,14,"2023-07-28T14:29:11+00:00",43.064686059952,1,"updated stim.csv","Version1.csv","Version 1","List 1","ski",NA,18,4.666666667,1815,0.413937663,19,"BOI","-","-","Please name all of the ways you could use this object. Keep in mind that one object can have many uses. Separate your responses with a comma.",NA,"y",41914,NA,NA,5293,41295,NA,NA,NA,"mountain, olympics, holiday, han gon wall ",1
"5995889da2bbe000018833d9","56lpzofy0q","Affordance Norms_Prolific",1,15,"2023-07-28T14:29:38+00:00",27.094612121582,1,"updated stim.csv","Version1.csv","Version 1","List 1","granite",NA,26,4.727272727,2510,0.797812576,27,"BOI","-","-","Please name all of the ways you could use this object. Keep in mind that one object can have many uses. Separate your responses with a comma.",NA,"y",26400,NA,NA,2737,26120,NA,NA,NA,"work service, jewellery, building blocks, saucepans ",1
"5995889da2bbe000018833d9","56lpzofy0q","Affordance Norms_Prolific",1,16,"2023-07-28T14:29:54+00:00",15.563560962677,1,"updated stim.csv","Version1.csv","Version 1","List 1","amulet",NA,19,5.227272727,1241,0.629851612,20,"BOI","-","-","Please name all of the ways you could use this object. Keep in mind that one object can have many uses. Separate your responses with a comma.",NA,"y",14863,NA,NA,2174,11884,NA,NA,NA,"jewellery, picture, holder, ",1
"5995889da2bbe000018833d9","56lpzofy0q","Affordance Norms_Prolific",1,17,"2023-07-28T14:30:12+00:00",17.710959911346,1,"updated stim.csv","Version1.csv","Version 1","List 1","dye",NA,23,4.84,1448,0.448711971,24,"BOI","-","-","Please name all of the ways you could use this object. Keep in mind that one object can have many uses. Separate your responses with a comma.",NA,"y",16993,NA,NA,1764,16569,NA,NA,NA,"change colour, clothes, food, hair, skin ",1
"5995889da2bbe000018833d9","56lpzofy0q","Affordance Norms_Prolific",1,18,"2023-07-28T14:30:21+00:00",9.731703042984,1,"updated stim.csv","Version1.csv","Version 1","List 1","burlap",NA,10,6.25,323,0.73335018,11,"BOI","-","-","Please name all of the ways you could use this object. Keep in mind that one object can have many uses. Separate your responses with a comma.",NA,"y",8900,NA,NA,4507,8736,NA,NA,NA,"not sure what this is ",1
"5995889da2bbe000018833d9","56lpzofy0q","Affordance Norms_Prolific",1,19,"2023-07-28T14:30:44+00:00",22.139518976212,1,"updated stim.csv","Version1.csv","Version 1","List 1","bully",NA,20,5.458333333,2953,0.249710528,21,"BOI","-","-","Please name all of the ways you could use this object. Keep in mind that one object can have many uses. Separate your responses with a comma.",NA,"y",21611,NA,NA,1779,21349,NA,NA,NA,"mean, harmful, hurtful, nasty, child, adult, ",1
"5995889da2bbe000018833d9","56lpzofy0q","Affordance Norms_Prolific",1,20,"2023-07-28T14:31:16+00:00",32.81077003479,1,"updated stim.csv","Version1.csv","Version 1","List 1","apparatus",NA,1,4.538461538,764,0.261476603,2,"BOI","-","-","Please name all of the ways you could use this object. Keep in mind that one object can have many uses. Separate your responses with a comma.",NA,"y",32156,NA,NA,2964,30891,NA,NA,NA,"cooking, climbing, drawing, reading, writing, ",1
"5995889da2bbe000018833d9","56lpzofy0q","Affordance Norms_Prolific",1,21,"2023-07-28T14:31:32+00:00",15.194979906082,1,"updated stim.csv","Version1.csv","Version 1","List 1","boa",NA,21,4.4,243,0.879020377,22,"BOI","-","-","Please name all of the ways you could use this object. Keep in mind that one object can have many uses. Separate your responses with a comma.",NA,"y",14480,NA,NA,2792,14317,NA,NA,NA,"dangerous, snake, strangler, ",1
"5995889da2bbe000018833d9","56lpzofy0q","Affordance Norms_Prolific",1,22,"2023-07-28T14:31:51+00:00",19.154067993164,1,"updated stim.csv","Version1.csv","Version 1","List 1","panhandler",NA,12,5.777777778,2235,0.168486135,13,"BOI","-","-","Please name all of the ways you could use this object. Keep in mind that one object can have many uses. Separate your responses with a comma.",NA,"y",18518,NA,NA,2791,18019,NA,NA,NA,"sausce pan, cook, sous chef, dish washer ",1
"5995889da2bbe000018833d9","56lpzofy0q","Affordance Norms_Prolific",1,23,"2023-07-28T14:32:19+00:00",28.41091299057,1,"updated stim.csv","Version1.csv","Version 1","List 1","dude",NA,4,5.416666667,1464,0.391267155,5,"BOI","-","-","Please name all of the ways you could use this object. Keep in mind that one object can have many uses. Separate your responses with a comma.",NA,"y",27749,NA,NA,1504,27510,NA,NA,NA,"male, boy, adult, child, teenager, schhol kid, surfer, football player ",1
"5995889da2bbe000018833d9","56lpzofy0q","Affordance Norms_Prolific",1,24,"2023-07-28T14:32:44+00:00",24.975516080856,1,"updated stim.csv","Version1.csv","Version 1","List 1","trench",NA,28,5.142857143,2618,0.332046282,29,"BOI","-","-","Please name all of the ways you could use this object. Keep in mind that one object can have many uses. Separate your responses with a comma.",NA,"y",24339,NA,NA,4230,23100,NA,NA,NA,"protection, muddy, dug out, shelter, ",1
"5995889da2bbe000018833d9","56lpzofy0q","Affordance Norms_Prolific",1,25,"2023-07-28T14:33:11+00:00",26.997128009796,1,"updated stim.csv","Version1.csv","Version 1","List 1","tonic",NA,27,5.434782609,1877,0.096670334,28,"BOI","-","-","Please name all of the ways you could use this object. Keep in mind that one object can have many uses. Separate your responses with a comma.",NA,"y",26069,NA,NA,2517,25644,NA,NA,NA,"mixter, gin, lemon, baking, cooking ",1
"5995889da2bbe000018833d9","56lpzofy0q","Affordance Norms_Prolific",1,26,"2023-07-28T14:33:24+00:00",13.30611205101,1,"updated stim.csv","Version1.csv","Version 1","List 1","morsel",NA,15,4.666666667,1168,0.129741388,16,"BOI","-","-","Please name all of the ways you could use this object. Keep in mind that one object can have many uses. Separate your responses with a comma.",NA,"y",12561,NA,NA,2652,12329,NA,NA,NA,"mouthful, small bite, small portion ",1
"5995889da2bbe000018833d9","56lpzofy0q","Affordance Norms_Prolific",1,27,"2023-07-28T14:33:28+00:00",4.0125479698181,1,"updated stim.csv","Version1.csv","Version 1","List 1","fauna",NA,25,4.333333333,252,0.347548191,26,"BOI","-","-","Please name all of the ways you could use this object. Keep in mind that one object can have many uses. Separate your responses with a comma.",NA,"y",3188,NA,NA,1391,2730,NA,NA,NA,"not sure ",1
"5995889da2bbe000018833d9","56lpzofy0q","Affordance Norms_Prolific",1,28,"2023-07-28T14:33:42+00:00",13.690119028091,1,"updated stim.csv","Version1.csv","Version 1","List 1","tampon",NA,2,6.416666667,2301,0.945985105,3,"BOI","-","-","Please name all of the ways you could use this object. Keep in mind that one object can have many uses. Separate your responses with a comma.",NA,"y",12998,NA,NA,2165,12814,NA,NA,NA,"period, female, monthly, protection, bleeding ",1
"5995889da2bbe000018833d9","56lpzofy0q","Affordance Norms_Prolific",1,29,"2023-07-28T14:33:59+00:00",16.715260028839,1,"updated stim.csv","Version1.csv","Version 1","List 1","hailstone",NA,16,5.565217391,1319,0.287274537,17,"BOI","-","-","Please name all of the ways you could use this object. Keep in mind that one object can have many uses. Separate your responses with a comma.",NA,"y",15961,NA,NA,3038,15671,NA,NA,NA,"rain, sleet, hard, ice, cold, wet ",1
"5995889da2bbe000018833d9","56lpzofy0q","Affordance Norms_Prolific",1,30,"2023-07-28T14:34:10+00:00",11.466897010803,1,"updated stim.csv","Version1.csv","Version 1","List 1","crossbar",NA,8,5.454545455,1935,0.125396232,9,"BOI","-","-","Please name all of the ways you could use this object. Keep in mind that one object can have many uses. Separate your responses with a comma.",NA,"y",10803,NA,NA,6122,10108,NA,NA,NA,"protection ",1
"5995889da2bbe000018833d9","56lpzofy0q","Affordance Norms_Prolific",1,31,"2023-07-28T14:34:25+00:00",14.329654932022,1,"updated stim.csv","Version1.csv","Version 1","List 1","mitt",NA,22,4.826086957,1618,0.113902737,23,"BOI","-","-","Please name all of the ways you could use this object. Keep in mind that one object can have many uses. Separate your responses with a comma.",NA,"y",13658,NA,NA,2643,10777,NA,NA,NA,"protection, cold, hot oven, hands, ",1
"5995889da2bbe000018833d9","56lpzofy0q","Affordance Norms_Prolific",1,32,"2023-07-28T14:34:42+00:00",17.609065055847,1,"updated stim.csv","Version1.csv","Version 1","List 1","nylon",NA,6,4.375,1389,0.172930083,7,"BOI","-","-","Please name all of the ways you could use this object. Keep in mind that one object can have many uses. Separate your responses with a comma.",NA,"y",16846,NA,NA,1610,14615,NA,NA,NA,"clothing, blanket, rug, shoes, ",1
"5995889da2bbe000018833d9","56lpzofy0q","Affordance Norms_Prolific",1,33,"2023-07-28T14:35:01+00:00",18.75485086441,1,"updated stim.csv","Version1.csv","Version 1","List 1","meadow",NA,30,5.64,2491,0.148115672,31,"BOI","-","-","Please name all of the ways you could use this object. Keep in mind that one object can have many uses. Separate your responses with a comma.",NA,"y",17225,NA,NA,1454,11673,NA,NA,NA,"grass, flowers, nature, peaceful, bugs, ",1
"5995889da2bbe000018833d9","56lpzofy0q","Affordance Norms_Prolific",1,34,"2023-07-28T14:35:23+00:00",22.106340169907,1,"updated stim.csv","Version1.csv","Version 1","List 1","crotch",NA,14,4.958333333,2722,0.368202979,15,"BOI","-","-","Please name all of the ways you could use this object. Keep in mind that one object can have many uses. Separate your responses with a comma.",NA,"y",21353,NA,NA,5170,17593,NA,NA,NA,"penis, vagina, male, female, intimate area, ",1
"5995889da2bbe000018833d9","56lpzofy0q","Affordance Norms_Prolific",1,35,"2023-07-28T14:35:42+00:00",18.736687898636,1,"updated stim.csv","Version1.csv","Version 1","List 1","defendant",NA,24,5.347826087,469,0.48837589,25,"BOI","-","-","Please name all of the ways you could use this object. Keep in mind that one object can have many uses. Separate your responses with a comma.",NA,"y",18012,NA,NA,11232,17727,NA,NA,NA,"law, courtroom, human ",1
"5995889da2bbe000018833d9","56lpzofy0q","Affordance Norms_Prolific",1,36,"2023-07-28T14:35:53+00:00",11.46191906929,1,"updated stim.csv","Version1.csv","Version 1","List 1","virgin",NA,17,5.481481481,1600,0.476399064,18,"BOI","-","-","Please name all of the ways you could use this object. Keep in mind that one object can have many uses. Separate your responses with a comma.",NA,"y",10852,NA,NA,5832,10010,NA,NA,NA,"male, female, no sex.",1
"5995889da2bbe000018833d9","56lpzofy0q","Affordance Norms_Prolific",1,37,"2023-07-28T14:35:57+00:00",3.8114929199219,1,"updated stim.csv","Version1.csv","Version 1","List 1","tiller",NA,9,4.875,2448,0.423270691,10,"BOI","-","-","Please name all of the ways you could use this object. Keep in mind that one object can have many uses. Separate your responses with a comma.",NA,"y",3350,NA,NA,1862,2840,NA,NA,NA,"not sure ",1
"5995889da2bbe000018833d9","56lpzofy0q","Affordance Norms_Prolific",1,38,"2023-07-28T14:36:18+00:00",20.798438072205,1,"updated stim.csv","Version1.csv","Version 1","List 1","pigtail",NA,5,5.833333333,1647,0.48521541,6,"BOI","-","-","Please name all of the ways you could use this object. Keep in mind that one object can have many uses. Separate your responses with a comma.",NA,"y",20024,NA,NA,3961,19750,NA,NA,NA,"pig, food ",1
"5995889da2bbe000018833d9","56lpzofy0q","Affordance Norms_Prolific",1,39,"2023-07-28T14:36:51+00:00",32.741035938263,1,"updated stim.csv","Version1.csv","Version 1","List 1","taxpayer",NA,29,5.88,1967,0.018459114,30,"BOI","-","-","Please name all of the ways you could use this object. Keep in mind that one object can have many uses. Separate your responses with a comma.",NA,"y",31972,NA,NA,8538,31105,NA,NA,NA,"male, female, post 16, high earner, ",1
"5995889da2bbe000018833d9","56lpzofy0q","Affordance Norms_Prolific",1,40,"2023-07-28T14:37:08+00:00",17.446604967117,1,"updated stim.csv","Version1.csv","Version 1","List 1","plaintiff",NA,13,4.444444444,1011,0.860315666,14,"BOI","-","-","Please name all of the ways you could use this object. Keep in mind that one object can have many uses. Separate your responses with a comma.",NA,"y",15517,NA,NA,6556,15064,NA,NA,NA,"law, court, human, man, woman ",1
"59f0eda5e75b450001a699a7","9wy86xqubh","Affordance Norms_Prolific",1,11,"2023-07-28T14:27:05+00:00",32.572802066803,1,"updated stim.csv","Version1.csv","Version 1","List 1","amulet",NA,19,5.227272727,1241,0.629851612,20,"BOI","-","-","Please name all of the ways you could use this object. Keep in mind that one object can have many uses. Separate your responses with a comma.",NA,"y",28601,NA,NA,21297,27249,NA,NA,NA,"wear as necklace, keep as memory",1
"59f0eda5e75b450001a699a7","9wy86xqubh","Affordance Norms_Prolific",1,12,"2023-07-28T14:27:20+00:00",14.165035963058,1,"updated stim.csv","Version1.csv","Version 1","List 1","apparatus",NA,1,4.538461538,764,0.261476603,2,"BOI","-","-","Please name all of the ways you could use this object. Keep in mind that one object can have many uses. Separate your responses with a comma.",NA,"y",13521,NA,NA,2577,12240,NA,NA,NA,"making something, doing an experiment",1
"59f0eda5e75b450001a699a7","9wy86xqubh","Affordance Norms_Prolific",1,13,"2023-07-28T14:27:36+00:00",16.515780925751,1,"updated stim.csv","Version1.csv","Version 1","List 1","mitt",NA,22,4.826086957,1618,0.113902737,23,"BOI","-","-","Please name all of the ways you could use this object. Keep in mind that one object can have many uses. Separate your responses with a comma.",NA,"y",12020,NA,NA,2900,10252,NA,NA,NA,"keeping hand dry, keeping hand clean, washing",1
"59f0eda5e75b450001a699a7","9wy86xqubh","Affordance Norms_Prolific",1,14,"2023-07-28T14:27:44+00:00",8.0266091823578,1,"updated stim.csv","Version1.csv","Version 1","List 1","pigtail",NA,5,5.833333333,1647,0.48521541,6,"BOI","-","-","Please name all of the ways you could use this object. Keep in mind that one object can have many uses. Separate your responses with a comma.",NA,"y",7337,NA,NA,3480,6217,NA,NA,NA,"keeping hair neat",1
"59f0eda5e75b450001a699a7","9wy86xqubh","Affordance Norms_Prolific",1,15,"2023-07-28T14:28:04+00:00",19.901213884354,1,"updated stim.csv","Version1.csv","Version 1","List 1","morsel",NA,15,4.666666667,1168,0.129741388,16,"BOI","-","-","Please name all of the ways you could use this object. Keep in mind that one object can have many uses. Separate your responses with a comma.",NA,"y",19235,NA,NA,11494,13013,NA,NA,NA,"eating",1
"59f0eda5e75b450001a699a7","9wy86xqubh","Affordance Norms_Prolific",1,16,"2023-07-28T14:28:15+00:00",10.645929098129,1,"updated stim.csv","Version1.csv","Version 1","List 1","fauna",NA,25,4.333333333,252,0.347548191,26,"BOI","-","-","Please name all of the ways you could use this object. Keep in mind that one object can have many uses. Separate your responses with a comma.",NA,"y",9908,NA,NA,2459,8827,NA,NA,NA,"smelling, looking pretty, giving as gift",1
"59f0eda5e75b450001a699a7","9wy86xqubh","Affordance Norms_Prolific",1,17,"2023-07-28T14:28:35+00:00",20.752702951431,1,"updated stim.csv","Version1.csv","Version 1","List 1","virgin",NA,17,5.481481481,1600,0.476399064,18,"BOI","-","-","Please name all of the ways you could use this object. Keep in mind that one object can have many uses. Separate your responses with a comma.",NA,"y",18407,NA,NA,4439,17255,NA,NA,NA,"being used for the first time",1
"59f0eda5e75b450001a699a7","9wy86xqubh","Affordance Norms_Prolific",1,18,"2023-07-28T14:28:42+00:00",6.8792309761047,1,"updated stim.csv","Version1.csv","Version 1","List 1","dude",NA,4,5.416666667,1464,0.391267155,5,"BOI","-","-","Please name all of the ways you could use this object. Keep in mind that one object can have many uses. Separate your responses with a comma.",NA,"y",5593,NA,NA,3713,4769,NA,NA,NA,"surfing",1
"59f0eda5e75b450001a699a7","9wy86xqubh","Affordance Norms_Prolific",1,19,"2023-07-28T14:28:51+00:00",9.0982658863068,1,"updated stim.csv","Version1.csv","Version 1","List 1","boa",NA,21,4.4,243,0.879020377,22,"BOI","-","-","Please name all of the ways you could use this object. Keep in mind that one object can have many uses. Separate your responses with a comma.",NA,"y",7150,NA,NA,3014,5366,NA,NA,NA,"kept as pet",1
"59f0eda5e75b450001a699a7","9wy86xqubh","Affordance Norms_Prolific",1,20,"2023-07-28T14:29:06+00:00",14.412805080414,1,"updated stim.csv","Version1.csv","Version 1","List 1","loaf",NA,11,5.92,2708,0.629763414,12,"BOI","-","-","Please name all of the ways you could use this object. Keep in mind that one object can have many uses. Separate your responses with a comma.",NA,"y",12201,NA,NA,2770,9649,NA,NA,NA,"eating, baking, used as a weight",1
"59f0eda5e75b450001a699a7","9wy86xqubh","Affordance Norms_Prolific",1,21,"2023-07-28T14:29:37+00:00",30.793390989304,1,"updated stim.csv","Version1.csv","Version 1","List 1","smock",NA,3,5.76,1666,0.330502966,4,"BOI","-","-","Please name all of the ways you could use this object. Keep in mind that one object can have many uses. Separate your responses with a comma.",NA,"y",30130,NA,NA,19172,28554,NA,NA,NA,"protecting from dirt, protection from wet",1
"59f0eda5e75b450001a699a7","9wy86xqubh","Affordance Norms_Prolific",1,22,"2023-07-28T14:30:02+00:00",25.473037004471,1,"updated stim.csv","Version1.csv","Version 1","List 1","granite",NA,26,4.727272727,2510,0.797812576,27,"BOI","-","-","Please name all of the ways you could use this object. Keep in mind that one object can have many uses. Separate your responses with a comma.",NA,"y",24914,NA,NA,11442,21536,NA,NA,NA,"worktops, gravestones, flooring, paving",1
"59f0eda5e75b450001a699a7","9wy86xqubh","Affordance Norms_Prolific",1,23,"2023-07-28T14:30:20+00:00",17.499367952347,1,"updated stim.csv","Version1.csv","Version 1","List 1","crotch",NA,14,4.958333333,2722,0.368202979,15,"BOI","-","-","Please name all of the ways you could use this object. Keep in mind that one object can have many uses. Separate your responses with a comma.",NA,"y",16844,NA,NA,12406,15164,NA,NA,NA,"covering private area",1
"59f0eda5e75b450001a699a7","9wy86xqubh","Affordance Norms_Prolific",1,24,"2023-07-28T14:30:42+00:00",22.578794956207,1,"updated stim.csv","Version1.csv","Version 1","List 1","tiller",NA,9,4.875,2448,0.423270691,10,"BOI","-","-","Please name all of the ways you could use this object. Keep in mind that one object can have many uses. Separate your responses with a comma.",NA,"y",21904,NA,NA,9616,20712,NA,NA,NA,"break up hard ground, prepare plant beds",1
"59f0eda5e75b450001a699a7","9wy86xqubh","Affordance Norms_Prolific",1,25,"2023-07-28T14:30:59+00:00",16.381558179855,1,"updated stim.csv","Version1.csv","Version 1","List 1","tampon",NA,2,6.416666667,2301,0.945985105,3,"BOI","-","-","Please name all of the ways you could use this object. Keep in mind that one object can have many uses. Separate your responses with a comma.",NA,"y",15706,NA,NA,4402,15010,NA,NA,NA,"keeping blood in place, stop nose running",1
"59f0eda5e75b450001a699a7","9wy86xqubh","Affordance Norms_Prolific",1,26,"2023-07-28T14:31:42+00:00",43.273232936859,1,"updated stim.csv","Version1.csv","Version 1","List 1","tonic",NA,27,5.434782609,1877,0.096670334,28,"BOI","-","-","Please name all of the ways you could use this object. Keep in mind that one object can have many uses. Separate your responses with a comma.",NA,"y",40137,NA,NA,34260,38321,NA,NA,NA,"diluting a drink, drinking",0.653
"59f0eda5e75b450001a699a7","9wy86xqubh","Affordance Norms_Prolific",1,27,"2023-07-28T14:31:50+00:00",8.0007119178772,1,"updated stim.csv","Version1.csv","Version 1","List 1","nylon",NA,6,4.375,1389,0.172930083,7,"BOI","-","-","Please name all of the ways you could use this object. Keep in mind that one object can have many uses. Separate your responses with a comma.",NA,"y",7332,NA,NA,2195,6587,NA,NA,NA,"making clothes, making bedding",1
"59f0eda5e75b450001a699a7","9wy86xqubh","Affordance Norms_Prolific",1,28,"2023-07-28T14:32:17+00:00",27.57586312294,1,"updated stim.csv","Version1.csv","Version 1","List 1","hinge",NA,7,6.230769231,308,0.981109369,8,"BOI","-","-","Please name all of the ways you could use this object. Keep in mind that one object can have many uses. Separate your responses with a comma.",NA,"y",26891,NA,NA,23707,25411,NA,NA,NA,"opening a door",0.731
"59f0eda5e75b450001a699a7","9wy86xqubh","Affordance Norms_Prolific",1,29,"2023-07-28T14:32:36+00:00",18.585654973984,1,"updated stim.csv","Version1.csv","Version 1","List 1","hailstone",NA,16,5.565217391,1319,0.287274537,17,"BOI","-","-","Please name all of the ways you could use this object. Keep in mind that one object can have many uses. Separate your responses with a comma.",NA,"y",17899,NA,NA,13645,16154,NA,NA,NA,"dancing in them",1
"59f0eda5e75b450001a699a7","9wy86xqubh","Affordance Norms_Prolific",1,30,"2023-07-28T14:32:51+00:00",15.004785060883,1,"updated stim.csv","Version1.csv","Version 1","List 1","crossbar",NA,8,5.454545455,1935,0.125396232,9,"BOI","-","-","Please name all of the ways you could use this object. Keep in mind that one object can have many uses. Separate your responses with a comma.",NA,"y",14311,NA,NA,2423,13270,NA,NA,NA,"lifting as a weight, using to hold something down",1
"59f0eda5e75b450001a699a7","9wy86xqubh","Affordance Norms_Prolific",1,31,"2023-07-28T14:33:15+00:00",24.21457195282,1,"updated stim.csv","Version1.csv","Version 1","List 1","plaintiff",NA,13,4.444444444,1011,0.860315666,14,"BOI","-","-","Please name all of the ways you could use this object. Keep in mind that one object can have many uses. Separate your responses with a comma.",NA,"y",23543,NA,NA,19145,22302,NA,NA,NA,"help with legal things",1
"59f0eda5e75b450001a699a7","9wy86xqubh","Affordance Norms_Prolific",1,32,"2023-07-28T14:33:43+00:00",27.401046037674,1,"updated stim.csv","Version1.csv","Version 1","List 1","burlap",NA,10,6.25,323,0.73335018,11,"BOI","-","-","Please name all of the ways you could use this object. Keep in mind that one object can have many uses. Separate your responses with a comma.",NA,"y",26719,NA,NA,13041,25095,NA,NA,NA,"craft project, DIY projects, covers, sacks",1
"59f0eda5e75b450001a699a7","9wy86xqubh","Affordance Norms_Prolific",1,33,"2023-07-28T14:33:55+00:00",12.774013996124,1,"updated stim.csv","Version1.csv","Version 1","List 1","trench",NA,28,5.142857143,2618,0.332046282,29,"BOI","-","-","Please name all of the ways you could use this object. Keep in mind that one object can have many uses. Separate your responses with a comma.",NA,"y",12098,NA,NA,1843,11290,NA,NA,NA,"hiding in, playing in, hiding stuff, holding water",1
"59f0eda5e75b450001a699a7","9wy86xqubh","Affordance Norms_Prolific",1,34,"2023-07-28T14:34:26+00:00",30.884171962738,1,"updated stim.csv","Version1.csv","Version 1","List 1","panhandler",NA,12,5.777777778,2235,0.168486135,13,"BOI","-","-","Please name all of the ways you could use this object. Keep in mind that one object can have many uses. Separate your responses with a comma.",NA,"y",30230,NA,NA,25486,28590,NA,NA,NA,"getting your own way",1
"59f0eda5e75b450001a699a7","9wy86xqubh","Affordance Norms_Prolific",1,35,"2023-07-28T14:34:38+00:00",11.292727947235,1,"updated stim.csv","Version1.csv","Version 1","List 1","taxpayer",NA,29,5.88,1967,0.018459114,30,"BOI","-","-","Please name all of the ways you could use this object. Keep in mind that one object can have many uses. Separate your responses with a comma.",NA,"y",10628,NA,NA,2228,9875,NA,NA,NA,"making money, ripping off, paying off debt",1
"59f0eda5e75b450001a699a7","9wy86xqubh","Affordance Norms_Prolific",1,36,"2023-07-28T14:34:47+00:00",9.8855760097504,1,"updated stim.csv","Version1.csv","Version 1","List 1","dye",NA,23,4.84,1448,0.448711971,24,"BOI","-","-","Please name all of the ways you could use this object. Keep in mind that one object can have many uses. Separate your responses with a comma.",NA,"y",9230,NA,NA,2422,8382,NA,NA,NA,"dyeing clothes, dyeing hair",1
"59f0eda5e75b450001a699a7","9wy86xqubh","Affordance Norms_Prolific",1,37,"2023-07-28T14:35:01+00:00",13.449526071548,1,"updated stim.csv","Version1.csv","Version 1","List 1","bully",NA,20,5.458333333,2953,0.249710528,21,"BOI","-","-","Please name all of the ways you could use this object. Keep in mind that one object can have many uses. Separate your responses with a comma.",NA,"y",12040,NA,NA,2480,10472,NA,NA,NA,"for hurting people, upsetting people, scaring people",1
"59f0eda5e75b450001a699a7","9wy86xqubh","Affordance Norms_Prolific",1,38,"2023-07-28T14:35:24+00:00",23.3764128685,1,"updated stim.csv","Version1.csv","Version 1","List 1","defendant",NA,24,5.347826087,469,0.48837589,25,"BOI","-","-","Please name all of the ways you could use this object. Keep in mind that one object can have many uses. Separate your responses with a comma.",NA,"y",22701,NA,NA,14039,20845,NA,NA,NA,"to make someone look guilty",0.57
"59f0eda5e75b450001a699a7","9wy86xqubh","Affordance Norms_Prolific",1,39,"2023-07-28T14:35:40+00:00",15.83189201355,1,"updated stim.csv","Version1.csv","Version 1","List 1","ski",NA,18,4.666666667,1815,0.413937663,19,"BOI","-","-","Please name all of the ways you could use this object. Keep in mind that one object can have many uses. Separate your responses with a comma.",NA,"y",15148,NA,NA,2668,14132,NA,NA,NA,"to ski with, to hit with, to balance on, as a ruler",1
"59f0eda5e75b450001a699a7","9wy86xqubh","Affordance Norms_Prolific",1,40,"2023-07-28T14:35:47+00:00",6.9878261089325,1,"updated stim.csv","Version1.csv","Version 1","List 1","meadow",NA,30,5.64,2491,0.148115672,31,"BOI","-","-","Please name all of the ways you could use this object. Keep in mind that one object can have many uses. Separate your responses with a comma.",NA,"y",6304,NA,NA,1624,5336,NA,NA,NA,"to sit in, to calm yourself",1
"5f0f7fe1d7ad1c000b42d091","cdnt1uq8xi","Affordance Norms_Prolific",1,11,"2023-07-28T14:40:38+00:00",117.34938693047,1,"updated stim.csv","Version1.csv","Version 1","List 1","trench",NA,28,5.142857143,2618,0.332046282,29,"BOI","-","-","Please name all of the ways you could use this object. Keep in mind that one object can have many uses. Separate your responses with a comma.",NA,"y",116584,NA,NA,3731,116279,NA,NA,NA,"HIDE,WALK,DIG,CLLIMB",1
"5f0f7fe1d7ad1c000b42d091","cdnt1uq8xi","Affordance Norms_Prolific",1,12,"2023-07-28T14:40:46+00:00",8.5367789268494,1,"updated stim.csv","Version1.csv","Version 1","List 1","tampon",NA,2,6.416666667,2301,0.945985105,3,"BOI","-","-","Please name all of the ways you could use this object. Keep in mind that one object can have many uses. Separate your responses with a comma.",NA,"y",7809,NA,NA,4701,7317,NA,NA,NA,"INSERT,HOLD",1
"5f0f7fe1d7ad1c000b42d091","cdnt1uq8xi","Affordance Norms_Prolific",1,13,"2023-07-28T14:41:03+00:00",16.607938051224,1,"updated stim.csv","Version1.csv","Version 1","List 1","fauna",NA,25,4.333333333,252,0.347548191,26,"BOI","-","-","Please name all of the ways you could use this object. Keep in mind that one object can have many uses. Separate your responses with a comma.",NA,"y",15886,NA,NA,3794,15393,NA,NA,NA,"TOUCH,SMELL,SEE,CARRY,HOLD",1
"5f0f7fe1d7ad1c000b42d091","cdnt1uq8xi","Affordance Norms_Prolific",1,14,"2023-07-28T14:41:06+00:00",2.7684891223907,1,"updated stim.csv","Version1.csv","Version 1","List 1","burlap",NA,10,6.25,323,0.73335018,11,"BOI","-","-","Please name all of the ways you could use this object. Keep in mind that one object can have many uses. Separate your responses with a comma.",NA,"y",2359,NA,NA,-1,-1,NA,NA,NA,"",1
"5f0f7fe1d7ad1c000b42d091","cdnt1uq8xi","Affordance Norms_Prolific",1,15,"2023-07-28T14:44:17+00:00",191.05914998055,1,"updated stim.csv","Version1.csv","Version 1","List 1","bully",NA,20,5.458333333,2953,0.249710528,21,"BOI","-","-","Please name all of the ways you could use this object. Keep in mind that one object can have many uses. Separate your responses with a comma.",NA,"y",190291,NA,NA,3219,190030,NA,NA,NA,"PUNCH,KICK,SHOUT,TORMENT",1
"5f0f7fe1d7ad1c000b42d091","cdnt1uq8xi","Affordance Norms_Prolific",1,16,"2023-07-28T14:44:42+00:00",25.355298042297,1,"updated stim.csv","Version1.csv","Version 1","List 1","panhandler",NA,12,5.777777778,2235,0.168486135,13,"BOI","-","-","Please name all of the ways you could use this object. Keep in mind that one object can have many uses. Separate your responses with a comma.",NA,"y",24604,NA,NA,3857,23908,NA,NA,NA,"BEG,SIT",0.5
"5f0f7fe1d7ad1c000b42d091","cdnt1uq8xi","Affordance Norms_Prolific",1,17,"2023-07-28T14:45:11+00:00",28.710274934769,1,"updated stim.csv","Version1.csv","Version 1","List 1","ski",NA,18,4.666666667,1815,0.413937663,19,"BOI","-","-","Please name all of the ways you could use this object. Keep in mind that one object can have many uses. Separate your responses with a comma.",NA,"y",27957,NA,NA,10465,15849,NA,NA,NA,"RACE,TRAVEL",1
"5f0f7fe1d7ad1c000b42d091","cdnt1uq8xi","Affordance Norms_Prolific",1,18,"2023-07-28T14:45:29+00:00",18.47355389595,1,"updated stim.csv","Version1.csv","Version 1","List 1","meadow",NA,30,5.64,2491,0.148115672,31,"BOI","-","-","Please name all of the ways you could use this object. Keep in mind that one object can have many uses. Separate your responses with a comma.",NA,"y",17720,NA,NA,2168,17079,NA,NA,NA,"WALK,FORAGE,EXPLORE,HUNT",1
"5f0f7fe1d7ad1c000b42d091","cdnt1uq8xi","Affordance Norms_Prolific",1,19,"2023-07-28T14:45:36+00:00",6.7776341438293,1,"updated stim.csv","Version1.csv","Version 1","List 1","nylon",NA,6,4.375,1389,0.172930083,7,"BOI","-","-","Please name all of the ways you could use this object. Keep in mind that one object can have many uses. Separate your responses with a comma.",NA,"y",6031,NA,NA,4007,5691,NA,NA,NA,"CLOTHES",1
"5f0f7fe1d7ad1c000b42d091","cdnt1uq8xi","Affordance Norms_Prolific",1,20,"2023-07-28T14:45:45+00:00",8.9481339454651,1,"updated stim.csv","Version1.csv","Version 1","List 1","hailstone",NA,16,5.565217391,1319,0.287274537,17,"BOI","-","-","Please name all of the ways you could use this object. Keep in mind that one object can have many uses. Separate your responses with a comma.",NA,"y",8173,NA,NA,5848,7989,NA,NA,NA,"COLLECT WATER",1
"5f0f7fe1d7ad1c000b42d091","cdnt1uq8xi","Affordance Norms_Prolific",1,21,"2023-07-28T14:45:53+00:00",7.4858140945435,1,"updated stim.csv","Version1.csv","Version 1","List 1","morsel",NA,15,4.666666667,1168,0.129741388,16,"BOI","-","-","Please name all of the ways you could use this object. Keep in mind that one object can have many uses. Separate your responses with a comma.",NA,"y",6705,NA,NA,4405,4787,NA,NA,NA,"EAT",1
"5f0f7fe1d7ad1c000b42d091","cdnt1uq8xi","Affordance Norms_Prolific",1,22,"2023-07-28T14:46:07+00:00",14.686794996262,1,"updated stim.csv","Version1.csv","Version 1","List 1","mitt",NA,22,4.826086957,1618,0.113902737,23,"BOI","-","-","Please name all of the ways you could use this object. Keep in mind that one object can have many uses. Separate your responses with a comma.",NA,"y",13908,NA,NA,5355,13305,NA,NA,NA,"KEEP HANDS WARM, PROTECT GOLF CLUBS",1
"5f0f7fe1d7ad1c000b42d091","cdnt1uq8xi","Affordance Norms_Prolific",1,23,"2023-07-28T14:46:23+00:00",15.347043991089,1,"updated stim.csv","Version1.csv","Version 1","List 1","hinge",NA,7,6.230769231,308,0.981109369,8,"BOI","-","-","Please name all of the ways you could use this object. Keep in mind that one object can have many uses. Separate your responses with a comma.",NA,"y",14586,NA,NA,5946,8366,NA,NA,NA,"OPEN A DOOR",1
"5f0f7fe1d7ad1c000b42d091","cdnt1uq8xi","Affordance Norms_Prolific",1,24,"2023-07-28T14:46:32+00:00",9.6041979789734,1,"updated stim.csv","Version1.csv","Version 1","List 1","defendant",NA,24,5.347826087,469,0.48837589,25,"BOI","-","-","Please name all of the ways you could use this object. Keep in mind that one object can have many uses. Separate your responses with a comma.",NA,"y",8888,NA,NA,5113,8676,NA,NA,NA,"GUILTY, INNOCENT",1
"5f0f7fe1d7ad1c000b42d091","cdnt1uq8xi","Affordance Norms_Prolific",1,25,"2023-07-28T14:46:34+00:00",1.8742070198059,1,"updated stim.csv","Version1.csv","Version 1","List 1","smock",NA,3,5.76,1666,0.330502966,4,"BOI","-","-","Please name all of the ways you could use this object. Keep in mind that one object can have many uses. Separate your responses with a comma.",NA,"y",1465,NA,NA,-1,-1,NA,NA,NA,"",1
"5f0f7fe1d7ad1c000b42d091","cdnt1uq8xi","Affordance Norms_Prolific",1,26,"2023-07-28T14:46:40+00:00",5.6897559165955,1,"updated stim.csv","Version1.csv","Version 1","List 1","tiller",NA,9,4.875,2448,0.423270691,10,"BOI","-","-","Please name all of the ways you could use this object. Keep in mind that one object can have many uses. Separate your responses with a comma.",NA,"y",4879,NA,NA,3680,4514,NA,NA,NA,"STEER",1
"5f0f7fe1d7ad1c000b42d091","cdnt1uq8xi","Affordance Norms_Prolific",1,27,"2023-07-28T14:46:50+00:00",10.30858707428,1,"updated stim.csv","Version1.csv","Version 1","List 1","loaf",NA,11,5.92,2708,0.629763414,12,"BOI","-","-","Please name all of the ways you could use this object. Keep in mind that one object can have many uses. Separate your responses with a comma.",NA,"y",9519,NA,NA,4746,7429,NA,NA,NA,"BREAD, SHOES",1
"5f0f7fe1d7ad1c000b42d091","cdnt1uq8xi","Affordance Norms_Prolific",1,28,"2023-07-28T14:47:00+00:00",10.296756029129,1,"updated stim.csv","Version1.csv","Version 1","List 1","crossbar",NA,8,5.454545455,1935,0.125396232,9,"BOI","-","-","Please name all of the ways you could use this object. Keep in mind that one object can have many uses. Separate your responses with a comma.",NA,"y",9539,NA,NA,4653,9396,NA,NA,NA,"NET, FOOTBALL,CAR",1
"5f0f7fe1d7ad1c000b42d091","cdnt1uq8xi","Affordance Norms_Prolific",1,29,"2023-07-28T14:47:14+00:00",13.569681882858,1,"updated stim.csv","Version1.csv","Version 1","List 1","plaintiff",NA,13,4.444444444,1011,0.860315666,14,"BOI","-","-","Please name all of the ways you could use this object. Keep in mind that one object can have many uses. Separate your responses with a comma.",NA,"y",12826,NA,NA,11432,12103,NA,NA,NA,"LEGAL",1
"5f0f7fe1d7ad1c000b42d091","cdnt1uq8xi","Affordance Norms_Prolific",1,30,"2023-07-28T14:47:24+00:00",10.17899107933,1,"updated stim.csv","Version1.csv","Version 1","List 1","dude",NA,4,5.416666667,1464,0.391267155,5,"BOI","-","-","Please name all of the ways you could use this object. Keep in mind that one object can have many uses. Separate your responses with a comma.",NA,"y",9403,NA,NA,1961,9040,NA,NA,NA,"SURFER,COOL",1
"5f0f7fe1d7ad1c000b42d091","cdnt1uq8xi","Affordance Norms_Prolific",1,31,"2023-07-28T14:47:37+00:00",13.228104829788,1,"updated stim.csv","Version1.csv","Version 1","List 1","apparatus",NA,1,4.538461538,764,0.261476603,2,"BOI","-","-","Please name all of the ways you could use this object. Keep in mind that one object can have many uses. Separate your responses with a comma.",NA,"y",12458,NA,NA,2304,11871,NA,NA,NA,"GYMNASTICS, EXERCISE,OPERATION",1
"5f0f7fe1d7ad1c000b42d091","cdnt1uq8xi","Affordance Norms_Prolific",1,32,"2023-07-28T14:47:47+00:00",9.5138771533966,1,"updated stim.csv","Version1.csv","Version 1","List 1","granite",NA,26,4.727272727,2510,0.797812576,27,"BOI","-","-","Please name all of the ways you could use this object. Keep in mind that one object can have many uses. Separate your responses with a comma.",NA,"y",8756,NA,NA,2268,8306,NA,NA,NA,"WORK TOP, WALLS, FLOOR",1
"5f0f7fe1d7ad1c000b42d091","cdnt1uq8xi","Affordance Norms_Prolific",1,33,"2023-07-28T14:48:00+00:00",13.559409856796,1,"updated stim.csv","Version1.csv","Version 1","List 1","crotch",NA,14,4.958333333,2722,0.368202979,15,"BOI","-","-","Please name all of the ways you could use this object. Keep in mind that one object can have many uses. Separate your responses with a comma.",NA,"y",12828,NA,NA,2150,12624,NA,NA,NA,"TROUSERS, PANTS, TESTICLES",1
"5f0f7fe1d7ad1c000b42d091","cdnt1uq8xi","Affordance Norms_Prolific",1,34,"2023-07-28T14:48:07+00:00",6.8118600845337,1,"updated stim.csv","Version1.csv","Version 1","List 1","boa",NA,21,4.4,243,0.879020377,22,"BOI","-","-","Please name all of the ways you could use this object. Keep in mind that one object can have many uses. Separate your responses with a comma.",NA,"y",6089,NA,NA,1183,4551,NA,NA,NA,"SNAKE",1
"5f0f7fe1d7ad1c000b42d091","cdnt1uq8xi","Affordance Norms_Prolific",1,35,"2023-07-28T14:48:10+00:00",2.504585981369,1,"updated stim.csv","Version1.csv","Version 1","List 1","amulet",NA,19,5.227272727,1241,0.629851612,20,"BOI","-","-","Please name all of the ways you could use this object. Keep in mind that one object can have many uses. Separate your responses with a comma.",NA,"y",2094,NA,NA,-1,-1,NA,NA,NA,"",1
"5f0f7fe1d7ad1c000b42d091","cdnt1uq8xi","Affordance Norms_Prolific",1,36,"2023-07-28T14:48:23+00:00",12.910907030106,1,"updated stim.csv","Version1.csv","Version 1","List 1","tonic",NA,27,5.434782609,1877,0.096670334,28,"BOI","-","-","Please name all of the ways you could use this object. Keep in mind that one object can have many uses. Separate your responses with a comma.",NA,"y",12149,NA,NA,3473,11843,NA,NA,NA,"DRINK, GIN, WINE",1
"5f0f7fe1d7ad1c000b42d091","cdnt1uq8xi","Affordance Norms_Prolific",1,37,"2023-07-28T14:48:31+00:00",7.96373295784,1,"updated stim.csv","Version1.csv","Version 1","List 1","dye",NA,23,4.84,1448,0.448711971,24,"BOI","-","-","Please name all of the ways you could use this object. Keep in mind that one object can have many uses. Separate your responses with a comma.",NA,"y",7185,NA,NA,1517,6881,NA,NA,NA,"CLOTHES, HAIR, FOOD",1
"5f0f7fe1d7ad1c000b42d091","cdnt1uq8xi","Affordance Norms_Prolific",1,38,"2023-07-28T14:48:43+00:00",12.62366104126,1,"updated stim.csv","Version1.csv","Version 1","List 1","virgin",NA,17,5.481481481,1600,0.476399064,18,"BOI","-","-","Please name all of the ways you could use this object. Keep in mind that one object can have many uses. Separate your responses with a comma.",NA,"y",11874,NA,NA,3379,11127,NA,NA,NA,"MARY, SEX, AIRLINE",1
"5f0f7fe1d7ad1c000b42d091","cdnt1uq8xi","Affordance Norms_Prolific",1,39,"2023-07-28T14:48:48+00:00",4.8545808792114,1,"updated stim.csv","Version1.csv","Version 1","List 1","pigtail",NA,5,5.833333333,1647,0.48521541,6,"BOI","-","-","Please name all of the ways you could use this object. Keep in mind that one object can have many uses. Separate your responses with a comma.",NA,"y",4449,NA,NA,2556,4193,NA,NA,NA,"HAIR, FOOD",1
"5f0f7fe1d7ad1c000b42d091","cdnt1uq8xi","Affordance Norms_Prolific",1,40,"2023-07-28T14:49:14+00:00",26.351454019547,1,"updated stim.csv","Version1.csv","Version 1","List 1","taxpayer",NA,29,5.88,1967,0.018459114,30,"BOI","-","-","Please name all of the ways you could use this object. Keep in mind that one object can have many uses. Separate your responses with a comma.",NA,"y",25615,NA,NA,3502,25491,NA,NA,NA,"WORK,CONTRIBUTE TO SOCIETY",0.667
"6321d9c78e8e3c04f82a0ea0","t1woot20pp","Affordance Norms_Prolific",1,11,"2023-07-28T14:47:32+00:00",13.598653078079,1,"updated stim.csv","Version1.csv","Version 1","List 1","pigtail",NA,5,5.833333333,1647,0.48521541,6,"BOI","-","-","Please name all of the ways you could use this object. Keep in mind that one object can have many uses. Separate your responses with a comma.",NA,"y",13049,NA,NA,1900,10713,NA,NA,NA,"hair, girls, animal",1
"6321d9c78e8e3c04f82a0ea0","t1woot20pp","Affordance Norms_Prolific",1,12,"2023-07-28T14:47:47+00:00",15.108649969101,1,"updated stim.csv","Version1.csv","Version 1","List 1","morsel",NA,15,4.666666667,1168,0.129741388,16,"BOI","-","-","Please name all of the ways you could use this object. Keep in mind that one object can have many uses. Separate your responses with a comma.",NA,"y",14595,NA,NA,2960,13013,NA,NA,NA,"small, tiny, mini",1
"6321d9c78e8e3c04f82a0ea0","t1woot20pp","Affordance Norms_Prolific",1,13,"2023-07-28T14:48:05+00:00",18.254007101059,1,"updated stim.csv","Version1.csv","Version 1","List 1","smock",NA,3,5.76,1666,0.330502966,4,"BOI","-","-","Please name all of the ways you could use this object. Keep in mind that one object can have many uses. Separate your responses with a comma.",NA,"y",17742,NA,NA,1847,14092,NA,NA,NA,"clothing, summer clothing",1
"6321d9c78e8e3c04f82a0ea0","t1woot20pp","Affordance Norms_Prolific",1,14,"2023-07-28T14:48:37+00:00",32.365553855896,1,"updated stim.csv","Version1.csv","Version 1","List 1","granite",NA,26,4.727272727,2510,0.797812576,27,"BOI","-","-","Please name all of the ways you could use this object. Keep in mind that one object can have many uses. Separate your responses with a comma.",NA,"y",31867,NA,NA,9985,30794,NA,NA,NA,"kitchen tiles, kitching sides, doors",1
"6321d9c78e8e3c04f82a0ea0","t1woot20pp","Affordance Norms_Prolific",1,15,"2023-07-28T14:49:03+00:00",25.48099899292,1,"updated stim.csv","Version1.csv","Version 1","List 1","dude",NA,4,5.416666667,1464,0.391267155,5,"BOI","-","-","Please name all of the ways you could use this object. Keep in mind that one object can have many uses. Separate your responses with a comma.",NA,"y",24954,NA,NA,5342,10551,NA,NA,NA,"greeting a friend,",1
"6321d9c78e8e3c04f82a0ea0","t1woot20pp","Affordance Norms_Prolific",1,16,"2023-07-28T14:49:24+00:00",21.527978181839,1,"updated stim.csv","Version1.csv","Version 1","List 1","meadow",NA,30,5.64,2491,0.148115672,31,"BOI","-","-","Please name all of the ways you could use this object. Keep in mind that one object can have many uses. Separate your responses with a comma.",NA,"y",21036,NA,NA,2710,19680,NA,NA,NA,"going for a walk, enjoying a day out,",1
"6321d9c78e8e3c04f82a0ea0","t1woot20pp","Affordance Norms_Prolific",1,17,"2023-07-28T14:49:41+00:00",16.434988975525,1,"updated stim.csv","Version1.csv","Version 1","List 1","burlap",NA,10,6.25,323,0.73335018,11,"BOI","-","-","Please name all of the ways you could use this object. Keep in mind that one object can have many uses. Separate your responses with a comma.",NA,"y",15939,NA,NA,13244,14892,NA,NA,NA,"pass,",1
"6321d9c78e8e3c04f82a0ea0","t1woot20pp","Affordance Norms_Prolific",1,18,"2023-07-28T14:50:05+00:00",23.912916898727,1,"updated stim.csv","Version1.csv","Version 1","List 1","virgin",NA,17,5.481481481,1600,0.476399064,18,"BOI","-","-","Please name all of the ways you could use this object. Keep in mind that one object can have many uses. Separate your responses with a comma.",NA,"y",23389,NA,NA,7973,22285,NA,NA,NA,"watching tv, using the internet,",1
"6321d9c78e8e3c04f82a0ea0","t1woot20pp","Affordance Norms_Prolific",1,19,"2023-07-28T14:50:16+00:00",10.906378984451,1,"updated stim.csv","Version1.csv","Version 1","List 1","ski",NA,18,4.666666667,1815,0.413937663,19,"BOI","-","-","Please name all of the ways you could use this object. Keep in mind that one object can have many uses. Separate your responses with a comma.",NA,"y",10383,NA,NA,4119,8901,NA,NA,NA,"skiing trip",1
"6321d9c78e8e3c04f82a0ea0","t1woot20pp","Affordance Norms_Prolific",1,20,"2023-07-28T14:50:26+00:00",10.692809104919,1,"updated stim.csv","Version1.csv","Version 1","List 1","plaintiff",NA,13,4.444444444,1011,0.860315666,14,"BOI","-","-","Please name all of the ways you could use this object. Keep in mind that one object can have many uses. Separate your responses with a comma.",NA,"y",10168,NA,NA,4095,8753,NA,NA,NA,"going to court,",1
"6321d9c78e8e3c04f82a0ea0","t1woot20pp","Affordance Norms_Prolific",1,21,"2023-07-28T14:50:59+00:00",32.316236972809,1,"updated stim.csv","Version1.csv","Version 1","List 1","hinge",NA,7,6.230769231,308,0.981109369,8,"BOI","-","-","Please name all of the ways you could use this object. Keep in mind that one object can have many uses. Separate your responses with a comma.",NA,"y",31836,NA,NA,5375,29756,NA,NA,NA,"opening cupboards, closing cupboards, opening doors, closing doors, changing the hinges",1
"6321d9c78e8e3c04f82a0ea0","t1woot20pp","Affordance Norms_Prolific",1,22,"2023-07-28T14:51:21+00:00",22.803447008133,1,"updated stim.csv","Version1.csv","Version 1","List 1","fauna",NA,25,4.333333333,252,0.347548191,26,"BOI","-","-","Please name all of the ways you could use this object. Keep in mind that one object can have many uses. Separate your responses with a comma.",NA,"y",22255,NA,NA,17536,21165,NA,NA,NA,"visiting a zoo",1
"6321d9c78e8e3c04f82a0ea0","t1woot20pp","Affordance Norms_Prolific",1,23,"2023-07-28T14:51:58+00:00",36.293841838837,1,"updated stim.csv","Version1.csv","Version 1","List 1","apparatus",NA,1,4.538461538,764,0.261476603,2,"BOI","-","-","Please name all of the ways you could use this object. Keep in mind that one object can have many uses. Separate your responses with a comma.",NA,"y",35758,NA,NA,13382,34415,NA,NA,NA,"working, doing DIY, doing gardening work, breathing",1
"6321d9c78e8e3c04f82a0ea0","t1woot20pp","Affordance Norms_Prolific",1,24,"2023-07-28T14:52:16+00:00",18.674055099487,1,"updated stim.csv","Version1.csv","Version 1","List 1","nylon",NA,6,4.375,1389,0.172930083,7,"BOI","-","-","Please name all of the ways you could use this object. Keep in mind that one object can have many uses. Separate your responses with a comma.",NA,"y",18145,NA,NA,2087,17069,NA,NA,NA,"making clothing, wearing clothing",1
"6321d9c78e8e3c04f82a0ea0","t1woot20pp","Affordance Norms_Prolific",1,25,"2023-07-28T14:52:43+00:00",26.629095077515,1,"updated stim.csv","Version1.csv","Version 1","List 1","tampon",NA,2,6.416666667,2301,0.945985105,3,"BOI","-","-","Please name all of the ways you could use this object. Keep in mind that one object can have many uses. Separate your responses with a comma.",NA,"y",26074,NA,NA,2436,24428,NA,NA,NA,"to stop a period, to stop a nose bleed, to teach about sex education",1
"6321d9c78e8e3c04f82a0ea0","t1woot20pp","Affordance Norms_Prolific",1,26,"2023-07-28T14:52:52+00:00",9.4922368526459,1,"updated stim.csv","Version1.csv","Version 1","List 1","defendant",NA,24,5.347826087,469,0.48837589,25,"BOI","-","-","Please name all of the ways you could use this object. Keep in mind that one object can have many uses. Separate your responses with a comma.",NA,"y",8997,NA,NA,2418,7144,NA,NA,NA,"defending in court",1
"6321d9c78e8e3c04f82a0ea0","t1woot20pp","Affordance Norms_Prolific",1,27,"2023-07-28T14:53:10+00:00",17.822269201279,1,"updated stim.csv","Version1.csv","Version 1","List 1","amulet",NA,19,5.227272727,1241,0.629851612,20,"BOI","-","-","Please name all of the ways you could use this object. Keep in mind that one object can have many uses. Separate your responses with a comma.",NA,"y",17318,NA,NA,2016,16022,NA,NA,NA,"giving to someone as a gift, treasure hunting",1
"6321d9c78e8e3c04f82a0ea0","t1woot20pp","Affordance Norms_Prolific",1,28,"2023-07-28T14:53:24+00:00",14.09884095192,1,"updated stim.csv","Version1.csv","Version 1","List 1","crotch",NA,14,4.958333333,2722,0.368202979,15,"BOI","-","-","Please name all of the ways you could use this object. Keep in mind that one object can have many uses. Separate your responses with a comma.",NA,"y",13605,NA,NA,2847,11777,NA,NA,NA,"to clean it, to scratch it",1
"6321d9c78e8e3c04f82a0ea0","t1woot20pp","Affordance Norms_Prolific",1,29,"2023-07-28T14:53:53+00:00",28.743459939957,1,"updated stim.csv","Version1.csv","Version 1","List 1","bully",NA,20,5.458333333,2953,0.249710528,21,"BOI","-","-","Please name all of the ways you could use this object. Keep in mind that one object can have many uses. Separate your responses with a comma.",NA,"y",26467,NA,NA,6532,25388,NA,NA,NA,"bullying them back, stopping them from bullying, tell them to stop",1
"6321d9c78e8e3c04f82a0ea0","t1woot20pp","Affordance Norms_Prolific",1,30,"2023-07-28T14:54:10+00:00",17.346904039383,1,"updated stim.csv","Version1.csv","Version 1","List 1","hailstone",NA,16,5.565217391,1319,0.287274537,17,"BOI","-","-","Please name all of the ways you could use this object. Keep in mind that one object can have many uses. Separate your responses with a comma.",NA,"y",16799,NA,NA,4618,14486,NA,NA,NA,"use an umbrella, take shelter",1
"6321d9c78e8e3c04f82a0ea0","t1woot20pp","Affordance Norms_Prolific",1,31,"2023-07-28T14:54:24+00:00",13.638526916504,1,"updated stim.csv","Version1.csv","Version 1","List 1","loaf",NA,11,5.92,2708,0.629763414,12,"BOI","-","-","Please name all of the ways you could use this object. Keep in mind that one object can have many uses. Separate your responses with a comma.",NA,"y",13123,NA,NA,2621,10851,NA,NA,NA,"make a sandwich, make toast, ",1
"6321d9c78e8e3c04f82a0ea0","t1woot20pp","Affordance Norms_Prolific",1,32,"2023-07-28T14:54:52+00:00",27.445961952209,1,"updated stim.csv","Version1.csv","Version 1","List 1","panhandler",NA,12,5.777777778,2235,0.168486135,13,"BOI","-","-","Please name all of the ways you could use this object. Keep in mind that one object can have many uses. Separate your responses with a comma.",NA,"y",26946,NA,NA,19495,25718,NA,NA,NA,"move them on",1
"6321d9c78e8e3c04f82a0ea0","t1woot20pp","Affordance Norms_Prolific",1,33,"2023-07-28T14:55:03+00:00",11.776799201965,1,"updated stim.csv","Version1.csv","Version 1","List 1","trench",NA,28,5.142857143,2618,0.332046282,29,"BOI","-","-","Please name all of the ways you could use this object. Keep in mind that one object can have many uses. Separate your responses with a comma.",NA,"y",11216,NA,NA,3942,8826,NA,NA,NA,"hide, make a den",1
"6321d9c78e8e3c04f82a0ea0","t1woot20pp","Affordance Norms_Prolific",1,34,"2023-07-28T14:55:19+00:00",16.033794879913,1,"updated stim.csv","Version1.csv","Version 1","List 1","crossbar",NA,8,5.454545455,1935,0.125396232,9,"BOI","-","-","Please name all of the ways you could use this object. Keep in mind that one object can have many uses. Separate your responses with a comma.",NA,"y",15523,NA,NA,3360,14364,NA,NA,NA,"hit it with a football, hang off of it",1
"6321d9c78e8e3c04f82a0ea0","t1woot20pp","Affordance Norms_Prolific",1,35,"2023-07-28T14:55:52+00:00",32.637592077255,1,"updated stim.csv","Version1.csv","Version 1","List 1","taxpayer",NA,29,5.88,1967,0.018459114,30,"BOI","-","-","Please name all of the ways you could use this object. Keep in mind that one object can have many uses. Separate your responses with a comma.",NA,"y",30939,NA,NA,4150,30130,NA,NA,NA,"pay backpay, take there money, they work",1
"6321d9c78e8e3c04f82a0ea0","t1woot20pp","Affordance Norms_Prolific",1,36,"2023-07-28T14:56:23+00:00",31.396517038345,1,"updated stim.csv","Version1.csv","Version 1","List 1","tiller",NA,9,4.875,2448,0.423270691,10,"BOI","-","-","Please name all of the ways you could use this object. Keep in mind that one object can have many uses. Separate your responses with a comma.",NA,"y",30888,NA,NA,6145,29515,NA,NA,NA,"serve, speak to them with respect, give them money, pay via card ",1
"6321d9c78e8e3c04f82a0ea0","t1woot20pp","Affordance Norms_Prolific",1,37,"2023-07-28T14:56:32+00:00",8.7376079559326,1,"updated stim.csv","Version1.csv","Version 1","List 1","tonic",NA,27,5.434782609,1877,0.096670334,28,"BOI","-","-","Please name all of the ways you could use this object. Keep in mind that one object can have many uses. Separate your responses with a comma.",NA,"y",8242,NA,NA,2561,7241,NA,NA,NA,"mix it with gin",1
"6321d9c78e8e3c04f82a0ea0","t1woot20pp","Affordance Norms_Prolific",1,38,"2023-07-28T14:56:46+00:00",13.708510875702,1,"updated stim.csv","Version1.csv","Version 1","List 1","mitt",NA,22,4.826086957,1618,0.113902737,23,"BOI","-","-","Please name all of the ways you could use this object. Keep in mind that one object can have many uses. Separate your responses with a comma.",NA,"y",13087,NA,NA,2556,11401,NA,NA,NA,"catch a baseball with it,",1
"6321d9c78e8e3c04f82a0ea0","t1woot20pp","Affordance Norms_Prolific",1,39,"2023-07-28T14:57:06+00:00",19.99892115593,1,"updated stim.csv","Version1.csv","Version 1","List 1","dye",NA,23,4.84,1448,0.448711971,24,"BOI","-","-","Please name all of the ways you could use this object. Keep in mind that one object can have many uses. Separate your responses with a comma.",NA,"y",19482,NA,NA,2245,18259,NA,NA,NA,"dye your hair, dye your clothes, dye your food",1
"6321d9c78e8e3c04f82a0ea0","t1woot20pp","Affordance Norms_Prolific",1,40,"2023-07-28T14:57:14+00:00",7.8364398479462,1,"updated stim.csv","Version1.csv","Version 1","List 1","boa",NA,21,4.4,243,0.879020377,22,"BOI","-","-","Please name all of the ways you could use this object. Keep in mind that one object can have many uses. Separate your responses with a comma.",NA,"y",7345,NA,NA,2499,6364,NA,NA,NA,"run away",1
