"Username","ID","ExperimentName","Session","Trial","Date","TimeDif","Condition.Number","Stimuli.File","Order.File","Condition.Description","Condition.Notes","Stimuli.Cue","Stimuli.Answer","Stimuli.Shuffle","Stimuli.Stimuli.Notes","Stimuli.Value","Stimuli.Rand","Procedure.Item","Procedure.Trial.Type","Procedure.Max.Time","Procedure.Min.Time","Procedure.Text","Procedure.Procedure.Notes","Procedure.Shuffle","Response.RT","Response.Response","Response.Accuracy","Response.RTfirst","Response.RTlast","Response.strictAcc","Response.lenientAcc","Response.focus","Response.JOL","Response.Focus"
"5516e759fdf99b17c37119d5","whdc7tl2jk","Affordance Norms_Prolific",1,11,"2023-05-14T17:00:48+00:00",8.9912722110748,20,"updated stim.csv","Version20.csv","Version 20","List 20","breasts",NA,589,6.173913043,315,0.727607181,590,"BOI","-","-","Please name all of the ways you could use this object. Keep in mind that one object can have many uses. Separate your responses with a comma.",NA,"y",8473,NA,NA,2345,7048,NA,NA,NA,"chicken, women,",1
"5516e759fdf99b17c37119d5","whdc7tl2jk","Affordance Norms_Prolific",1,12,"2023-05-14T17:00:56+00:00",8.166140794754,20,"updated stim.csv","Version20.csv","Version 20","List 20","buddy",NA,588,4.916666667,344,0.678293363,589,"BOI","-","-","Please name all of the ways you could use this object. Keep in mind that one object can have many uses. Separate your responses with a comma.",NA,"y",7681,NA,NA,2456,5376,NA,NA,NA,"friend",1
"5516e759fdf99b17c37119d5","whdc7tl2jk","Affordance Norms_Prolific",1,13,"2023-05-14T17:01:03+00:00",6.9737391471863,20,"updated stim.csv","Version20.csv","Version 20","List 20","skittle",NA,577,5,2401,0.959116035,578,"BOI","-","-","Please name all of the ways you could use this object. Keep in mind that one object can have many uses. Separate your responses with a comma.",NA,"y",6464,NA,NA,2084,4915,NA,NA,NA,"bowling, sweet",1
"5516e759fdf99b17c37119d5","whdc7tl2jk","Affordance Norms_Prolific",1,14,"2023-05-14T17:01:16+00:00",12.876149892807,20,"updated stim.csv","Version20.csv","Version 20","List 20","pastry",NA,590,6.086956522,1886,0.101584578,591,"BOI","-","-","Please name all of the ways you could use this object. Keep in mind that one object can have many uses. Separate your responses with a comma.",NA,"y",12365,NA,NA,2312,8865,NA,NA,NA,"sweet, savoury, pie",1
"5516e759fdf99b17c37119d5","whdc7tl2jk","Affordance Norms_Prolific",1,15,"2023-05-14T17:01:33+00:00",16.988224983215,20,"updated stim.csv","Version20.csv","Version 20","List 20","flapjack",NA,571,5.2,1000,0.795806976,572,"BOI","-","-","Please name all of the ways you could use this object. Keep in mind that one object can have many uses. Separate your responses with a comma.",NA,"y",16456,NA,NA,2890,10504,NA,NA,NA,"snack, breakfast, ",1
"5516e759fdf99b17c37119d5","whdc7tl2jk","Affordance Norms_Prolific",1,16,"2023-05-14T17:01:42+00:00",9.293995141983,20,"updated stim.csv","Version20.csv","Version 20","List 20","hashish",NA,584,4.909090909,1257,0.234929947,585,"BOI","-","-","Please name all of the ways you could use this object. Keep in mind that one object can have many uses. Separate your responses with a comma.",NA,"y",8798,NA,NA,6198,7150,NA,NA,NA,"no idea",1
"5516e759fdf99b17c37119d5","whdc7tl2jk","Affordance Norms_Prolific",1,17,"2023-05-14T17:01:52+00:00",10.148156881332,20,"updated stim.csv","Version20.csv","Version 20","List 20","seedling",NA,582,5.083333333,2309,0.909423363,583,"BOI","-","-","Please name all of the ways you could use this object. Keep in mind that one object can have many uses. Separate your responses with a comma.",NA,"y",9623,NA,NA,1687,8007,NA,NA,NA,"plant, grow",1
"5516e759fdf99b17c37119d5","whdc7tl2jk","Affordance Norms_Prolific",1,18,"2023-05-14T17:02:01+00:00",8.7241041660309,20,"updated stim.csv","Version20.csv","Version 20","List 20","cocoa",NA,574,5.625,589,0.771924307,575,"BOI","-","-","Please name all of the ways you could use this object. Keep in mind that one object can have many uses. Separate your responses with a comma.",NA,"y",8208,NA,NA,2401,6750,NA,NA,NA,"buns, cake, drink",1
"5516e759fdf99b17c37119d5","whdc7tl2jk","Affordance Norms_Prolific",1,19,"2023-05-14T17:02:09+00:00",8.086658000946,20,"updated stim.csv","Version20.csv","Version 20","List 20","smock",NA,594,5.08,2421,0.292298633,595,"BOI","-","-","Please name all of the ways you could use this object. Keep in mind that one object can have many uses. Separate your responses with a comma.",NA,"y",7595,NA,NA,1987,6179,NA,NA,NA,"dress, pinnie",1
"5516e759fdf99b17c37119d5","whdc7tl2jk","Affordance Norms_Prolific",1,20,"2023-05-14T17:02:22+00:00",13.162566900253,20,"updated stim.csv","Version20.csv","Version 20","List 20","firewood",NA,593,5.72,987,0.915415576,594,"BOI","-","-","Please name all of the ways you could use this object. Keep in mind that one object can have many uses. Separate your responses with a comma.",NA,"y",12657,NA,NA,1416,7824,NA,NA,NA,"burn, dry, ornamental",1
"5516e759fdf99b17c37119d5","whdc7tl2jk","Affordance Norms_Prolific",1,21,"2023-05-14T17:02:40+00:00",17.341523885727,20,"updated stim.csv","Version20.csv","Version 20","List 20","craftsman",NA,585,4.833333333,679,0.422256989,586,"BOI","-","-","Please name all of the ways you could use this object. Keep in mind that one object can have many uses. Separate your responses with a comma.",NA,"y",16848,NA,NA,3916,15667,NA,NA,NA,"worker, wood, skill",1
"5516e759fdf99b17c37119d5","whdc7tl2jk","Affordance Norms_Prolific",1,22,"2023-05-14T17:02:54+00:00",14.772519111633,20,"updated stim.csv","Version20.csv","Version 20","List 20","dinner",NA,572,5.545454545,795,0.224312152,573,"BOI","-","-","Please name all of the ways you could use this object. Keep in mind that one object can have many uses. Separate your responses with a comma.",NA,"y",14278,NA,NA,2241,12953,NA,NA,NA,"eat, meal, ",1
"5516e759fdf99b17c37119d5","whdc7tl2jk","Affordance Norms_Prolific",1,23,"2023-05-14T17:03:05+00:00",10.238082885742,20,"updated stim.csv","Version20.csv","Version 20","List 20","stepladder",NA,599,6.130434783,2527,0.499161262,600,"BOI","-","-","Please name all of the ways you could use this object. Keep in mind that one object can have many uses. Separate your responses with a comma.",NA,"y",9749,NA,NA,2641,8554,NA,NA,NA,"short, higher, reach",1
"5516e759fdf99b17c37119d5","whdc7tl2jk","Affordance Norms_Prolific",1,24,"2023-05-14T17:03:12+00:00",7.2817091941833,20,"updated stim.csv","Version20.csv","Version 20","List 20","obstetrician",NA,598,5.04,1798,0.141308746,599,"BOI","-","-","Please name all of the ways you could use this object. Keep in mind that one object can have many uses. Separate your responses with a comma.",NA,"y",6800,NA,NA,2429,5332,NA,NA,NA,"dr, hospital",1
"5516e759fdf99b17c37119d5","whdc7tl2jk","Affordance Norms_Prolific",1,25,"2023-05-14T17:03:17+00:00",5.3867030143738,20,"updated stim.csv","Version20.csv","Version 20","List 20","sedan",NA,586,5.565217391,2306,0.20374677,587,"BOI","-","-","Please name all of the ways you could use this object. Keep in mind that one object can have many uses. Separate your responses with a comma.",NA,"y",4907,NA,NA,1982,3646,NA,NA,NA,"car, van",1
"5516e759fdf99b17c37119d5","whdc7tl2jk","Affordance Norms_Prolific",1,26,"2023-05-14T17:03:28+00:00",11.036157846451,20,"updated stim.csv","Version20.csv","Version 20","List 20","antennae",NA,587,4.538461538,47,0.730388709,588,"BOI","-","-","Please name all of the ways you could use this object. Keep in mind that one object can have many uses. Separate your responses with a comma.",NA,"y",10535,NA,NA,6074,9163,NA,NA,NA,"television, radio",1
"5516e759fdf99b17c37119d5","whdc7tl2jk","Affordance Norms_Prolific",1,27,"2023-05-14T17:03:38+00:00",9.1990370750427,20,"updated stim.csv","Version20.csv","Version 20","List 20","instructor",NA,580,4.583333333,1360,0.834414594,581,"BOI","-","-","Please name all of the ways you could use this object. Keep in mind that one object can have many uses. Separate your responses with a comma.",NA,"y",8686,NA,NA,1578,6297,NA,NA,NA,"driving, skill, work",1
"5516e759fdf99b17c37119d5","whdc7tl2jk","Affordance Norms_Prolific",1,28,"2023-05-14T17:03:45+00:00",7.3483490943909,20,"updated stim.csv","Version20.csv","Version 20","List 20","shack",NA,583,5.125,2317,0.345258516,584,"BOI","-","-","Please name all of the ways you could use this object. Keep in mind that one object can have many uses. Separate your responses with a comma.",NA,"y",6855,NA,NA,2898,5681,NA,NA,NA,"shed, storage",1
"5516e759fdf99b17c37119d5","whdc7tl2jk","Affordance Norms_Prolific",1,29,"2023-05-14T17:03:51+00:00",6.5062518119812,20,"updated stim.csv","Version20.csv","Version 20","List 20","tambourine",NA,579,5.916666667,2628,0.900070154,580,"BOI","-","-","Please name all of the ways you could use this object. Keep in mind that one object can have many uses. Separate your responses with a comma.",NA,"y",6002,NA,NA,1525,4702,NA,NA,NA,"shake, sound",1
"5516e759fdf99b17c37119d5","whdc7tl2jk","Affordance Norms_Prolific",1,30,"2023-05-14T17:03:59+00:00",7.4621250629425,20,"updated stim.csv","Version20.csv","Version 20","List 20","oilcloth",NA,600,5.125,1803,0.545634211,601,"BOI","-","-","Please name all of the ways you could use this object. Keep in mind that one object can have many uses. Separate your responses with a comma.",NA,"y",6968,NA,NA,2523,5588,NA,NA,NA,"rag, light",1
"5516e759fdf99b17c37119d5","whdc7tl2jk","Affordance Norms_Prolific",1,31,"2023-05-14T17:04:05+00:00",5.9653370380402,20,"updated stim.csv","Version20.csv","Version 20","List 20","novel",NA,578,5.4,1783,0.135347184,579,"BOI","-","-","Please name all of the ways you could use this object. Keep in mind that one object can have many uses. Separate your responses with a comma.",NA,"y",5456,NA,NA,1475,3459,NA,NA,NA,"book, fun",1
"5516e759fdf99b17c37119d5","whdc7tl2jk","Affordance Norms_Prolific",1,32,"2023-05-14T17:04:11+00:00",6.3560860157013,20,"updated stim.csv","Version20.csv","Version 20","List 20","crosswalk",NA,596,4.714285714,706,0.39617836,597,"BOI","-","-","Please name all of the ways you could use this object. Keep in mind that one object can have many uses. Separate your responses with a comma.",NA,"y",5858,NA,NA,2126,4597,NA,NA,NA,"street, safe",1
"5516e759fdf99b17c37119d5","whdc7tl2jk","Affordance Norms_Prolific",1,33,"2023-05-14T17:04:22+00:00",10.694561958313,20,"updated stim.csv","Version20.csv","Version 20","List 20","theatergoer",NA,581,5,2673,0.209563183,582,"BOI","-","-","Please name all of the ways you could use this object. Keep in mind that one object can have many uses. Separate your responses with a comma.",NA,"y",10207,NA,NA,3202,8985,NA,NA,NA,"musical, enjoyment",1
"5516e759fdf99b17c37119d5","whdc7tl2jk","Affordance Norms_Prolific",1,34,"2023-05-14T17:04:29+00:00",6.7861030101776,20,"updated stim.csv","Version20.csv","Version 20","List 20","sketchbook",NA,592,5.833333333,2394,0.383818306,593,"BOI","-","-","Please name all of the ways you could use this object. Keep in mind that one object can have many uses. Separate your responses with a comma.",NA,"y",6290,NA,NA,1453,5045,NA,NA,NA,"art, writing, doodle",1
"5516e759fdf99b17c37119d5","whdc7tl2jk","Affordance Norms_Prolific",1,35,"2023-05-14T17:04:43+00:00",14.40040397644,20,"updated stim.csv","Version20.csv","Version 20","List 20","gem",NA,597,5.517241379,1093,0.914098667,598,"BOI","-","-","Please name all of the ways you could use this object. Keep in mind that one object can have many uses. Separate your responses with a comma.",NA,"y",13894,NA,NA,1602,12386,NA,NA,NA,"diamond, ring, jewellery",1
"5516e759fdf99b17c37119d5","whdc7tl2jk","Affordance Norms_Prolific",1,36,"2023-05-14T17:04:50+00:00",7.1676619052887,20,"updated stim.csv","Version20.csv","Version 20","List 20","poinsettia",NA,576,5.347826087,2018,0.660986177,577,"BOI","-","-","Please name all of the ways you could use this object. Keep in mind that one object can have many uses. Separate your responses with a comma.",NA,"y",6651,NA,NA,2279,5246,NA,NA,NA,"plant, christmas",1
"5516e759fdf99b17c37119d5","whdc7tl2jk","Affordance Norms_Prolific",1,37,"2023-05-14T17:04:56+00:00",5.9088971614838,20,"updated stim.csv","Version20.csv","Version 20","List 20","garage",NA,575,4.96,1073,0.507161058,576,"BOI","-","-","Please name all of the ways you could use this object. Keep in mind that one object can have many uses. Separate your responses with a comma.",NA,"y",5412,NA,NA,1728,4151,NA,NA,NA,"car, storage",1
"5516e759fdf99b17c37119d5","whdc7tl2jk","Affordance Norms_Prolific",1,38,"2023-05-14T17:05:01+00:00",5.0742199420929,20,"updated stim.csv","Version20.csv","Version 20","List 20","rodent",NA,591,5.041666667,2186,0.950545873,592,"BOI","-","-","Please name all of the ways you could use this object. Keep in mind that one object can have many uses. Separate your responses with a comma.",NA,"y",4578,NA,NA,1430,3397,NA,NA,NA,"rat, mouse",1
"5516e759fdf99b17c37119d5","whdc7tl2jk","Affordance Norms_Prolific",1,39,"2023-05-14T17:05:07+00:00",5.2965428829193,20,"updated stim.csv","Version20.csv","Version 20","List 20","neurologist",NA,595,4.384615385,1753,0.636652588,596,"BOI","-","-","Please name all of the ways you could use this object. Keep in mind that one object can have many uses. Separate your responses with a comma.",NA,"y",4788,NA,NA,1495,3367,NA,NA,NA,"brain, dr",1
"5516e759fdf99b17c37119d5","whdc7tl2jk","Affordance Norms_Prolific",1,40,"2023-05-14T17:05:17+00:00",10.819058179855,20,"updated stim.csv","Version20.csv","Version 20","List 20","jam",NA,573,5.173913043,1372,0.856688434,574,"BOI","-","-","Please name all of the ways you could use this object. Keep in mind that one object can have many uses. Separate your responses with a comma.",NA,"y",10218,NA,NA,2302,9053,NA,NA,NA,"toast, cake, pudding",1
"558fff05fdf99b3f7aada357","9s6ur9ayhe","Affordance Norms_Prolific",1,11,"2023-05-14T19:07:30+00:00",22.00713300705,71,"updated stim.csv","Version71.csv","Version 71","List 71","photocopier",NA,2119,6.12,1942,0.45585981,2120,"BOI","-","-","Please name all of the ways you could use this object. Keep in mind that one object can have many uses. Separate your responses with a comma.",NA,"y",21658,NA,NA,1979,20746,NA,NA,NA,"to make copies, to scan items, to make printouts",1
"558fff05fdf99b3f7aada357","9s6ur9ayhe","Affordance Norms_Prolific",1,12,"2023-05-14T19:07:59+00:00",28.656936883926,71,"updated stim.csv","Version71.csv","Version 71","List 71","chef",NA,2111,4.64,509,0.592626509,2112,"BOI","-","-","Please name all of the ways you could use this object. Keep in mind that one object can have many uses. Separate your responses with a comma.",NA,"y",28318,NA,NA,2462,22911,NA,NA,NA,"to cook food, to make tasting recommendations, to cater",1
"558fff05fdf99b3f7aada357","9s6ur9ayhe","Affordance Norms_Prolific",1,13,"2023-05-14T19:08:11+00:00",12.750452041626,71,"updated stim.csv","Version71.csv","Version 71","List 71","bagpipe",NA,2122,5.761904762,123,0.717683714,2123,"BOI","-","-","Please name all of the ways you could use this object. Keep in mind that one object can have many uses. Separate your responses with a comma.",NA,"y",12411,NA,NA,1149,11148,NA,NA,NA,"to play music, to welcome someone, to keep traditions alive",1
"558fff05fdf99b3f7aada357","9s6ur9ayhe","Affordance Norms_Prolific",1,14,"2023-05-14T19:08:31+00:00",20.003719091415,71,"updated stim.csv","Version71.csv","Version 71","List 71","flannel",NA,2107,4.869565217,998,0.404615344,2108,"BOI","-","-","Please name all of the ways you could use this object. Keep in mind that one object can have many uses. Separate your responses with a comma.",NA,"y",19662,NA,NA,2704,19167,NA,NA,NA,"to use for warmth, to make clothing, to make bedding, to make covers",1
"558fff05fdf99b3f7aada357","9s6ur9ayhe","Affordance Norms_Prolific",1,15,"2023-05-14T19:09:03+00:00",31.915632963181,71,"updated stim.csv","Version71.csv","Version 71","List 71","spool",NA,2112,4.52173913,2481,0.12877922,2113,"BOI","-","-","Please name all of the ways you could use this object. Keep in mind that one object can have many uses. Separate your responses with a comma.",NA,"y",31562,NA,NA,1740,28331,NA,NA,NA,"to roll up string, to roll up cables, to keep string-like objects tidy",1
"558fff05fdf99b3f7aada357","9s6ur9ayhe","Affordance Norms_Prolific",1,16,"2023-05-14T19:09:39+00:00",35.696300983429,71,"updated stim.csv","Version71.csv","Version 71","List 71","forest",NA,2121,4.6,1046,0.523691769,2122,"BOI","-","-","Please name all of the ways you could use this object. Keep in mind that one object can have many uses. Separate your responses with a comma.",NA,"y",35341,NA,NA,3519,32269,NA,NA,NA,"to preserve the ecosystem, for logging, as housing for animals, as canopies for the sky",1
"558fff05fdf99b3f7aada357","9s6ur9ayhe","Affordance Norms_Prolific",1,17,"2023-05-14T19:09:58+00:00",19.33437204361,71,"updated stim.csv","Version71.csv","Version 71","List 71","anchovy",NA,2118,4.428571429,40,0.863213524,2119,"BOI","-","-","Please name all of the ways you could use this object. Keep in mind that one object can have many uses. Separate your responses with a comma.",NA,"y",18982,NA,NA,2120,14455,NA,NA,NA,"to eat, to feed other fish, to use as toppings for other food",1
"558fff05fdf99b3f7aada357","9s6ur9ayhe","Affordance Norms_Prolific",1,18,"2023-05-14T19:10:19+00:00",20.313366889954,71,"updated stim.csv","Version71.csv","Version 71","List 71","timepiece",NA,2128,5.375,2700,0.460748803,2129,"BOI","-","-","Please name all of the ways you could use this object. Keep in mind that one object can have many uses. Separate your responses with a comma.",NA,"y",19955,NA,NA,1397,18500,NA,NA,NA,"to keep time, to display time, to remind yourself of your commitments",1
"558fff05fdf99b3f7aada357","9s6ur9ayhe","Affordance Norms_Prolific",1,19,"2023-05-14T19:11:24+00:00",65.741749048233,71,"updated stim.csv","Version71.csv","Version 71","List 71","face",NA,2114,5.857142857,940,0.969105757,2115,"BOI","-","-","Please name all of the ways you could use this object. Keep in mind that one object can have many uses. Separate your responses with a comma.",NA,"y",65408,NA,NA,9698,64977,NA,NA,NA,"to signal emotions, to express yourself, to communicate with others",1
"558fff05fdf99b3f7aada357","9s6ur9ayhe","Affordance Norms_Prolific",1,20,"2023-05-14T19:11:49+00:00",25.007051944733,71,"updated stim.csv","Version71.csv","Version 71","List 71","gym",NA,2113,4.958333333,1203,0.984080005,2114,"BOI","-","-","Please name all of the ways you could use this object. Keep in mind that one object can have many uses. Separate your responses with a comma.",NA,"y",24650,NA,NA,1275,23770,NA,NA,NA,"to exercise, to hold events, to keep equipment, to house large crowds",1
"558fff05fdf99b3f7aada357","9s6ur9ayhe","Affordance Norms_Prolific",1,21,"2023-05-14T19:12:01+00:00",11.589918136597,71,"updated stim.csv","Version71.csv","Version 71","List 71","weatherman",NA,2115,4.285714286,2916,0.731068251,2116,"BOI","-","-","Please name all of the ways you could use this object. Keep in mind that one object can have many uses. Separate your responses with a comma.",NA,"y",11241,NA,NA,2458,10041,NA,NA,NA,"to make forecasts, to tell others about the weather",1
"558fff05fdf99b3f7aada357","9s6ur9ayhe","Affordance Norms_Prolific",1,22,"2023-05-14T19:12:20+00:00",19.453977823257,71,"updated stim.csv","Version71.csv","Version 71","List 71","ballot",NA,2101,4.434782609,132,0.3910168,2102,"BOI","-","-","Please name all of the ways you could use this object. Keep in mind that one object can have many uses. Separate your responses with a comma.",NA,"y",19109,NA,NA,2070,18197,NA,NA,NA,"to keep records, to elect someone, to determine how people are voting",1
"558fff05fdf99b3f7aada357","9s6ur9ayhe","Affordance Norms_Prolific",1,23,"2023-05-14T19:12:39+00:00",18.260600090027,71,"updated stim.csv","Version71.csv","Version 71","List 71","cloak",NA,2106,5.791666667,565,0.99956142,2107,"BOI","-","-","Please name all of the ways you could use this object. Keep in mind that one object can have many uses. Separate your responses with a comma.",NA,"y",17890,NA,NA,1137,13810,NA,NA,NA,"to cover yourself, to keep warm, to provide shelter from elements",1
"558fff05fdf99b3f7aada357","9s6ur9ayhe","Affordance Norms_Prolific",1,24,"2023-05-14T19:12:58+00:00",19.437572956085,71,"updated stim.csv","Version71.csv","Version 71","List 71","orgy",NA,2120,4.782608696,1822,0.947032236,2121,"BOI","-","-","Please name all of the ways you could use this object. Keep in mind that one object can have many uses. Separate your responses with a comma.",NA,"y",19090,NA,NA,4371,18658,NA,NA,NA,"to experience pleasure, to increase risk, to meet others",1
"558fff05fdf99b3f7aada357","9s6ur9ayhe","Affordance Norms_Prolific",1,25,"2023-05-14T19:13:17+00:00",18.638118982315,71,"updated stim.csv","Version71.csv","Version 71","List 71","buttonhook",NA,2130,4.45,383,0.638440994,2131,"BOI","-","-","Please name all of the ways you could use this object. Keep in mind that one object can have many uses. Separate your responses with a comma.",NA,"y",18306,NA,NA,2323,17923,NA,NA,NA,"to sew on buttons, to hold buttons, to facilitate fabric crafts",1
"558fff05fdf99b3f7aada357","9s6ur9ayhe","Affordance Norms_Prolific",1,26,"2023-05-14T19:13:34+00:00",17.637281179428,71,"updated stim.csv","Version71.csv","Version 71","List 71","grapefruit",NA,2124,5.96,1157,0.442700746,2125,"BOI","-","-","Please name all of the ways you could use this object. Keep in mind that one object can have many uses. Separate your responses with a comma.",NA,"y",17280,NA,NA,1121,15200,NA,NA,NA,"to eat, to make a drink out of, to put into salads",1
"558fff05fdf99b3f7aada357","9s6ur9ayhe","Affordance Norms_Prolific",1,27,"2023-05-14T19:13:50+00:00",15.448990821838,71,"updated stim.csv","Version71.csv","Version 71","List 71","domino",NA,2126,5.96,818,0.026300449,2127,"BOI","-","-","Please name all of the ways you could use this object. Keep in mind that one object can have many uses. Separate your responses with a comma.",NA,"y",15117,NA,NA,3390,13853,NA,NA,NA,"to play games, to stack, to topple other dominos",1
"558fff05fdf99b3f7aada357","9s6ur9ayhe","Affordance Norms_Prolific",1,28,"2023-05-14T19:14:31+00:00",41.119114160538,71,"updated stim.csv","Version71.csv","Version 71","List 71","poop",NA,2109,5.88,2034,0.100175681,2110,"BOI","-","-","Please name all of the ways you could use this object. Keep in mind that one object can have many uses. Separate your responses with a comma.",NA,"y",40782,NA,NA,2944,38847,NA,NA,NA,"to relieve the body of waste, to use as manure, to help learn about diseases, viruses, and illnesses",1
"558fff05fdf99b3f7aada357","9s6ur9ayhe","Affordance Norms_Prolific",1,29,"2023-05-14T19:14:49+00:00",18.372936964035,71,"updated stim.csv","Version71.csv","Version 71","List 71","spine",NA,2108,4.8,2475,0.418522551,2109,"BOI","-","-","Please name all of the ways you could use this object. Keep in mind that one object can have many uses. Separate your responses with a comma.",NA,"y",18028,NA,NA,1950,12269,NA,NA,NA,"to keep the body upright, to bind together pages in a book",1
"558fff05fdf99b3f7aada357","9s6ur9ayhe","Affordance Norms_Prolific",1,30,"2023-05-14T19:15:08+00:00",18.911206960678,71,"updated stim.csv","Version71.csv","Version 71","List 71","sprayer",NA,2110,4.96,2486,0.350230295,2111,"BOI","-","-","Please name all of the ways you could use this object. Keep in mind that one object can have many uses. Separate your responses with a comma.",NA,"y",18557,NA,NA,1279,17230,NA,NA,NA,"to water things, to keep away pests, to apply chemicals",1
"558fff05fdf99b3f7aada357","9s6ur9ayhe","Affordance Norms_Prolific",1,31,"2023-05-14T19:15:38+00:00",29.470467090607,71,"updated stim.csv","Version71.csv","Version 71","List 71","headmistress",NA,2103,4.555555556,1268,0.98803072,2104,"BOI","-","-","Please name all of the ways you could use this object. Keep in mind that one object can have many uses. Separate your responses with a comma.",NA,"y",29127,NA,NA,2105,28871,NA,NA,NA,"to keep order in a school, to provide guidance to others, to act as a role model",1
"558fff05fdf99b3f7aada357","9s6ur9ayhe","Affordance Norms_Prolific",1,32,"2023-05-14T19:16:07+00:00",29.112083911896,71,"updated stim.csv","Version71.csv","Version 71","List 71","hand",NA,2102,6.44,1228,0.867410908,2103,"BOI","-","-","Please name all of the ways you could use this object. Keep in mind that one object can have many uses. Separate your responses with a comma.",NA,"y",28762,NA,NA,1372,26475,NA,NA,NA,"to hold, to touch, to hit, to make signals, to grasp, to point, to flick",1
"558fff05fdf99b3f7aada357","9s6ur9ayhe","Affordance Norms_Prolific",1,33,"2023-05-14T19:16:36+00:00",29.051625967026,71,"updated stim.csv","Version71.csv","Version 71","List 71","beggar",NA,2125,4.28,195,0.757191442,2126,"BOI","-","-","Please name all of the ways you could use this object. Keep in mind that one object can have many uses. Separate your responses with a comma.",NA,"y",28678,NA,NA,10120,14135,NA,NA,NA,"a source of cheap labor",1
"558fff05fdf99b3f7aada357","9s6ur9ayhe","Affordance Norms_Prolific",1,34,"2023-05-14T19:17:13+00:00",36.864166021347,71,"updated stim.csv","Version71.csv","Version 71","List 71","villager",NA,2104,4.666666667,2859,0.175805876,2105,"BOI","-","-","Please name all of the ways you could use this object. Keep in mind that one object can have many uses. Separate your responses with a comma.",NA,"y",36505,NA,NA,13851,35897,NA,NA,NA,"to be a part of society, to pay taxes, to be laborers, to boost populations",1
"558fff05fdf99b3f7aada357","9s6ur9ayhe","Affordance Norms_Prolific",1,35,"2023-05-14T19:18:00+00:00",47.02231502533,71,"updated stim.csv","Version71.csv","Version 71","List 71","terrace",NA,2105,4.454545455,2667,0.585068343,2106,"BOI","-","-","Please name all of the ways you could use this object. Keep in mind that one object can have many uses. Separate your responses with a comma.",NA,"y",46672,NA,NA,8386,46257,NA,NA,NA,"a place for viewing, an extension of a habitat, a place for people to relax, a place for small gatherings",1
"558fff05fdf99b3f7aada357","9s6ur9ayhe","Affordance Norms_Prolific",1,36,"2023-05-14T19:18:49+00:00",48.816704034805,71,"updated stim.csv","Version71.csv","Version 71","List 71","turf",NA,2116,4.36,2800,0.899766043,2117,"BOI","-","-","Please name all of the ways you could use this object. Keep in mind that one object can have many uses. Separate your responses with a comma.",NA,"y",48463,NA,NA,6832,47727,NA,NA,NA,"to create a place for walking, to provide even ground for use in other applications",1
"558fff05fdf99b3f7aada357","9s6ur9ayhe","Affordance Norms_Prolific",1,37,"2023-05-14T19:19:16+00:00",27.486371040344,71,"updated stim.csv","Version71.csv","Version 71","List 71","mansion",NA,2117,4.52173913,1593,0.335417116,2118,"BOI","-","-","Please name all of the ways you could use this object. Keep in mind that one object can have many uses. Separate your responses with a comma.",NA,"y",27137,NA,NA,3490,25426,NA,NA,NA,"luxury housing, to preserve wealth, to be showy and ostentatious",1
"558fff05fdf99b3f7aada357","9s6ur9ayhe","Affordance Norms_Prolific",1,38,"2023-05-14T19:19:35+00:00",19.057994842529,71,"updated stim.csv","Version71.csv","Version 71","List 71","cantaloupe",NA,2127,5.666666667,418,0.928687207,2128,"BOI","-","-","Please name all of the ways you could use this object. Keep in mind that one object can have many uses. Separate your responses with a comma.",NA,"y",18710,NA,NA,2007,17558,NA,NA,NA,"to eat, to feed to others, to give to animals as a treat, to use in other foods like desserts",1
"558fff05fdf99b3f7aada357","9s6ur9ayhe","Affordance Norms_Prolific",1,39,"2023-05-14T19:20:04+00:00",29.101355075836,71,"updated stim.csv","Version71.csv","Version 71","List 71","conch",NA,2129,4.285714286,618,0.385191309,2130,"BOI","-","-","Please name all of the ways you could use this object. Keep in mind that one object can have many uses. Separate your responses with a comma.",NA,"y",28742,NA,NA,12648,28519,NA,NA,NA,"can be used as decorative pieces, food for other sea creatures",1
"558fff05fdf99b3f7aada357","9s6ur9ayhe","Affordance Norms_Prolific",1,40,"2023-05-14T19:20:48+00:00",43.969002008438,71,"updated stim.csv","Version71.csv","Version 71","List 71","moss",NA,2123,4.565217391,1688,0.554631381,2124,"BOI","-","-","Please name all of the ways you could use this object. Keep in mind that one object can have many uses. Separate your responses with a comma.",NA,"y",43611,NA,NA,7149,43148,NA,NA,NA,"to create aquaponics, to add color to an environment, to help things stick together",1
"55b1add5fdf99b6731f04c5a","xaqbxrj77i","Affordance Norms_Prolific",1,11,"2023-05-14T00:53:33+00:00",26.001731872559,99,"updated stim.csv","Version99.csv","Version 99","List 99","builder",NA,2954,4.826086957,349,0.147528476,2955,"BOI","-","-","Please name all of the ways you could use this object. Keep in mind that one object can have many uses. Separate your responses with a comma.",NA,"y",25384,NA,NA,17515,24138,NA,NA,NA,"n/a",1
"55b1add5fdf99b6731f04c5a","xaqbxrj77i","Affordance Norms_Prolific",1,12,"2023-05-14T00:53:51+00:00",17.874380111694,99,"updated stim.csv","Version99.csv","Version 99","List 99","concert",NA,2949,4.714285714,617,0.731468268,2950,"BOI","-","-","Please name all of the ways you could use this object. Keep in mind that one object can have many uses. Separate your responses with a comma.",NA,"y",16230,NA,NA,2977,14624,NA,NA,NA,"listen to it, attend it, cancel it",1
"55b1add5fdf99b6731f04c5a","xaqbxrj77i","Affordance Norms_Prolific",1,13,"2023-05-14T00:54:06+00:00",14.988813877106,99,"updated stim.csv","Version99.csv","Version 99","List 99","horseman",NA,2956,4.28,1314,0.643703064,2957,"BOI","-","-","Please name all of the ways you could use this object. Keep in mind that one object can have many uses. Separate your responses with a comma.",NA,"y",14214,NA,NA,4032,8575,NA,NA,NA,"move on chess board",1
"55b1add5fdf99b6731f04c5a","xaqbxrj77i","Affordance Norms_Prolific",1,14,"2023-05-14T00:54:30+00:00",23.554360151291,99,"updated stim.csv","Version99.csv","Version 99","List 99","thyme",NA,2941,4.958333333,2691,0.394545149,2942,"BOI","-","-","Please name all of the ways you could use this object. Keep in mind that one object can have many uses. Separate your responses with a comma.",NA,"y",22918,NA,NA,4108,21004,NA,NA,NA,"fragrance, add to food, add to candles, use as medicinal herb",1
"55b1add5fdf99b6731f04c5a","xaqbxrj77i","Affordance Norms_Prolific",1,15,"2023-05-14T00:54:51+00:00",21.389691829681,99,"updated stim.csv","Version99.csv","Version 99","List 99","bomb",NA,2970,4.384615385,264,0.127189072,2971,"BOI","-","-","Please name all of the ways you could use this object. Keep in mind that one object can have many uses. Separate your responses with a comma.",NA,"y",20684,NA,NA,1878,19165,NA,NA,NA,"detonate it, disable it, throw it",1
"55b1add5fdf99b6731f04c5a","xaqbxrj77i","Affordance Norms_Prolific",1,16,"2023-05-14T00:55:15+00:00",23.404761075974,99,"updated stim.csv","Version99.csv","Version 99","List 99","cattle",NA,2969,4.625,463,0.654880063,2970,"BOI","-","-","Please name all of the ways you could use this object. Keep in mind that one object can have many uses. Separate your responses with a comma.",NA,"y",22628,NA,NA,2022,21349,NA,NA,NA,"eat it, wash it, ride it",1
"55b1add5fdf99b6731f04c5a","xaqbxrj77i","Affordance Norms_Prolific",1,17,"2023-05-14T00:55:47+00:00",32.741804122925,99,"updated stim.csv","Version99.csv","Version 99","List 99","forefinger",NA,2965,5.16,1044,0.498173651,2966,"BOI","-","-","Please name all of the ways you could use this object. Keep in mind that one object can have many uses. Separate your responses with a comma.",NA,"y",31620,NA,NA,4622,29469,NA,NA,NA,"scratch an itch, pick your nose, remove makeup, point at something, plug my ear",1
"55b1add5fdf99b6731f04c5a","xaqbxrj77i","Affordance Norms_Prolific",1,18,"2023-05-14T00:56:09+00:00",21.458191871643,99,"updated stim.csv","Version99.csv","Version 99","List 99","doughnut",NA,2966,6.260869565,834,0.843103669,2967,"BOI","-","-","Please name all of the ways you could use this object. Keep in mind that one object can have many uses. Separate your responses with a comma.",NA,"y",20734,NA,NA,3616,19327,NA,NA,NA,"use as bread crumbs, feed birds, trash it",1
"55b1add5fdf99b6731f04c5a","xaqbxrj77i","Affordance Norms_Prolific",1,19,"2023-05-14T00:56:25+00:00",16.39178609848,99,"updated stim.csv","Version99.csv","Version 99","List 99","employer",NA,2944,5.291666667,904,0.445797606,2945,"BOI","-","-","Please name all of the ways you could use this object. Keep in mind that one object can have many uses. Separate your responses with a comma.",NA,"y",15680,NA,NA,4153,13620,NA,NA,NA,"work for them, speak with them",1
"55b1add5fdf99b6731f04c5a","xaqbxrj77i","Affordance Norms_Prolific",1,20,"2023-05-14T00:56:45+00:00",20.173050880432,99,"updated stim.csv","Version99.csv","Version 99","List 99","rat",NA,2950,4.608695652,2139,0.676623243,2951,"BOI","-","-","Please name all of the ways you could use this object. Keep in mind that one object can have many uses. Separate your responses with a comma.",NA,"y",19533,NA,NA,7184,14687,NA,NA,NA,"use as a pet, scare someone",1
"55b1add5fdf99b6731f04c5a","xaqbxrj77i","Affordance Norms_Prolific",1,21,"2023-05-14T00:57:06+00:00",21.002655029297,99,"updated stim.csv","Version99.csv","Version 99","List 99","plant",NA,2963,5.652173913,1989,0.989671933,2964,"BOI","-","-","Please name all of the ways you could use this object. Keep in mind that one object can have many uses. Separate your responses with a comma.",NA,"y",20186,NA,NA,8196,16923,NA,NA,NA,"make a room nicer, eat it, make medicine",1
"55b1add5fdf99b6731f04c5a","xaqbxrj77i","Affordance Norms_Prolific",1,22,"2023-05-14T00:57:34+00:00",27.144889116287,99,"updated stim.csv","Version99.csv","Version 99","List 99","casebook",NA,2957,5.391304348,446,0.259789804,2958,"BOI","-","-","Please name all of the ways you could use this object. Keep in mind that one object can have many uses. Separate your responses with a comma.",NA,"y",26358,NA,NA,10896,24415,NA,NA,NA,"read it, analyze it, burn it, destroy it, hide it",0.984
"55b1add5fdf99b6731f04c5a","xaqbxrj77i","Affordance Norms_Prolific",1,23,"2023-05-14T00:57:57+00:00",23.412461996078,99,"updated stim.csv","Version99.csv","Version 99","List 99","flour",NA,2946,5.875,1014,0.326059496,2947,"BOI","-","-","Please name all of the ways you could use this object. Keep in mind that one object can have many uses. Separate your responses with a comma.",NA,"y",22629,NA,NA,3975,20526,NA,NA,NA,"make tortillas, bake goods, use to soak up oil",1
"55b1add5fdf99b6731f04c5a","xaqbxrj77i","Affordance Norms_Prolific",1,24,"2023-05-14T00:58:17+00:00",20.150245904922,99,"updated stim.csv","Version99.csv","Version 99","List 99","aunt",NA,2960,5.041666667,98,0.66325424,2961,"BOI","-","-","Please name all of the ways you could use this object. Keep in mind that one object can have many uses. Separate your responses with a comma.",NA,"y",19430,NA,NA,4510,18271,NA,NA,NA,"Use as a babysitter, hug her, dine with her",1
"55b1add5fdf99b6731f04c5a","xaqbxrj77i","Affordance Norms_Prolific",1,25,"2023-05-14T00:58:39+00:00",21.891298055649,99,"updated stim.csv","Version99.csv","Version 99","List 99","actor",NA,2961,4.739130435,10,0.321005819,2962,"BOI","-","-","Please name all of the ways you could use this object. Keep in mind that one object can have many uses. Separate your responses with a comma.",NA,"y",21277,NA,NA,7832,19903,NA,NA,NA,"watch them perform, ask for autograph, admire them",0.946
"55b1add5fdf99b6731f04c5a","xaqbxrj77i","Affordance Norms_Prolific",1,26,"2023-05-14T00:58:58+00:00",18.736359834671,99,"updated stim.csv","Version99.csv","Version 99","List 99","calender",NA,2945,5.84,401,0.007963655,2946,"BOI","-","-","Please name all of the ways you could use this object. Keep in mind that one object can have many uses. Separate your responses with a comma.",NA,"y",18044,NA,NA,3377,16280,NA,NA,NA,"write on it, keep track of it, reschedule appts",1
"55b1add5fdf99b6731f04c5a","xaqbxrj77i","Affordance Norms_Prolific",1,27,"2023-05-14T00:59:16+00:00",18.247418165207,99,"updated stim.csv","Version99.csv","Version 99","List 99","armpit",NA,2967,5.52,75,0.064450497,2968,"BOI","-","-","Please name all of the ways you could use this object. Keep in mind that one object can have many uses. Separate your responses with a comma.",NA,"y",17613,NA,NA,3761,16081,NA,NA,NA,"scratch it, shave it, hide it",1
"55b1add5fdf99b6731f04c5a","xaqbxrj77i","Affordance Norms_Prolific",1,28,"2023-05-14T00:59:37+00:00",21.391317844391,99,"updated stim.csv","Version99.csv","Version 99","List 99","recorder",NA,2962,5.8,2148,0.477529533,2963,"BOI","-","-","Please name all of the ways you could use this object. Keep in mind that one object can have many uses. Separate your responses with a comma.",NA,"y",20765,NA,NA,9952,18903,NA,NA,NA,"record sounds, take notes",1
"55b1add5fdf99b6731f04c5a","xaqbxrj77i","Affordance Norms_Prolific",1,29,"2023-05-14T00:59:57+00:00",20.058929204941,99,"updated stim.csv","Version99.csv","Version 99","List 99","tar",NA,2951,4.37037037,2635,0.507895098,2952,"BOI","-","-","Please name all of the ways you could use this object. Keep in mind that one object can have many uses. Separate your responses with a comma.",NA,"y",19402,NA,NA,3532,17429,NA,NA,NA,"pave a driveway, stick two things together",1
"55b1add5fdf99b6731f04c5a","xaqbxrj77i","Affordance Norms_Prolific",1,30,"2023-05-14T01:01:54+00:00",116.79927897453,99,"updated stim.csv","Version99.csv","Version 99","List 99","stepfather",NA,2948,5.16,2526,0.250186835,2949,"BOI","-","-","Please name all of the ways you could use this object. Keep in mind that one object can have many uses. Separate your responses with a comma.",NA,"y",116129,NA,NA,106675,114618,NA,NA,NA,"talk to him, learn from him, bond with him",0.426
"55b1add5fdf99b6731f04c5a","xaqbxrj77i","Affordance Norms_Prolific",1,31,"2023-05-14T01:02:20+00:00",26.14000582695,99,"updated stim.csv","Version99.csv","Version 99","List 99","building",NA,2968,5.208333333,350,0.964957786,2969,"BOI","-","-","Please name all of the ways you could use this object. Keep in mind that one object can have many uses. Separate your responses with a comma.",NA,"y",25580,NA,NA,4773,24341,NA,NA,NA,"use for storage, rent it, buy it, demolish it, design it",1
"55b1add5fdf99b6731f04c5a","xaqbxrj77i","Affordance Norms_Prolific",1,32,"2023-05-14T01:02:32+00:00",11.798636198044,99,"updated stim.csv","Version99.csv","Version 99","List 99","springboard",NA,2943,5,2488,0.395474663,2944,"BOI","-","-","Please name all of the ways you could use this object. Keep in mind that one object can have many uses. Separate your responses with a comma.",NA,"y",11113,NA,NA,7352,9681,NA,NA,NA,"Use as hoist",1
"55b1add5fdf99b6731f04c5a","xaqbxrj77i","Affordance Norms_Prolific",1,33,"2023-05-14T01:02:53+00:00",20.934433937073,99,"updated stim.csv","Version99.csv","Version 99","List 99","toast",NA,2953,6.2,2709,0.040447256,2954,"BOI","-","-","Please name all of the ways you could use this object. Keep in mind that one object can have many uses. Separate your responses with a comma.",NA,"y",20355,NA,NA,2212,18820,NA,NA,NA,"Eat it, make bread crumbs, feed birds, make sandwiches",1
"55b1add5fdf99b6731f04c5a","xaqbxrj77i","Affordance Norms_Prolific",1,34,"2023-05-14T01:03:12+00:00",18.58668589592,99,"updated stim.csv","Version99.csv","Version 99","List 99","mitt",NA,2959,6.08,1670,0.150421439,2960,"BOI","-","-","Please name all of the ways you could use this object. Keep in mind that one object can have many uses. Separate your responses with a comma.",NA,"y",17908,NA,NA,2942,16814,NA,NA,NA,"hide things, catch balls, throw for success",1
"55b1add5fdf99b6731f04c5a","xaqbxrj77i","Affordance Norms_Prolific",1,35,"2023-05-14T01:03:31+00:00",19.132348060608,99,"updated stim.csv","Version99.csv","Version 99","List 99","garbage",NA,2952,4.96,1075,0.550243861,2953,"BOI","-","-","Please name all of the ways you could use this object. Keep in mind that one object can have many uses. Separate your responses with a comma.",NA,"y",18237,NA,NA,1909,16278,NA,NA,NA,"throw it away, recycle it, clean it up",1
"55b1add5fdf99b6731f04c5a","xaqbxrj77i","Affordance Norms_Prolific",1,36,"2023-05-14T01:03:52+00:00",21.435653924942,99,"updated stim.csv","Version99.csv","Version 99","List 99","stall",NA,2955,4.625,2504,0.320988124,2956,"BOI","-","-","Please name all of the ways you could use this object. Keep in mind that one object can have many uses. Separate your responses with a comma.",NA,"y",20630,NA,NA,3685,19278,NA,NA,NA,"lock it, place animals in it",0.968
"55b1add5fdf99b6731f04c5a","xaqbxrj77i","Affordance Norms_Prolific",1,37,"2023-05-14T01:04:17+00:00",25.123463153839,99,"updated stim.csv","Version99.csv","Version 99","List 99","vaseline",NA,2964,5.608695652,2839,0.512026117,2965,"BOI","-","-","Please name all of the ways you could use this object. Keep in mind that one object can have many uses. Separate your responses with a comma.",NA,"y",24281,NA,NA,2866,22818,NA,NA,NA,"moisturize lips, use as lube, grease your scalp, use on baby",1
"55b1add5fdf99b6731f04c5a","xaqbxrj77i","Affordance Norms_Prolific",1,38,"2023-05-14T01:04:39+00:00",21.565393924713,99,"updated stim.csv","Version99.csv","Version 99","List 99","river",NA,2947,4.64,2172,0.373876547,2948,"BOI","-","-","Please name all of the ways you could use this object. Keep in mind that one object can have many uses. Separate your responses with a comma.",NA,"y",20949,NA,NA,2632,19310,NA,NA,NA,"fish from it, cruise on it, swim in it, ice skate on it",1
"55b1add5fdf99b6731f04c5a","xaqbxrj77i","Affordance Norms_Prolific",1,39,"2023-05-14T01:04:59+00:00",19.951122045517,99,"updated stim.csv","Version99.csv","Version 99","List 99","contraceptive",NA,2958,5.391304348,629,0.144524493,2959,"BOI","-","-","Please name all of the ways you could use this object. Keep in mind that one object can have many uses. Separate your responses with a comma.",NA,"y",18839,NA,NA,5071,15166,NA,NA,NA,"inject it, insert it. wear it, consume it",1
"55b1add5fdf99b6731f04c5a","xaqbxrj77i","Affordance Norms_Prolific",1,40,"2023-05-14T01:05:24+00:00",24.776174068451,99,"updated stim.csv","Version99.csv","Version 99","List 99","horseradish",NA,2942,5.24,1315,0.715399722,2943,"BOI","-","-","Please name all of the ways you could use this object. Keep in mind that one object can have many uses. Separate your responses with a comma.",NA,"y",24205,NA,NA,5262,22742,NA,NA,NA,"use to clear sinuses, make cocktail sauce, use on prime rib",1
"55b67c31fdf99b26b999cc1e","cv386zsy9u","Affordance Norms_Prolific",1,11,"2023-05-13T22:02:13+00:00",23.002668857574,84,"updated stim.csv","Version84.csv","Version 84","List 84","file",NA,2502,5.041666667,974,0.376378631,2503,"BOI","-","-","Please name all of the ways you could use this object. Keep in mind that one object can have many uses. Separate your responses with a comma.",NA,"y",22608,NA,NA,7635,22040,NA,NA,NA,"shape fingernails, shape other objects, stab someone",1
"55b67c31fdf99b26b999cc1e","cv386zsy9u","Affordance Norms_Prolific",1,12,"2023-05-13T22:02:24+00:00",10.128000974655,84,"updated stim.csv","Version84.csv","Version 84","List 84","strudel",NA,2505,5.666666667,2572,0.141914564,2506,"BOI","-","-","Please name all of the ways you could use this object. Keep in mind that one object can have many uses. Separate your responses with a comma.",NA,"y",9730,NA,NA,1108,8524,NA,NA,NA,"eat, give away, feed to animals",1
"55b67c31fdf99b26b999cc1e","cv386zsy9u","Affordance Norms_Prolific",1,13,"2023-05-13T22:02:36+00:00",12.380726099014,84,"updated stim.csv","Version84.csv","Version 84","List 84","spade",NA,2496,4.4,2460,0.413437675,2497,"BOI","-","-","Please name all of the ways you could use this object. Keep in mind that one object can have many uses. Separate your responses with a comma.",NA,"y",11994,NA,NA,2380,7456,NA,NA,NA,"dig a garden, dig a hole",1
"55b67c31fdf99b26b999cc1e","cv386zsy9u","Affordance Norms_Prolific",1,14,"2023-05-13T22:02:49+00:00",12.6172311306,84,"updated stim.csv","Version84.csv","Version 84","List 84","virgin",NA,2500,4.448275862,2867,0.256632601,2501,"BOI","-","-","Please name all of the ways you could use this object. Keep in mind that one object can have many uses. Separate your responses with a comma.",NA,"y",12235,NA,NA,3287,11825,NA,NA,NA,"sacrifice, marry, have sex first",1
"55b67c31fdf99b26b999cc1e","cv386zsy9u","Affordance Norms_Prolific",1,15,"2023-05-13T22:02:57+00:00",8.7332088947296,84,"updated stim.csv","Version84.csv","Version 84","List 84","drum",NA,2497,5.8,854,0.896443276,2498,"BOI","-","-","Please name all of the ways you could use this object. Keep in mind that one object can have many uses. Separate your responses with a comma.",NA,"y",8314,NA,NA,1274,7638,NA,NA,NA,"beat, play, sit on, roll",1
"55b67c31fdf99b26b999cc1e","cv386zsy9u","Affordance Norms_Prolific",1,16,"2023-05-13T22:03:09+00:00",11.635080099106,84,"updated stim.csv","Version84.csv","Version 84","List 84","flycatcher",NA,2491,5.375,1020,0.717036462,2492,"BOI","-","-","Please name all of the ways you could use this object. Keep in mind that one object can have many uses. Separate your responses with a comma.",NA,"y",11264,NA,NA,1994,8483,NA,NA,NA,"catch flies, catch other bugs",1
"55b67c31fdf99b26b999cc1e","cv386zsy9u","Affordance Norms_Prolific",1,17,"2023-05-13T22:03:21+00:00",12.601261854172,84,"updated stim.csv","Version84.csv","Version 84","List 84","lever",NA,2492,5.038461538,1498,0.735422312,2493,"BOI","-","-","Please name all of the ways you could use this object. Keep in mind that one object can have many uses. Separate your responses with a comma.",NA,"y",12201,NA,NA,2488,11795,NA,NA,NA,"pull, push, lift, lower, turn",1
"55b67c31fdf99b26b999cc1e","cv386zsy9u","Affordance Norms_Prolific",1,18,"2023-05-13T22:03:32+00:00",10.844674110413,84,"updated stim.csv","Version84.csv","Version 84","List 84","lamplighter",NA,2514,4.263157895,1457,0.501380127,2515,"BOI","-","-","Please name all of the ways you could use this object. Keep in mind that one object can have many uses. Separate your responses with a comma.",NA,"y",10437,NA,NA,1547,10302,NA,NA,NA,"light a lamp, light paper, light a fire, light grill",1
"55b67c31fdf99b26b999cc1e","cv386zsy9u","Affordance Norms_Prolific",1,19,"2023-05-13T22:03:44+00:00",11.298133850098,84,"updated stim.csv","Version84.csv","Version 84","List 84","grocery",NA,2512,5.068965517,1179,0.868982261,2513,"BOI","-","-","Please name all of the ways you could use this object. Keep in mind that one object can have many uses. Separate your responses with a comma.",NA,"y",10911,NA,NA,1826,10690,NA,NA,NA,"eat, cook, order, feed to animals, store in fridge",1
"55b67c31fdf99b26b999cc1e","cv386zsy9u","Affordance Norms_Prolific",1,20,"2023-05-13T22:04:01+00:00",17.066864967346,84,"updated stim.csv","Version84.csv","Version 84","List 84","lifeguard",NA,2520,4.96,1506,0.061995952,2521,"BOI","-","-","Please name all of the ways you could use this object. Keep in mind that one object can have many uses. Separate your responses with a comma.",NA,"y",16671,NA,NA,1494,15691,NA,NA,NA,"save lives, swim",1
"55b67c31fdf99b26b999cc1e","cv386zsy9u","Affordance Norms_Prolific",1,21,"2023-05-13T22:04:11+00:00",10.066705226898,84,"updated stim.csv","Version84.csv","Version 84","List 84","foliage",NA,2511,4.6,1025,0.540952756,2512,"BOI","-","-","Please name all of the ways you could use this object. Keep in mind that one object can have many uses. Separate your responses with a comma.",NA,"y",9699,NA,NA,2426,7584,NA,NA,NA,"decorate, plant, pull, burn",1
"55b67c31fdf99b26b999cc1e","cv386zsy9u","Affordance Norms_Prolific",1,22,"2023-05-13T22:04:18+00:00",6.7850108146667,84,"updated stim.csv","Version84.csv","Version 84","List 84","insole",NA,2510,4.454545455,1358,0.030018576,2511,"BOI","-","-","Please name all of the ways you could use this object. Keep in mind that one object can have many uses. Separate your responses with a comma.",NA,"y",6391,NA,NA,1441,2856,NA,NA,NA,"put in shoe",1
"55b67c31fdf99b26b999cc1e","cv386zsy9u","Affordance Norms_Prolific",1,23,"2023-05-13T22:04:24+00:00",6.5433721542358,84,"updated stim.csv","Version84.csv","Version 84","List 84","hatchback",NA,2513,4.818181818,1260,0.956452001,2514,"BOI","-","-","Please name all of the ways you could use this object. Keep in mind that one object can have many uses. Separate your responses with a comma.",NA,"y",6160,NA,NA,1435,4802,NA,NA,NA,"open, store things, close",1
"55b67c31fdf99b26b999cc1e","cv386zsy9u","Affordance Norms_Prolific",1,24,"2023-05-13T22:04:34+00:00",10.107011795044,84,"updated stim.csv","Version84.csv","Version 84","List 84","woodpile",NA,2508,5,2962,0.539971899,2509,"BOI","-","-","Please name all of the ways you could use this object. Keep in mind that one object can have many uses. Separate your responses with a comma.",NA,"y",9719,NA,NA,1689,5279,NA,NA,NA,"burn, stack, share",1
"55b67c31fdf99b26b999cc1e","cv386zsy9u","Affordance Norms_Prolific",1,25,"2023-05-13T22:05:19+00:00",44.325512170792,84,"updated stim.csv","Version84.csv","Version 84","List 84","whirlpool",NA,2501,4.565217391,2926,0.806493724,2502,"BOI","-","-","Please name all of the ways you could use this object. Keep in mind that one object can have many uses. Separate your responses with a comma.",NA,"y",43927,NA,NA,5789,31122,NA,NA,NA,"store stuff in, relax in, swim in",1
"55b67c31fdf99b26b999cc1e","cv386zsy9u","Affordance Norms_Prolific",1,26,"2023-05-13T22:05:34+00:00",15.663837909698,84,"updated stim.csv","Version84.csv","Version 84","List 84","earthworm",NA,2495,4.916666667,883,0.28261322,2496,"BOI","-","-","Please name all of the ways you could use this object. Keep in mind that one object can have many uses. Separate your responses with a comma.",NA,"y",15204,NA,NA,2366,14682,NA,NA,NA,"eat, use as bait, cook with, scare someone with",1
"55b67c31fdf99b26b999cc1e","cv386zsy9u","Affordance Norms_Prolific",1,27,"2023-05-13T22:05:55+00:00",20.342940092087,84,"updated stim.csv","Version84.csv","Version 84","List 84","coffin",NA,2498,5.52,594,0.959219252,2499,"BOI","-","-","Please name all of the ways you could use this object. Keep in mind that one object can have many uses. Separate your responses with a comma.",NA,"y",19950,NA,NA,3191,19172,NA,NA,NA,"bury, put deceased in, scare someone, use in haunted house, burn for fire",1
"55b67c31fdf99b26b999cc1e","cv386zsy9u","Affordance Norms_Prolific",1,28,"2023-05-13T22:06:02+00:00",7.1881909370422,84,"updated stim.csv","Version84.csv","Version 84","List 84","ecologist",NA,2493,4.458333333,887,0.370586112,2494,"BOI","-","-","Please name all of the ways you could use this object. Keep in mind that one object can have many uses. Separate your responses with a comma.",NA,"y",6790,NA,NA,4189,6611,NA,NA,NA,"use for business",1
"55b67c31fdf99b26b999cc1e","cv386zsy9u","Affordance Norms_Prolific",1,29,"2023-05-13T22:06:14+00:00",11.917601108551,84,"updated stim.csv","Version84.csv","Version 84","List 84","plank",NA,2516,4.92,1987,0.104474765,2517,"BOI","-","-","Please name all of the ways you could use this object. Keep in mind that one object can have many uses. Separate your responses with a comma.",NA,"y",11532,NA,NA,1266,11322,NA,NA,NA,"walk on it, burn it, stack things, use as walls, ",1
"55b67c31fdf99b26b999cc1e","cv386zsy9u","Affordance Norms_Prolific",1,30,"2023-05-13T22:06:36+00:00",22.54337978363,84,"updated stim.csv","Version84.csv","Version 84","List 84","men",NA,2509,5.72,1644,0.146823724,2510,"BOI","-","-","Please name all of the ways you could use this object. Keep in mind that one object can have many uses. Separate your responses with a comma.",NA,"y",22150,NA,NA,2380,20803,NA,NA,NA,"marry, date, have sex, build things, fix things, mow the lawn, maintenance",1
"55b67c31fdf99b26b999cc1e","cv386zsy9u","Affordance Norms_Prolific",1,31,"2023-05-13T22:06:50+00:00",13.670837163925,84,"updated stim.csv","Version84.csv","Version 84","List 84","bait",NA,2503,4.375,125,0.805576651,2504,"BOI","-","-","Please name all of the ways you could use this object. Keep in mind that one object can have many uses. Separate your responses with a comma.",NA,"y",13277,NA,NA,1285,13095,NA,NA,NA,"fish, catch dinner, eat, feed to animals, catch wild animals",1
"55b67c31fdf99b26b999cc1e","cv386zsy9u","Affordance Norms_Prolific",1,32,"2023-05-13T22:07:08+00:00",17.878885984421,84,"updated stim.csv","Version84.csv","Version 84","List 84","lamp",NA,2515,6.083333333,1455,0.851826569,2516,"BOI","-","-","Please name all of the ways you could use this object. Keep in mind that one object can have many uses. Separate your responses with a comma.",NA,"y",17468,NA,NA,1458,17346,NA,NA,NA,"light up a room, light your path outside, turn on, use shade as hat",1
"55b67c31fdf99b26b999cc1e","cv386zsy9u","Affordance Norms_Prolific",1,33,"2023-05-13T22:07:15+00:00",7.0154139995575,84,"updated stim.csv","Version84.csv","Version 84","List 84","storehouse",NA,2504,4.5,2551,0.542917048,2505,"BOI","-","-","Please name all of the ways you could use this object. Keep in mind that one object can have many uses. Separate your responses with a comma.",NA,"y",6619,NA,NA,1179,5610,NA,NA,NA,"store things, hide in",1
"55b67c31fdf99b26b999cc1e","cv386zsy9u","Affordance Norms_Prolific",1,34,"2023-05-13T22:07:35+00:00",20.622286081314,84,"updated stim.csv","Version84.csv","Version 84","List 84","drapery",NA,2506,4.68,838,0.014862316,2507,"BOI","-","-","Please name all of the ways you could use this object. Keep in mind that one object can have many uses. Separate your responses with a comma.",NA,"y",20221,NA,NA,1222,17651,NA,NA,NA,"hang on window, cut for clothes, carry trash in, cover something up",1
"55b67c31fdf99b26b999cc1e","cv386zsy9u","Affordance Norms_Prolific",1,35,"2023-05-13T22:07:55+00:00",19.745302915573,84,"updated stim.csv","Version84.csv","Version 84","List 84","microwave",NA,2519,5.28,1656,0.580288811,2520,"BOI","-","-","Please name all of the ways you could use this object. Keep in mind that one object can have many uses. Separate your responses with a comma.",NA,"y",19334,NA,NA,1308,17853,NA,NA,NA,"cook food, warm food up, boil water, use the timer, defrost food",1
"55b67c31fdf99b26b999cc1e","cv386zsy9u","Affordance Norms_Prolific",1,36,"2023-05-13T22:08:17+00:00",22.129184007645,84,"updated stim.csv","Version84.csv","Version 84","List 84","board",NA,2518,4.48,253,0.78576646,2519,"BOI","-","-","Please name all of the ways you could use this object. Keep in mind that one object can have many uses. Separate your responses with a comma.",NA,"y",21730,NA,NA,2515,18651,NA,NA,NA,"burn, build, walls, floors, stepping path",1
"55b67c31fdf99b26b999cc1e","cv386zsy9u","Affordance Norms_Prolific",1,37,"2023-05-13T22:08:37+00:00",19.606497049332,84,"updated stim.csv","Version84.csv","Version 84","List 84","feather",NA,2517,5.260869565,956,0.408799734,2518,"BOI","-","-","Please name all of the ways you could use this object. Keep in mind that one object can have many uses. Separate your responses with a comma.",NA,"y",19230,NA,NA,1504,18727,NA,NA,NA,"tickle, use for good luck, put in a hat, craft something, burn",1
"55b67c31fdf99b26b999cc1e","cv386zsy9u","Affordance Norms_Prolific",1,38,"2023-05-13T22:08:49+00:00",12.13893198967,84,"updated stim.csv","Version84.csv","Version 84","List 84","shamrock",NA,2507,4.5,2321,0.881236324,2508,"BOI","-","-","Please name all of the ways you could use this object. Keep in mind that one object can have many uses. Separate your responses with a comma.",NA,"y",11759,NA,NA,1565,11611,NA,NA,NA,"save for good luck, pick, use for st patricks day",1
"55b67c31fdf99b26b999cc1e","cv386zsy9u","Affordance Norms_Prolific",1,39,"2023-05-13T22:09:05+00:00",15.883585929871,84,"updated stim.csv","Version84.csv","Version 84","List 84","chain",NA,2499,5.958333333,484,0.692046869,2500,"BOI","-","-","Please name all of the ways you could use this object. Keep in mind that one object can have many uses. Separate your responses with a comma.",NA,"y",15498,NA,NA,2365,14926,NA,NA,NA,"tie something down, wear, use as a weight",1
"55b67c31fdf99b26b999cc1e","cv386zsy9u","Affordance Norms_Prolific",1,40,"2023-05-13T22:09:18+00:00",12.884020090103,84,"updated stim.csv","Version84.csv","Version 84","List 84","toothpick",NA,2494,6.375,2734,0.454218489,2495,"BOI","-","-","Please name all of the ways you could use this object. Keep in mind that one object can have many uses. Separate your responses with a comma.",NA,"y",12506,NA,NA,1180,11414,NA,NA,NA,"pick teeth, hold food together, build a house, burn",1
"55da1c4669dbc30010b67569","k2r87ylskb","Affordance Norms_Prolific",1,11,"2023-05-14T17:26:18+00:00",13.495553016663,22,"updated stim.csv","Version22.csv","Version 22","List 22","peephole",NA,643,4.875,1907,0.044058693,644,"BOI","-","-","Please name all of the ways you could use this object. Keep in mind that one object can have many uses. Separate your responses with a comma.",NA,"y",12963,NA,NA,2201,11378,NA,NA,NA,"spying, letting in light",1
"55da1c4669dbc30010b67569","k2r87ylskb","Affordance Norms_Prolific",1,12,"2023-05-14T17:26:32+00:00",14.110748767853,22,"updated stim.csv","Version22.csv","Version 22","List 22","seawater",NA,633,4.961538462,2303,0.081957919,634,"BOI","-","-","Please name all of the ways you could use this object. Keep in mind that one object can have many uses. Separate your responses with a comma.",NA,"y",13655,NA,NA,4981,11878,NA,NA,NA,"swimming, extracting salt, cooking",1
"55da1c4669dbc30010b67569","k2r87ylskb","Affordance Norms_Prolific",1,13,"2023-05-14T17:26:45+00:00",12.688595056534,22,"updated stim.csv","Version22.csv","Version 22","List 22","artist",NA,651,4.782608696,80,0.726156662,652,"BOI","-","-","Please name all of the ways you could use this object. Keep in mind that one object can have many uses. Separate your responses with a comma.",NA,"y",12287,NA,NA,1709,8910,NA,NA,NA,"drawing, painting, sculpting",1
"55da1c4669dbc30010b67569","k2r87ylskb","Affordance Norms_Prolific",1,14,"2023-05-14T17:26:59+00:00",14.700775146484,22,"updated stim.csv","Version22.csv","Version 22","List 22","rosebush",NA,654,5.333333333,2195,0.69052429,655,"BOI","-","-","Please name all of the ways you could use this object. Keep in mind that one object can have many uses. Separate your responses with a comma.",NA,"y",14288,NA,NA,2886,12711,NA,NA,NA,"pruning, growing roses, defence",1
"55da1c4669dbc30010b67569","k2r87ylskb","Affordance Norms_Prolific",1,15,"2023-05-14T17:27:10+00:00",10.623584032059,22,"updated stim.csv","Version22.csv","Version 22","List 22","nightstick",NA,638,5.434782609,1774,0.995322937,639,"BOI","-","-","Please name all of the ways you could use this object. Keep in mind that one object can have many uses. Separate your responses with a comma.",NA,"y",10209,NA,NA,2751,9424,NA,NA,NA,"weapon, self defence",1
"55da1c4669dbc30010b67569","k2r87ylskb","Affordance Norms_Prolific",1,16,"2023-05-14T17:27:26+00:00",16.113317966461,22,"updated stim.csv","Version22.csv","Version 22","List 22","shield",NA,647,5.037037037,2338,0.491439171,648,"BOI","-","-","Please name all of the ways you could use this object. Keep in mind that one object can have many uses. Separate your responses with a comma.",NA,"y",15706,NA,NA,2575,12584,NA,NA,NA,"blocking, attacking, renaissance fair",1
"55da1c4669dbc30010b67569","k2r87ylskb","Affordance Norms_Prolific",1,17,"2023-05-14T17:27:46+00:00",20.030438899994,22,"updated stim.csv","Version22.csv","Version 22","List 22","puddle",NA,655,5,2089,0.140663882,656,"BOI","-","-","Please name all of the ways you could use this object. Keep in mind that one object can have many uses. Separate your responses with a comma.",NA,"y",19614,NA,NA,4292,14573,NA,NA,NA,"source of water, splashing, ",1
"55da1c4669dbc30010b67569","k2r87ylskb","Affordance Norms_Prolific",1,18,"2023-05-14T17:27:50+00:00",3.6508979797363,22,"updated stim.csv","Version22.csv","Version 22","List 22","carport",NA,632,4.28,439,0.557499565,633,"BOI","-","-","Please name all of the ways you could use this object. Keep in mind that one object can have many uses. Separate your responses with a comma.",NA,"y",3258,NA,NA,-1,-1,NA,NA,NA,"",1
"55da1c4669dbc30010b67569","k2r87ylskb","Affordance Norms_Prolific",1,19,"2023-05-14T17:28:12+00:00",22.518423080444,22,"updated stim.csv","Version22.csv","Version 22","List 22","parachute",NA,636,4.68,1868,0.70599198,637,"BOI","-","-","Please name all of the ways you could use this object. Keep in mind that one object can have many uses. Separate your responses with a comma.",NA,"y",22091,NA,NA,2879,20609,NA,NA,NA,"egg experiment, parachuting, drag racing",1
"55da1c4669dbc30010b67569","k2r87ylskb","Affordance Norms_Prolific",1,20,"2023-05-14T17:28:21+00:00",8.2358078956604,22,"updated stim.csv","Version22.csv","Version 22","List 22","clipper",NA,650,4.923076923,562,0.212052319,651,"BOI","-","-","Please name all of the ways you could use this object. Keep in mind that one object can have many uses. Separate your responses with a comma.",NA,"y",7821,NA,NA,3060,6900,NA,NA,NA,"cutting hair",1
"55da1c4669dbc30010b67569","k2r87ylskb","Affordance Norms_Prolific",1,21,"2023-05-14T17:28:43+00:00",22.350797176361,22,"updated stim.csv","Version22.csv","Version 22","List 22","mountainside",NA,635,4.708333333,1700,0.685106443,636,"BOI","-","-","Please name all of the ways you could use this object. Keep in mind that one object can have many uses. Separate your responses with a comma.",NA,"y",21950,NA,NA,1595,20813,NA,NA,NA,"skiing, downhill biking, painting, hiking",1
"55da1c4669dbc30010b67569","k2r87ylskb","Affordance Norms_Prolific",1,22,"2023-05-14T17:28:53+00:00",9.7545099258423,22,"updated stim.csv","Version22.csv","Version 22","List 22","boomerang",NA,648,5.666666667,280,0.252502843,649,"BOI","-","-","Please name all of the ways you could use this object. Keep in mind that one object can have many uses. Separate your responses with a comma.",NA,"y",9360,NA,NA,1711,8839,NA,NA,NA,"throwing, weapon, sport",1
"55da1c4669dbc30010b67569","k2r87ylskb","Affordance Norms_Prolific",1,23,"2023-05-14T17:29:14+00:00",20.884631872177,22,"updated stim.csv","Version22.csv","Version 22","List 22","wigmaker",NA,645,4.36,2936,0.405238599,646,"BOI","-","-","Please name all of the ways you could use this object. Keep in mind that one object can have many uses. Separate your responses with a comma.",NA,"y",20454,NA,NA,4028,19749,NA,NA,NA,"helping with baldness, new hairstyles, theatre, film making",1
"55da1c4669dbc30010b67569","k2r87ylskb","Affordance Norms_Prolific",1,24,"2023-05-14T17:29:29+00:00",14.923612117767,22,"updated stim.csv","Version22.csv","Version 22","List 22","beach",NA,637,5.666666667,176,0.555141902,638,"BOI","-","-","Please name all of the ways you could use this object. Keep in mind that one object can have many uses. Separate your responses with a comma.",NA,"y",14508,NA,NA,1554,12483,NA,NA,NA,"sunbathing, sport, building sandcastles, walks in the sand",1
"55da1c4669dbc30010b67569","k2r87ylskb","Affordance Norms_Prolific",1,25,"2023-05-14T17:29:47+00:00",18.907530069351,22,"updated stim.csv","Version22.csv","Version 22","List 22","junk",NA,656,4.962962963,1396,0.125346107,657,"BOI","-","-","Please name all of the ways you could use this object. Keep in mind that one object can have many uses. Separate your responses with a comma.",NA,"y",18491,NA,NA,4497,17370,NA,NA,NA,"garage sale, arts and craft, recyling",1
"55da1c4669dbc30010b67569","k2r87ylskb","Affordance Norms_Prolific",1,26,"2023-05-14T17:29:56+00:00",8.1054389476776,22,"updated stim.csv","Version22.csv","Version 22","List 22","needlepoint",NA,640,4.576923077,1746,0.71513555,641,"BOI","-","-","Please name all of the ways you could use this object. Keep in mind that one object can have many uses. Separate your responses with a comma.",NA,"y",7694,NA,NA,1797,6757,NA,NA,NA,"sewing, stabbing, etching",1
"55da1c4669dbc30010b67569","k2r87ylskb","Affordance Norms_Prolific",1,27,"2023-05-14T17:30:00+00:00",4.166100025177,22,"updated stim.csv","Version22.csv","Version 22","List 22","buckwheat",NA,639,4.44,343,0.235284908,640,"BOI","-","-","Please name all of the ways you could use this object. Keep in mind that one object can have many uses. Separate your responses with a comma.",NA,"y",3762,NA,NA,2401,2817,NA,NA,NA,"eating",1
"55da1c4669dbc30010b67569","k2r87ylskb","Affordance Norms_Prolific",1,28,"2023-05-14T17:30:18+00:00",17.876415014267,22,"updated stim.csv","Version22.csv","Version 22","List 22","drone",NA,660,4.291666667,851,0.529488215,661,"BOI","-","-","Please name all of the ways you could use this object. Keep in mind that one object can have many uses. Separate your responses with a comma.",NA,"y",17464,NA,NA,1461,16471,NA,NA,NA,"spying, carrying weapons, filmmaking, recreational flying",1
"55da1c4669dbc30010b67569","k2r87ylskb","Affordance Norms_Prolific",1,29,"2023-05-14T17:30:34+00:00",16.400615930557,22,"updated stim.csv","Version22.csv","Version 22","List 22","rabbit",NA,642,5,2117,0.225154992,643,"BOI","-","-","Please name all of the ways you could use this object. Keep in mind that one object can have many uses. Separate your responses with a comma.",NA,"y",15975,NA,NA,3325,15238,NA,NA,NA,"make a stew, breeding, pet, racing for sport, hunting",1
"55da1c4669dbc30010b67569","k2r87ylskb","Affordance Norms_Prolific",1,30,"2023-05-14T17:30:49+00:00",14.896169900894,22,"updated stim.csv","Version22.csv","Version 22","List 22","stockbroker",NA,649,4.851851852,2540,0.731101603,650,"BOI","-","-","Please name all of the ways you could use this object. Keep in mind that one object can have many uses. Separate your responses with a comma.",NA,"y",14505,NA,NA,7399,13935,NA,NA,NA,"make money on the stock market, financial advice",1
"55da1c4669dbc30010b67569","k2r87ylskb","Affordance Norms_Prolific",1,31,"2023-05-14T17:31:13+00:00",24.197910070419,22,"updated stim.csv","Version22.csv","Version 22","List 22","boat",NA,644,5.130434783,255,0.951563463,645,"BOI","-","-","Please name all of the ways you could use this object. Keep in mind that one object can have many uses. Separate your responses with a comma.",NA,"y",23788,NA,NA,1753,21763,NA,NA,NA,"recreational sailing, competitive sailing, sunbathing in the ocean, fishing, watersports",1
"55da1c4669dbc30010b67569","k2r87ylskb","Affordance Norms_Prolific",1,32,"2023-05-14T17:31:24+00:00",11.178050994873,22,"updated stim.csv","Version22.csv","Version 22","List 22","dress",NA,658,6.16,843,0.914545624,659,"BOI","-","-","Please name all of the ways you could use this object. Keep in mind that one object can have many uses. Separate your responses with a comma.",NA,"y",10791,NA,NA,2302,4942,NA,NA,NA,"kilt, clothing",1
"55da1c4669dbc30010b67569","k2r87ylskb","Affordance Norms_Prolific",1,33,"2023-05-14T17:31:26+00:00",1.7647371292114,22,"updated stim.csv","Version22.csv","Version 22","List 22","pumpernickel",NA,646,5.130434783,2097,0.008330352,647,"BOI","-","-","Please name all of the ways you could use this object. Keep in mind that one object can have many uses. Separate your responses with a comma.",NA,"y",1379,NA,NA,-1,-1,NA,NA,NA,"",1
"55da1c4669dbc30010b67569","k2r87ylskb","Affordance Norms_Prolific",1,34,"2023-05-14T17:31:51+00:00",25.062339782715,22,"updated stim.csv","Version22.csv","Version 22","List 22","stool",NA,659,6.076923077,2547,0.995036771,660,"BOI","-","-","Please name all of the ways you could use this object. Keep in mind that one object can have many uses. Separate your responses with a comma.",NA,"y",24668,NA,NA,1361,15443,NA,NA,NA,"sitting, hitting, throwing, standing to reach high up objects",1
"55da1c4669dbc30010b67569","k2r87ylskb","Affordance Norms_Prolific",1,35,"2023-05-14T17:32:07+00:00",16.075515031815,22,"updated stim.csv","Version22.csv","Version 22","List 22","tutor",NA,634,4.608695652,2807,0.295026168,635,"BOI","-","-","Please name all of the ways you could use this object. Keep in mind that one object can have many uses. Separate your responses with a comma.",NA,"y",15663,NA,NA,1596,14757,NA,NA,NA,"tutoring, help with homework",1
"55da1c4669dbc30010b67569","k2r87ylskb","Affordance Norms_Prolific",1,36,"2023-05-14T17:32:34+00:00",26.749523162842,22,"updated stim.csv","Version22.csv","Version 22","List 22","television",NA,652,5.6,2660,0.764587344,653,"BOI","-","-","Please name all of the ways you could use this object. Keep in mind that one object can have many uses. Separate your responses with a comma.",NA,"y",26360,NA,NA,2413,25240,NA,NA,NA,"watch tv, watch a film, listen to music, browse the internet, play videogames",1
"55da1c4669dbc30010b67569","k2r87ylskb","Affordance Norms_Prolific",1,37,"2023-05-14T17:32:45+00:00",10.94296002388,22,"updated stim.csv","Version22.csv","Version 22","List 22","trunk",NA,631,5.217391304,2788,0.288599309,632,"BOI","-","-","Please name all of the ways you could use this object. Keep in mind that one object can have many uses. Separate your responses with a comma.",NA,"y",10539,NA,NA,1489,9818,NA,NA,NA,"transporting objects, storing objects",1
"55da1c4669dbc30010b67569","k2r87ylskb","Affordance Norms_Prolific",1,38,"2023-05-14T17:32:48+00:00",3.589686870575,22,"updated stim.csv","Version22.csv","Version 22","List 22","diaphragm",NA,641,4.269230769,788,0.761321461,642,"BOI","-","-","Please name all of the ways you could use this object. Keep in mind that one object can have many uses. Separate your responses with a comma.",NA,"y",3204,NA,NA,1763,2339,NA,NA,NA,"breathing",1
"55da1c4669dbc30010b67569","k2r87ylskb","Affordance Norms_Prolific",1,39,"2023-05-14T17:33:04+00:00",15.159553050995,22,"updated stim.csv","Version22.csv","Version 22","List 22","clam",NA,657,4.375,545,0.559495965,658,"BOI","-","-","Please name all of the ways you could use this object. Keep in mind that one object can have many uses. Separate your responses with a comma.",NA,"y",14763,NA,NA,3553,13842,NA,NA,NA,"fishing, source of oysters (eating), looking for pearls",1
"55da1c4669dbc30010b67569","k2r87ylskb","Affordance Norms_Prolific",1,40,"2023-05-14T17:33:29+00:00",24.875441074371,22,"updated stim.csv","Version22.csv","Version 22","List 22","shed",NA,653,4.333333333,2327,0.019949413,654,"BOI","-","-","Please name all of the ways you could use this object. Keep in mind that one object can have many uses. Separate your responses with a comma.",NA,"y",24472,NA,NA,1557,23847,NA,NA,NA,"store gardening equipment, store sports equipment, woodworking",1
"56d8df02d13f6b000e542eef","gqqt6qv1q3","Affordance Norms_Prolific",1,11,"2023-05-14T22:48:40+00:00",107.00822305679,23,"updated stim.csv","Version23.csv","Version 23","List 23","prize",NA,687,4.916666667,2069,0.010907135,688,"BOI","-","-","Please name all of the ways you could use this object. Keep in mind that one object can have many uses. Separate your responses with a comma.",NA,"y",106233,NA,NA,2262,47116,NA,NA,NA,"won,shared, attached,awarded",1
"56d8df02d13f6b000e542eef","gqqt6qv1q3","Affordance Norms_Prolific",1,12,"2023-05-14T22:50:17+00:00",96.671360015869,23,"updated stim.csv","Version23.csv","Version 23","List 23","diaper",NA,678,5.64,787,0.798154395,679,"BOI","-","-","Please name all of the ways you could use this object. Keep in mind that one object can have many uses. Separate your responses with a comma.",NA,"y",95636,NA,NA,6857,56735,NA,NA,NA,"put on, changed,worn",1
"56d8df02d13f6b000e542eef","gqqt6qv1q3","Affordance Norms_Prolific",1,13,"2023-05-14T22:50:37+00:00",20.479387998581,23,"updated stim.csv","Version23.csv","Version 23","List 23","shovel",NA,688,5.925925926,2363,0.76196992,689,"BOI","-","-","Please name all of the ways you could use this object. Keep in mind that one object can have many uses. Separate your responses with a comma.",NA,"y",19739,NA,NA,3891,19459,NA,NA,NA,"used, dig, hit",1
"56d8df02d13f6b000e542eef","gqqt6qv1q3","Affordance Norms_Prolific",1,14,"2023-05-14T22:51:43+00:00",65.945086956024,23,"updated stim.csv","Version23.csv","Version 23","List 23","slide",NA,675,5.130434783,2411,0.551351131,676,"BOI","-","-","Please name all of the ways you could use this object. Keep in mind that one object can have many uses. Separate your responses with a comma.",NA,"y",65133,NA,NA,19618,64399,NA,NA,NA,"slipped off, front seat in a car, drawers,out of bed",0.988
"56d8df02d13f6b000e542eef","gqqt6qv1q3","Affordance Norms_Prolific",1,15,"2023-05-14T22:52:32+00:00",49.229863166809,23,"updated stim.csv","Version23.csv","Version 23","List 23","suture",NA,686,4.652173913,2600,0.777769684,687,"BOI","-","-","Please name all of the ways you could use this object. Keep in mind that one object can have many uses. Separate your responses with a comma.",NA,"y",48331,NA,NA,8753,43691,NA,NA,NA,"wound, stich, posterior, gash",1
"56d8df02d13f6b000e542eef","gqqt6qv1q3","Affordance Norms_Prolific",1,16,"2023-05-14T22:53:22+00:00",50.130307912827,23,"updated stim.csv","Version23.csv","Version 23","List 23","pantaloons",NA,690,4.695652174,1858,0.760981626,691,"BOI","-","-","Please name all of the ways you could use this object. Keep in mind that one object can have many uses. Separate your responses with a comma.",NA,"y",49365,NA,NA,37053,46468,NA,NA,NA,"worn, bought",1
"56d8df02d13f6b000e542eef","gqqt6qv1q3","Affordance Norms_Prolific",1,17,"2023-05-14T22:53:46+00:00",23.545612096786,23,"updated stim.csv","Version23.csv","Version 23","List 23","pill",NA,666,6.36,1960,0.334099984,667,"BOI","-","-","Please name all of the ways you could use this object. Keep in mind that one object can have many uses. Separate your responses with a comma.",NA,"y",21368,NA,NA,6482,20712,NA,NA,NA,"swallowed, eaten",0.963
"56d8df02d13f6b000e542eef","gqqt6qv1q3","Affordance Norms_Prolific",1,18,"2023-05-14T22:54:19+00:00",32.573405981064,23,"updated stim.csv","Version23.csv","Version 23","List 23","turtleneck",NA,681,5.375,2806,0.264717554,682,"BOI","-","-","Please name all of the ways you could use this object. Keep in mind that one object can have many uses. Separate your responses with a comma.",NA,"y",30559,NA,NA,2672,23305,NA,NA,NA,"worn, knitted",1
"56d8df02d13f6b000e542eef","gqqt6qv1q3","Affordance Norms_Prolific",1,19,"2023-05-14T22:54:48+00:00",29.287112951279,23,"updated stim.csv","Version23.csv","Version 23","List 23","podiatrist",NA,662,4.791666667,2016,0.413157165,663,"BOI","-","-","Please name all of the ways you could use this object. Keep in mind that one object can have many uses. Separate your responses with a comma.",NA,"y",28115,NA,NA,25876,27619,NA,NA,NA,"treatment",1
"56d8df02d13f6b000e542eef","gqqt6qv1q3","Affordance Norms_Prolific",1,20,"2023-05-14T22:56:10+00:00",82.127614974976,23,"updated stim.csv","Version23.csv","Version 23","List 23","flowerbed",NA,670,5.041666667,1016,0.304375382,671,"BOI","-","-","Please name all of the ways you could use this object. Keep in mind that one object can have many uses. Separate your responses with a comma.",NA,"y",81352,NA,NA,68953,81214,NA,NA,NA,"photographed,looked at",1
"56d8df02d13f6b000e542eef","gqqt6qv1q3","Affordance Norms_Prolific",1,21,"2023-05-14T22:56:23+00:00",12.898859977722,23,"updated stim.csv","Version23.csv","Version 23","List 23","child",NA,661,5.695652174,520,0.099947346,662,"BOI","-","-","Please name all of the ways you could use this object. Keep in mind that one object can have many uses. Separate your responses with a comma.",NA,"y",12203,NA,NA,7349,10259,NA,NA,NA,"fed, clothed",1
"56d8df02d13f6b000e542eef","gqqt6qv1q3","Affordance Norms_Prolific",1,22,"2023-05-14T22:57:20+00:00",57.581035137177,23,"updated stim.csv","Version23.csv","Version 23","List 23","brick",NA,671,5.64,317,0.988625431,672,"BOI","-","-","Please name all of the ways you could use this object. Keep in mind that one object can have many uses. Separate your responses with a comma.",NA,"y",56506,NA,NA,2069,56130,NA,NA,NA,"thrown, built",1
"56d8df02d13f6b000e542eef","gqqt6qv1q3","Affordance Norms_Prolific",1,23,"2023-05-14T22:57:44+00:00",23.263198852539,23,"updated stim.csv","Version23.csv","Version 23","List 23","heroin",NA,665,4.423076923,1282,0.687493673,666,"BOI","-","-","Please name all of the ways you could use this object. Keep in mind that one object can have many uses. Separate your responses with a comma.",NA,"y",22547,NA,NA,16884,19290,NA,NA,NA,"injected ",1
"56d8df02d13f6b000e542eef","gqqt6qv1q3","Affordance Norms_Prolific",1,24,"2023-05-14T22:57:55+00:00",10.898262023926,23,"updated stim.csv","Version23.csv","Version 23","List 23","crown",NA,679,6.173913043,711,0.805622966,680,"BOI","-","-","Please name all of the ways you could use this object. Keep in mind that one object can have many uses. Separate your responses with a comma.",NA,"y",8848,NA,NA,1887,8007,NA,NA,NA,"worn, put on, built",1
"56d8df02d13f6b000e542eef","gqqt6qv1q3","Affordance Norms_Prolific",1,25,"2023-05-14T22:58:25+00:00",29.940336942673,23,"updated stim.csv","Version23.csv","Version 23","List 23","ice",NA,685,5.458333333,1344,0.778511489,686,"BOI","-","-","Please name all of the ways you could use this object. Keep in mind that one object can have many uses. Separate your responses with a comma.",NA,"y",28289,NA,NA,23754,28033,NA,NA,NA,"frozen, melted",1
"56d8df02d13f6b000e542eef","gqqt6qv1q3","Affordance Norms_Prolific",1,26,"2023-05-14T22:58:32+00:00",7.585942029953,23,"updated stim.csv","Version23.csv","Version 23","List 23","honeydew",NA,667,5.444444444,1304,0.880806978,668,"BOI","-","-","Please name all of the ways you could use this object. Keep in mind that one object can have many uses. Separate your responses with a comma.",NA,"y",6796,NA,NA,5644,6381,NA,NA,NA,"eaten",1
"56d8df02d13f6b000e542eef","gqqt6qv1q3","Affordance Norms_Prolific",1,27,"2023-05-14T22:59:07+00:00",35.158956050873,23,"updated stim.csv","Version23.csv","Version 23","List 23","woodcraft",NA,664,4.296296296,2959,0.232641968,665,"BOI","-","-","Please name all of the ways you could use this object. Keep in mind that one object can have many uses. Separate your responses with a comma.",NA,"y",34477,NA,NA,33478,34221,NA,NA,NA,"arose",1
"56d8df02d13f6b000e542eef","gqqt6qv1q3","Affordance Norms_Prolific",1,28,"2023-05-14T22:59:39+00:00",31.383128881454,23,"updated stim.csv","Version23.csv","Version 23","List 23","shaker",NA,673,4.36,2318,0.494967943,674,"BOI","-","-","Please name all of the ways you could use this object. Keep in mind that one object can have many uses. Separate your responses with a comma.",NA,"y",27929,NA,NA,20378,27528,NA,NA,NA,"unscrewed, filled up",1
"56d8df02d13f6b000e542eef","gqqt6qv1q3","Affordance Norms_Prolific",1,29,"2023-05-14T23:00:23+00:00",44.3512570858,23,"updated stim.csv","Version23.csv","Version 23","List 23","bifocals",NA,672,5.875,212,0.808390097,673,"BOI","-","-","Please name all of the ways you could use this object. Keep in mind that one object can have many uses. Separate your responses with a comma.",NA,"y",40628,NA,NA,38637,40380,NA,NA,NA,"framed",1
"56d8df02d13f6b000e542eef","gqqt6qv1q3","Affordance Norms_Prolific",1,30,"2023-05-14T23:01:05+00:00",41.899838924408,23,"updated stim.csv","Version23.csv","Version 23","List 23","auditorium",NA,683,4.392857143,97,0.782471662,684,"BOI","-","-","Please name all of the ways you could use this object. Keep in mind that one object can have many uses. Separate your responses with a comma.",NA,"y",41204,NA,NA,39484,40821,NA,NA,NA,"attended",1
"56d8df02d13f6b000e542eef","gqqt6qv1q3","Affordance Norms_Prolific",1,31,"2023-05-14T23:01:16+00:00",11.379405975342,23,"updated stim.csv","Version23.csv","Version 23","List 23","box",NA,668,6.291666667,294,0.637050956,669,"BOI","-","-","Please name all of the ways you could use this object. Keep in mind that one object can have many uses. Separate your responses with a comma.",NA,"y",10680,NA,NA,2127,9487,NA,NA,NA,"broke, fixed, opened",1
"56d8df02d13f6b000e542eef","gqqt6qv1q3","Affordance Norms_Prolific",1,32,"2023-05-14T23:02:18+00:00",61.383651018143,23,"updated stim.csv","Version23.csv","Version 23","List 23","bucket",NA,669,6,341,0.459674705,670,"BOI","-","-","Please name all of the ways you could use this object. Keep in mind that one object can have many uses. Separate your responses with a comma.",NA,"y",60618,NA,NA,55721,58577,NA,NA,NA,"filled",1
"56d8df02d13f6b000e542eef","gqqt6qv1q3","Affordance Norms_Prolific",1,33,"2023-05-14T23:02:43+00:00",24.995265007019,23,"updated stim.csv","Version23.csv","Version 23","List 23","lasso",NA,663,5.555555556,1468,0.924148107,664,"BOI","-","-","Please name all of the ways you could use this object. Keep in mind that one object can have many uses. Separate your responses with a comma.",NA,"y",23425,NA,NA,12640,23063,NA,NA,NA,"thrown, tied up",1
"56d8df02d13f6b000e542eef","gqqt6qv1q3","Affordance Norms_Prolific",1,34,"2023-05-14T23:03:50+00:00",67.510461091995,23,"updated stim.csv","Version23.csv","Version 23","List 23","earplug",NA,689,6.111111111,879,0.54821895,690,"BOI","-","-","Please name all of the ways you could use this object. Keep in mind that one object can have many uses. Separate your responses with a comma.",NA,"y",66767,NA,NA,49919,66302,NA,NA,NA,"wear, lost",1
"56d8df02d13f6b000e542eef","gqqt6qv1q3","Affordance Norms_Prolific",1,35,"2023-05-14T23:04:02+00:00",11.602397918701,23,"updated stim.csv","Version23.csv","Version 23","List 23","breadbasket",NA,680,5.222222222,309,0.327360087,681,"BOI","-","-","Please name all of the ways you could use this object. Keep in mind that one object can have many uses. Separate your responses with a comma.",NA,"y",10853,NA,NA,8324,9875,NA,NA,NA,"filled",1
"56d8df02d13f6b000e542eef","gqqt6qv1q3","Affordance Norms_Prolific",1,36,"2023-05-14T23:04:47+00:00",45.263969182968,23,"updated stim.csv","Version23.csv","Version 23","List 23","stapler",NA,682,6.458333333,2508,0.347512878,683,"BOI","-","-","Please name all of the ways you could use this object. Keep in mind that one object can have many uses. Separate your responses with a comma.",NA,"y",40778,NA,NA,39811,40666,NA,NA,NA,"fixed",1
"56d8df02d13f6b000e542eef","gqqt6qv1q3","Affordance Norms_Prolific",1,37,"2023-05-14T23:04:57+00:00",10.415196895599,23,"updated stim.csv","Version23.csv","Version 23","List 23","Shirt",NA,676,6.473045822,2346,0.961696287,677,"BOI","-","-","Please name all of the ways you could use this object. Keep in mind that one object can have many uses. Separate your responses with a comma.",NA,"y",9734,NA,NA,2295,9565,NA,NA,NA,"worn, sewed",1
"56d8df02d13f6b000e542eef","gqqt6qv1q3","Affordance Norms_Prolific",1,38,"2023-05-14T23:05:18+00:00",20.389117002487,23,"updated stim.csv","Version23.csv","Version 23","List 23","journal",NA,674,6,1390,0.159293473,675,"BOI","-","-","Please name all of the ways you could use this object. Keep in mind that one object can have many uses. Separate your responses with a comma.",NA,"y",19622,NA,NA,10279,18461,NA,NA,NA,"filled in, burnt",1
"56d8df02d13f6b000e542eef","gqqt6qv1q3","Affordance Norms_Prolific",1,39,"2023-05-14T23:05:50+00:00",32.633629083633,23,"updated stim.csv","Version23.csv","Version 23","List 23","lodge",NA,677,4.833333333,1539,0.783979723,678,"BOI","-","-","Please name all of the ways you could use this object. Keep in mind that one object can have many uses. Separate your responses with a comma.",NA,"y",31137,NA,NA,27272,28313,NA,NA,NA,"attend",1
"56d8df02d13f6b000e542eef","gqqt6qv1q3","Affordance Norms_Prolific",1,40,"2023-05-14T23:06:01+00:00",10.259433031082,23,"updated stim.csv","Version23.csv","Version 23","List 23","actress",NA,684,4.92,11,0.201024264,685,"BOI","-","-","Please name all of the ways you could use this object. Keep in mind that one object can have many uses. Separate your responses with a comma.",NA,"y",9500,NA,NA,4100,8292,NA,NA,NA,"admired, seen",1
"571a82d06a1c6300094c6a19","l4rze4mva1","Affordance Norms_Prolific",1,11,"2023-05-14T17:07:01+00:00",30.367976903915,19,"updated stim.csv","Version19.csv","Version 19","List 19","godparent",NA,551,5.260869565,1129,0.144202147,552,"BOI","-","-","Please name all of the ways you could use this object. Keep in mind that one object can have many uses. Separate your responses with a comma.",NA,"y",30011,NA,NA,6494,27418,NA,NA,NA,"love, ask for money, rely on, visit",1
"571a82d06a1c6300094c6a19","l4rze4mva1","Affordance Norms_Prolific",1,12,"2023-05-14T17:07:58+00:00",56.986049890518,19,"updated stim.csv","Version19.csv","Version 19","List 19","saltwater",NA,545,5.192307692,2229,0.240965939,546,"BOI","-","-","Please name all of the ways you could use this object. Keep in mind that one object can have many uses. Separate your responses with a comma.",NA,"y",56621,NA,NA,7704,53065,NA,NA,NA,"swim in it, soak food, use to preserve foods, gargle with it, ",1
"571a82d06a1c6300094c6a19","l4rze4mva1","Affordance Norms_Prolific",1,13,"2023-05-14T17:08:36+00:00",37.645233154297,19,"updated stim.csv","Version19.csv","Version 19","List 19","silkworm",NA,570,5.208333333,2382,0.564942119,571,"BOI","-","-","Please name all of the ways you could use this object. Keep in mind that one object can have many uses. Separate your responses with a comma.",NA,"y",37289,NA,NA,5143,24873,NA,NA,NA,"make silk, draw it, write about it",1
"571a82d06a1c6300094c6a19","l4rze4mva1","Affordance Norms_Prolific",1,14,"2023-05-14T17:10:19+00:00",102.39892196655,19,"updated stim.csv","Version19.csv","Version 19","List 19","backpack",NA,555,5.72,116,0.596868112,556,"BOI","-","-","Please name all of the ways you could use this object. Keep in mind that one object can have many uses. Separate your responses with a comma.",NA,"y",101622,NA,NA,7939,99859,NA,NA,NA,"wear on the back, fill with camping stuff, use to carry a baby, use to carry the shopping",1
"571a82d06a1c6300094c6a19","l4rze4mva1","Affordance Norms_Prolific",1,15,"2023-05-14T17:11:56+00:00",97.811022996902,19,"updated stim.csv","Version19.csv","Version 19","List 19","cage",NA,562,5.291666667,398,0.458861103,563,"BOI","-","-","Please name all of the ways you could use this object. Keep in mind that one object can have many uses. Separate your responses with a comma.",NA,"y",96921,NA,NA,10479,95691,NA,NA,NA,"get in it as an old fashioned lift, put my pet in it, put a criminal in it",1
"571a82d06a1c6300094c6a19","l4rze4mva1","Affordance Norms_Prolific",1,16,"2023-05-14T17:13:38+00:00",101.65206503868,19,"updated stim.csv","Version19.csv","Version 19","List 19","toe",NA,565,5.954545455,2715,0.055815318,566,"BOI","-","-","Please name all of the ways you could use this object. Keep in mind that one object can have many uses. Separate your responses with a comma.",NA,"y",100295,NA,NA,7481,98914,NA,NA,NA,"balance my walk, test hot water, wear a ring",1
"571a82d06a1c6300094c6a19","l4rze4mva1","Affordance Norms_Prolific",1,17,"2023-05-14T17:15:10+00:00",91.584689855576,19,"updated stim.csv","Version19.csv","Version 19","List 19","plaster",NA,542,4.4,1993,0.665997379,543,"BOI","-","-","Please name all of the ways you could use this object. Keep in mind that one object can have many uses. Separate your responses with a comma.",NA,"y",90081,NA,NA,5028,44024,NA,NA,NA,"recover a damaged wall, apply a piece of sticky fabric to a wound",1
"571a82d06a1c6300094c6a19","l4rze4mva1","Affordance Norms_Prolific",1,18,"2023-05-14T17:17:04+00:00",114.18967914581,19,"updated stim.csv","Version19.csv","Version 19","List 19","vulva",NA,561,5.16,2876,0.286824315,562,"BOI","-","-","Please name all of the ways you could use this object. Keep in mind that one object can have many uses. Separate your responses with a comma.",NA,"y",113597,NA,NA,10270,94638,NA,NA,NA,"to masturbate, to shave, entice someone ",0.949
"571a82d06a1c6300094c6a19","l4rze4mva1","Affordance Norms_Prolific",1,19,"2023-05-14T17:17:59+00:00",54.949341058731,19,"updated stim.csv","Version19.csv","Version 19","List 19","kitchen",NA,566,5.625,1425,0.900817788,567,"BOI","-","-","Please name all of the ways you could use this object. Keep in mind that one object can have many uses. Separate your responses with a comma.",NA,"y",54592,NA,NA,10357,52192,NA,NA,NA,"cook in, eat my food in, listen to music in, use to relax, use as a meeting pace for the family, hide in",1
"571a82d06a1c6300094c6a19","l4rze4mva1","Affordance Norms_Prolific",1,20,"2023-05-14T17:19:52+00:00",113.74210977554,19,"updated stim.csv","Version19.csv","Version 19","List 19","woodcutter",NA,560,4.44,2960,0.152234376,561,"BOI","-","-","Please name all of the ways you could use this object. Keep in mind that one object can have many uses. Separate your responses with a comma.",NA,"y",112624,NA,NA,74004,110779,NA,NA,NA,"cut wood with, use as a decorative object, threaten someone, kill something, throw, heft, swing",1
"571a82d06a1c6300094c6a19","l4rze4mva1","Affordance Norms_Prolific",1,21,"2023-05-14T17:21:06+00:00",73.393267154694,19,"updated stim.csv","Version19.csv","Version 19","List 19","couch",NA,544,6.260869565,661,0.619410451,545,"BOI","-","-","Please name all of the ways you could use this object. Keep in mind that one object can have many uses. Separate your responses with a comma.",NA,"y",72726,NA,NA,4227,70821,NA,NA,NA,"sleep on, sit on, clean, move, push, place in a room, put my dog on it, arrange cushions on it",1
"571a82d06a1c6300094c6a19","l4rze4mva1","Affordance Norms_Prolific",1,22,"2023-05-14T17:22:01+00:00",54.878809928894,19,"updated stim.csv","Version19.csv","Version 19","List 19","splinter",NA,563,4.652173913,2478,0.624463816,564,"BOI","-","-","Please name all of the ways you could use this object. Keep in mind that one object can have many uses. Separate your responses with a comma.",NA,"y",54520,NA,NA,11630,24407,NA,NA,NA,"hoover up, break off, remove from skin",1
"571a82d06a1c6300094c6a19","l4rze4mva1","Affordance Norms_Prolific",1,23,"2023-05-14T17:22:52+00:00",51.358200073242,19,"updated stim.csv","Version19.csv","Version 19","List 19","kerchief",NA,541,5.666666667,1406,0.493496181,542,"BOI","-","-","Please name all of the ways you could use this object. Keep in mind that one object can have many uses. Separate your responses with a comma.",NA,"y",50989,NA,NA,4156,49127,NA,NA,NA,"wrap around neck, use as a head covering, place on ground to put my sandwiches on, wave in the air, use to wipe my nose, clean my face with it",1
"571a82d06a1c6300094c6a19","l4rze4mva1","Affordance Norms_Prolific",1,24,"2023-05-14T17:23:50+00:00",58.086535930634,19,"updated stim.csv","Version19.csv","Version 19","List 19","derriere",NA,548,5.5,778,0.071649372,549,"BOI","-","-","Please name all of the ways you could use this object. Keep in mind that one object can have many uses. Separate your responses with a comma.",NA,"y",57601,NA,NA,4184,55983,NA,NA,NA,"shake it, strut with it, dress it, wobble it, twerk, clench, be alluring with",1
"571a82d06a1c6300094c6a19","l4rze4mva1","Affordance Norms_Prolific",1,25,"2023-05-14T17:25:17+00:00",86.711812019348,19,"updated stim.csv","Version19.csv","Version 19","List 19","lantern",NA,558,5.653846154,1463,0.56962793,559,"BOI","-","-","Please name all of the ways you could use this object. Keep in mind that one object can have many uses. Separate your responses with a comma.",NA,"y",85929,NA,NA,2889,83342,NA,NA,NA,"bring light to a dark place, light it, hold it, hold it up high, use it to catch elusive prawns, use for trick or treat, shake it",1
"571a82d06a1c6300094c6a19","l4rze4mva1","Affordance Norms_Prolific",1,26,"2023-05-14T17:26:25+00:00",67.805387020111,19,"updated stim.csv","Version19.csv","Version 19","List 19","enamel",NA,552,4.652173913,905,0.497490187,553,"BOI","-","-","Please name all of the ways you could use this object. Keep in mind that one object can have many uses. Separate your responses with a comma.",NA,"y",67057,NA,NA,5140,64823,NA,NA,NA,"paint roses and castles on barges, paint my nails with it, recoat my pots and pans with it, repair a cracked sink ",1
"571a82d06a1c6300094c6a19","l4rze4mva1","Affordance Norms_Prolific",1,27,"2023-05-14T17:27:44+00:00",79.043302059174,19,"updated stim.csv","Version19.csv","Version 19","List 19","goggles",NA,543,6.125,1131,0.800491874,544,"BOI","-","-","Please name all of the ways you could use this object. Keep in mind that one object can have many uses. Separate your responses with a comma.",NA,"y",78411,NA,NA,2298,77071,NA,NA,NA,"wear when swimming, wear when using a welding rod, wear when piloting a plane, use to protect your eyes from dust",1
"571a82d06a1c6300094c6a19","l4rze4mva1","Affordance Norms_Prolific",1,28,"2023-05-14T17:28:30+00:00",46.646404981613,19,"updated stim.csv","Version19.csv","Version 19","List 19","tray",NA,547,5.166666667,2768,0.711278044,548,"BOI","-","-","Please name all of the ways you could use this object. Keep in mind that one object can have many uses. Separate your responses with a comma.",NA,"y",46289,NA,NA,5560,43391,NA,NA,NA,"to put my food on, to put my work tools on, to slide on snow down a hill",1
"571a82d06a1c6300094c6a19","l4rze4mva1","Affordance Norms_Prolific",1,29,"2023-05-14T17:29:36+00:00",65.839086055756,19,"updated stim.csv","Version19.csv","Version 19","List 19","tear",NA,556,4.44,2650,0.64593677,557,"BOI","-","-","Please name all of the ways you could use this object. Keep in mind that one object can have many uses. Separate your responses with a comma.",NA,"y",65248,NA,NA,23011,63940,NA,NA,NA,"to show someone that you feel sorrow, to control another's feelings, to clear an irritated eye, to use as a tattoo",1
"571a82d06a1c6300094c6a19","l4rze4mva1","Affordance Norms_Prolific",1,30,"2023-05-14T17:30:48+00:00",71.648283958435,19,"updated stim.csv","Version19.csv","Version 19","List 19","bagpipes",NA,550,5,124,0.570726592,551,"BOI","-","-","Please name all of the ways you could use this object. Keep in mind that one object can have many uses. Separate your responses with a comma.",NA,"y",71054,NA,NA,38215,67070,NA,NA,NA,"blow, play, squeeze, throw, heave, play a tune",1
"571a82d06a1c6300094c6a19","l4rze4mva1","Affordance Norms_Prolific",1,31,"2023-05-14T17:32:26+00:00",98.031920909882,19,"updated stim.csv","Version19.csv","Version 19","List 19","yardstick",NA,569,5.956521739,2990,0.862814499,570,"BOI","-","-","Please name all of the ways you could use this object. Keep in mind that one object can have many uses. Separate your responses with a comma.",NA,"y",97446,NA,NA,2447,95901,NA,NA,NA,"use to measure something, use as a plant cane, throw it, use to tear a straight line in paper",1
"571a82d06a1c6300094c6a19","l4rze4mva1","Affordance Norms_Prolific",1,32,"2023-05-14T17:33:15+00:00",49.198358058929,19,"updated stim.csv","Version19.csv","Version 19","List 19","goose",NA,553,5.260869565,1138,0.494045205,554,"BOI","-","-","Please name all of the ways you could use this object. Keep in mind that one object can have many uses. Separate your responses with a comma.",NA,"y",48847,NA,NA,4858,46443,NA,NA,NA,"get eggs from, use as a guard, draw it, love it, use its feathers in a duvet",1
"571a82d06a1c6300094c6a19","l4rze4mva1","Affordance Norms_Prolific",1,33,"2023-05-14T17:34:20+00:00",65.350169897079,19,"updated stim.csv","Version19.csv","Version 19","List 19","raft",NA,564,5.36,2125,0.368001778,565,"BOI","-","-","Please name all of the ways you could use this object. Keep in mind that one object can have many uses. Separate your responses with a comma.",NA,"y",64748,NA,NA,30677,63361,NA,NA,NA,"lay on it, steer it, float on it, build it, use it to fish with, travel between river banks",1
"571a82d06a1c6300094c6a19","l4rze4mva1","Affordance Norms_Prolific",1,34,"2023-05-14T17:35:07+00:00",46.369049072266,19,"updated stim.csv","Version19.csv","Version 19","List 19","treadmill",NA,568,6,2769,0.114264323,569,"BOI","-","-","Please name all of the ways you could use this object. Keep in mind that one object can have many uses. Separate your responses with a comma.",NA,"y",46009,NA,NA,2143,44173,NA,NA,NA,"use it to run on the spot, exercise your pet, use t to generate electricity ",1
"571a82d06a1c6300094c6a19","l4rze4mva1","Affordance Norms_Prolific",1,35,"2023-05-14T17:35:50+00:00",42.904787063599,19,"updated stim.csv","Version19.csv","Version 19","List 19","letterbox",NA,559,4.56,1496,0.230726376,560,"BOI","-","-","Please name all of the ways you could use this object. Keep in mind that one object can have many uses. Separate your responses with a comma.",NA,"y",42260,NA,NA,1665,18144,NA,NA,NA,"post a letter through it, look through it , shout through it, ",1
"571a82d06a1c6300094c6a19","l4rze4mva1","Affordance Norms_Prolific",1,36,"2023-05-14T17:36:53+00:00",62.811590909958,19,"updated stim.csv","Version19.csv","Version 19","List 19","cookie",NA,567,6.5,633,0.354504033,568,"BOI","-","-","Please name all of the ways you could use this object. Keep in mind that one object can have many uses. Separate your responses with a comma.",NA,"y",62233,NA,NA,2095,60963,NA,NA,NA,"eat it, cook it, use it on the internet so your laptop remembers websites you have visited, stack, crumble it",1
"571a82d06a1c6300094c6a19","l4rze4mva1","Affordance Norms_Prolific",1,37,"2023-05-14T17:39:27+00:00",154.18577599525,19,"updated stim.csv","Version19.csv","Version 19","List 19","lubrication",NA,549,4.333333333,1555,0.460781999,550,"BOI","-","-","Please name all of the ways you could use this object. Keep in mind that one object can have many uses. Separate your responses with a comma.",NA,"y",153597,NA,NA,76006,151622,NA,NA,NA,"put it on the lawnmower to loosen the joints, put in a vitamin tablet, use to make it easier to fit one thing in another",1
"571a82d06a1c6300094c6a19","l4rze4mva1","Affordance Norms_Prolific",1,38,"2023-05-14T17:39:51+00:00",23.976077079773,19,"updated stim.csv","Version19.csv","Version 19","List 19","barley",NA,546,4.541666667,149,0.391499549,547,"BOI","-","-","Please name all of the ways you could use this object. Keep in mind that one object can have many uses. Separate your responses with a comma.",NA,"y",23627,NA,NA,3097,21512,NA,NA,NA,"make beer, make stew, use in a tube as a musical object",1
"571a82d06a1c6300094c6a19","l4rze4mva1","Affordance Norms_Prolific",1,39,"2023-05-14T17:41:43+00:00",112.20838785172,19,"updated stim.csv","Version19.csv","Version 19","List 19","switchblade",NA,557,5.869565217,2609,0.252814962,558,"BOI","-","-","Please name all of the ways you could use this object. Keep in mind that one object can have many uses. Separate your responses with a comma.",NA,"y",111531,NA,NA,41718,110171,NA,NA,NA,"stab someone, flick, slash, sharpen",1
"571a82d06a1c6300094c6a19","l4rze4mva1","Affordance Norms_Prolific",1,40,"2023-05-14T17:42:42+00:00",59.45466709137,19,"updated stim.csv","Version19.csv","Version 19","List 19","steak",NA,554,5.75,2515,0.944862222,555,"BOI","-","-","Please name all of the ways you could use this object. Keep in mind that one object can have many uses. Separate your responses with a comma.",NA,"y",59096,NA,NA,2033,57840,NA,NA,NA,"eat, chew, cook, sear, bash, season",1
"57308d1530a5560010ecbc1a","yww6icts6p","Affordance Norms_Prolific",1,11,"2023-05-14T17:32:55+00:00",133.27738785744,36,"updated stim.csv","Version36.csv","Version 36","List 36","tombstone",NA,1072,5.043478261,2725,0.273275065,1073,"BOI","-","-","Please name all of the ways you could use this object. Keep in mind that one object can have many uses. Separate your responses with a comma.",NA,"y",19853,NA,NA,-1,-1,NA,NA,NA,"",1
"57308d1530a5560010ecbc1a","yww6icts6p","Affordance Norms_Prolific",1,12,"2023-05-14T17:33:07+00:00",12.01766705513,36,"updated stim.csv","Version36.csv","Version 36","List 36","evergreen",NA,1078,4.444444444,923,0.294521341,1079,"BOI","-","-","Please name all of the ways you could use this object. Keep in mind that one object can have many uses. Separate your responses with a comma.",NA,"y",9852,NA,NA,3782,7456,NA,NA,NA,"Decoration, ",1
