"Username","ID","ExperimentName","Session","Trial","Date","TimeDif","Condition.Number","Stimuli.File","Order.File","Condition.Description","Condition.Notes","Stimuli.Cue","Stimuli.Answer","Stimuli.Shuffle","Stimuli.Stimuli.Notes","Stimuli.Value","Stimuli.Rand","Procedure.Item","Procedure.Trial.Type","Procedure.Max.Time","Procedure.Min.Time","Procedure.Text","Procedure.Procedure.Notes","Procedure.Shuffle","Response.RT","Response.Response","Response.Accuracy","Response.RTfirst","Response.RTlast","Response.strictAcc","Response.lenientAcc","Response.focus","Response.JOL","Response.Focus"
"56ce42d9465e580006846f57","ij3qrde976","Affordance Norms_Prolific",1,11,"2023-07-26T17:51:20+00:00",23.446068048477,6,"updated stim.csv","Version6.csv","Version 6","List 6","leaflet",NA,161,5.12,1945,0.324749543,162,"BOI","-","-","Please name all of the ways you could use this object. Keep in mind that one object can have many uses. Separate your responses with a comma.",NA,"y",23000,NA,NA,2813,21144,NA,NA,NA,"read, fold, post, give, write on, bookmark",1
"56ce42d9465e580006846f57","ij3qrde976","Affordance Norms_Prolific",1,12,"2023-07-26T17:51:54+00:00",34.161421060562,6,"updated stim.csv","Version6.csv","Version 6","List 6","fertilizer",NA,158,5.913043478,527,0.987997305,159,"BOI","-","-","Please name all of the ways you could use this object. Keep in mind that one object can have many uses. Separate your responses with a comma.",NA,"y",33683,NA,NA,1587,25887,NA,NA,NA,"animal feed, sow, plough, mix, ",1
"56ce42d9465e580006846f57","ij3qrde976","Affordance Norms_Prolific",1,13,"2023-07-26T17:52:23+00:00",29.053277015686,6,"updated stim.csv","Version6.csv","Version 6","List 6","clipper",NA,152,5.708333333,2286,0.354129595,153,"BOI","-","-","Please name all of the ways you could use this object. Keep in mind that one object can have many uses. Separate your responses with a comma.",NA,"y",28574,NA,NA,2736,26503,NA,NA,NA,"cut hair, cut fingernails, cut toenails, clip edge off paper",1
"56ce42d9465e580006846f57","ij3qrde976","Affordance Norms_Prolific",1,14,"2023-07-26T17:53:06+00:00",43.090004920959,6,"updated stim.csv","Version6.csv","Version 6","List 6","supermarket",NA,172,4.75,1749,0.715344787,173,"BOI","-","-","Please name all of the ways you could use this object. Keep in mind that one object can have many uses. Separate your responses with a comma.",NA,"y",42327,NA,NA,3222,40658,NA,NA,NA,"browse, buy, meet friends, use cafe, use as directions, reference point, cash coins, buy many things",1
"56ce42d9465e580006846f57","ij3qrde976","Affordance Norms_Prolific",1,15,"2023-07-26T17:53:44+00:00",37.214097976685,6,"updated stim.csv","Version6.csv","Version 6","List 6","log",NA,163,6.28,2836,0.923120289,164,"BOI","-","-","Please name all of the ways you could use this object. Keep in mind that one object can have many uses. Separate your responses with a comma.",NA,"y",36758,NA,NA,1848,30619,NA,NA,NA,"sit on, chop, use as firewood, use for build a cabin, make wildlife garden, use as garden edging, ",1
"56ce42d9465e580006846f57","ij3qrde976","Affordance Norms_Prolific",1,16,"2023-07-26T17:54:23+00:00",39.138574123383,6,"updated stim.csv","Version6.csv","Version 6","List 6","mantelpiece",NA,164,5.333333333,2692,0.82890071,165,"BOI","-","-","Please name all of the ways you could use this object. Keep in mind that one object can have many uses. Separate your responses with a comma.",NA,"y",38645,NA,NA,2247,36238,NA,NA,NA,"put items on, clean it, paint it, use for books or ornaments, use in photos as focal point",1
"56ce42d9465e580006846f57","ij3qrde976","Affordance Norms_Prolific",1,17,"2023-07-26T17:54:37+00:00",13.801565885544,6,"updated stim.csv","Version6.csv","Version 6","List 6","peony",NA,170,4.37037037,720,0.826771226,171,"BOI","-","-","Please name all of the ways you could use this object. Keep in mind that one object can have many uses. Separate your responses with a comma.",NA,"y",13318,NA,NA,6863,11625,NA,NA,NA,"dont know what this is?",1
"56ce42d9465e580006846f57","ij3qrde976","Affordance Norms_Prolific",1,18,"2023-07-26T17:55:11+00:00",34.527818918228,6,"updated stim.csv","Version6.csv","Version 6","List 6","calender",NA,151,5.666666667,209,0.894670762,152,"BOI","-","-","Please name all of the ways you could use this object. Keep in mind that one object can have many uses. Separate your responses with a comma.",NA,"y",34067,NA,NA,1693,30527,NA,NA,NA,"mark days off, count days, birthday reminders, use to mark work hours, use to mark important days, use to budget money",1
"56ce42d9465e580006846f57","ij3qrde976","Affordance Norms_Prolific",1,19,"2023-07-26T17:55:39+00:00",27.660346031189,6,"updated stim.csv","Version6.csv","Version 6","List 6","package",NA,168,4.464285714,1256,0.861077807,169,"BOI","-","-","Please name all of the ways you could use this object. Keep in mind that one object can have many uses. Separate your responses with a comma.",NA,"y",27201,NA,NA,4907,23547,NA,NA,NA,"send, wrap, open, give, receive, ",1
"56ce42d9465e580006846f57","ij3qrde976","Affordance Norms_Prolific",1,20,"2023-07-26T17:56:25+00:00",46.4362180233,6,"updated stim.csv","Version6.csv","Version 6","List 6","airplane",NA,178,5.32,1104,0.498173145,179,"BOI","-","-","Please name all of the ways you could use this object. Keep in mind that one object can have many uses. Separate your responses with a comma.",NA,"y",45980,NA,NA,2116,43915,NA,NA,NA,"fly in, travel, take off, touch down, plane spot, take photos of, transport animals, transport goods, resuce people, bomb places",1
"56ce42d9465e580006846f57","ij3qrde976","Affordance Norms_Prolific",1,21,"2023-07-26T17:57:16+00:00",51.186660051346,6,"updated stim.csv","Version6.csv","Version 6","List 6","concrete",NA,153,5.291666667,944,0.967521962,154,"BOI","-","-","Please name all of the ways you could use this object. Keep in mind that one object can have many uses. Separate your responses with a comma.",NA,"y",50711,NA,NA,3390,48210,NA,NA,NA,"foundation for building, bury people in, set as a base for garage, as a base for house, to keep posts in ground, for roads, for runways, for bottom of swimming pool",1
"56ce42d9465e580006846f57","ij3qrde976","Affordance Norms_Prolific",1,22,"2023-07-26T17:57:55+00:00",38.187726020813,6,"updated stim.csv","Version6.csv","Version 6","List 6","marigold",NA,165,5.041666667,1031,0.824671402,166,"BOI","-","-","Please name all of the ways you could use this object. Keep in mind that one object can have many uses. Separate your responses with a comma.",NA,"y",37729,NA,NA,3145,35779,NA,NA,NA,"arrange in a vase, plant, water, grow, pick, give as present, paint picture of them, press into a book, dry and preserve",1
"56ce42d9465e580006846f57","ij3qrde976","Affordance Norms_Prolific",1,23,"2023-07-26T17:58:43+00:00",48.353132963181,6,"updated stim.csv","Version6.csv","Version 6","List 6","cornflakes",NA,154,4.684210526,538,0.574977468,155,"BOI","-","-","Please name all of the ways you could use this object. Keep in mind that one object can have many uses. Separate your responses with a comma.",NA,"y",47862,NA,NA,1731,43808,NA,NA,NA,"eat in bowl, make cornflake tart with, make cornflake cake, paint them and use as art, decorate clothes with,",1
"56ce42d9465e580006846f57","ij3qrde976","Affordance Norms_Prolific",1,24,"2023-07-26T17:59:53+00:00",69.575675010681,6,"updated stim.csv","Version6.csv","Version 6","List 6","mathematician",NA,166,4.347826087,2433,0.405301502,167,"BOI","-","-","Please name all of the ways you could use this object. Keep in mind that one object can have many uses. Separate your responses with a comma.",NA,"y",69094,NA,NA,6213,67160,NA,NA,NA,"to explain mathematicial theories, to teach children, to write mathematical books, to add up shopping bill, to write budgets, to calculate engineering project",1
"56ce42d9465e580006846f57","ij3qrde976","Affordance Norms_Prolific",1,25,"2023-07-26T18:00:26+00:00",33.424007892609,6,"updated stim.csv","Version6.csv","Version 6","List 6","gun",NA,159,5.666666667,1878,0.217047994,160,"BOI","-","-","Please name all of the ways you could use this object. Keep in mind that one object can have many uses. Separate your responses with a comma.",NA,"y",32971,NA,NA,2212,30375,NA,NA,NA,"clean, take apart, put together, load, shoot, threaten",1
"56ce42d9465e580006846f57","ij3qrde976","Affordance Norms_Prolific",1,26,"2023-07-26T18:00:53+00:00",26.886663198471,6,"updated stim.csv","Version6.csv","Version 6","List 6","armor",NA,180,5.555555556,2717,0.437108817,181,"BOI","-","-","Please name all of the ways you could use this object. Keep in mind that one object can have many uses. Separate your responses with a comma.",NA,"y",26417,NA,NA,2024,24238,NA,NA,NA,"protect, polish, put on, impress people with,",1
"56ce42d9465e580006846f57","ij3qrde976","Affordance Norms_Prolific",1,27,"2023-07-26T18:01:44+00:00",50.925619840622,6,"updated stim.csv","Version6.csv","Version 6","List 6","neckerchief",NA,167,5.125,237,0.416830365,168,"BOI","-","-","Please name all of the ways you could use this object. Keep in mind that one object can have many uses. Separate your responses with a comma.",NA,"y",50437,NA,NA,4110,48459,NA,NA,NA,"keep warm, look smart, fold, wash, wear, clean cutlery, pick items up with, stop bleeding tie wounds, pick up sharp objects",1
"56ce42d9465e580006846f57","ij3qrde976","Affordance Norms_Prolific",1,28,"2023-07-26T18:02:55+00:00",70.913077116013,6,"updated stim.csv","Version6.csv","Version 6","List 6","alcohol",NA,179,5.523809524,205,0.969656849,180,"BOI","-","-","Please name all of the ways you could use this object. Keep in mind that one object can have many uses. Separate your responses with a comma.",NA,"y",70371,NA,NA,3558,68528,NA,NA,NA,"prepare, brew, drink, sanitise wounds, calm patients with, clean wounds, make someone sick with, use with flame to create fire ",1
"56ce42d9465e580006846f57","ij3qrde976","Affordance Norms_Prolific",1,29,"2023-07-26T18:03:20+00:00",25.290904998779,6,"updated stim.csv","Version6.csv","Version 6","List 6","vermicelli",NA,176,4.739130435,127,0.967270436,177,"BOI","-","-","Please name all of the ways you could use this object. Keep in mind that one object can have many uses. Separate your responses with a comma.",NA,"y",24821,NA,NA,5260,21681,NA,NA,NA,"put on floor, lay it down, walk on, protect a surface, decorate",1
"56ce42d9465e580006846f57","ij3qrde976","Affordance Norms_Prolific",1,30,"2023-07-26T18:03:50+00:00",30.170052051544,6,"updated stim.csv","Version6.csv","Version 6","List 6","handwork",NA,160,4.291666667,779,0.522113996,161,"BOI","-","-","Please name all of the ways you could use this object. Keep in mind that one object can have many uses. Separate your responses with a comma.",NA,"y",29707,NA,NA,4595,22996,NA,NA,NA,"carve, cut, create, polish, plane, smooth",1
"56ce42d9465e580006846f57","ij3qrde976","Affordance Norms_Prolific",1,31,"2023-07-26T18:04:18+00:00",27.809964895248,6,"updated stim.csv","Version6.csv","Version 6","List 6","toga",NA,175,5.652173913,2259,0.959918952,176,"BOI","-","-","Please name all of the ways you could use this object. Keep in mind that one object can have many uses. Separate your responses with a comma.",NA,"y",27305,NA,NA,2279,24730,NA,NA,NA,"wear, protect, cover up, reveal, sit on, lie on, wrap items in it",1
"56ce42d9465e580006846f57","ij3qrde976","Affordance Norms_Prolific",1,32,"2023-07-26T18:04:47+00:00",28.953542947769,6,"updated stim.csv","Version6.csv","Version 6","List 6","cymbals",NA,156,5.214285714,168,0.590683649,157,"BOI","-","-","Please name all of the ways you could use this object. Keep in mind that one object can have many uses. Separate your responses with a comma.",NA,"y",28470,NA,NA,2368,26587,NA,NA,NA,"bang, make noise, announce, summon, create noise",1
"56ce42d9465e580006846f57","ij3qrde976","Affordance Norms_Prolific",1,33,"2023-07-26T18:05:24+00:00",37.003953933716,6,"updated stim.csv","Version6.csv","Version 6","List 6","airman",NA,177,4.347826087,421,0.150190136,178,"BOI","-","-","Please name all of the ways you could use this object. Keep in mind that one object can have many uses. Separate your responses with a comma.",NA,"y",36523,NA,NA,1838,34053,NA,NA,NA,"fly, parachute, navigate, land, take off, steer, take people places, transport goods",1
"56ce42d9465e580006846f57","ij3qrde976","Affordance Norms_Prolific",1,34,"2023-07-26T18:05:57+00:00",32.662626028061,6,"updated stim.csv","Version6.csv","Version 6","List 6","swimsuit",NA,173,5.260869565,2615,0.993494851,174,"BOI","-","-","Please name all of the ways you could use this object. Keep in mind that one object can have many uses. Separate your responses with a comma.",NA,"y",31019,NA,NA,1651,29264,NA,NA,NA,"wear, protect, reveal, buy, choose, wrap items, show off, cover up",1
"56ce42d9465e580006846f57","ij3qrde976","Affordance Norms_Prolific",1,35,"2023-07-26T18:06:28+00:00",31.527530193329,6,"updated stim.csv","Version6.csv","Version 6","List 6","tangerine",NA,174,5.857142857,2931,0.820907003,175,"BOI","-","-","Please name all of the ways you could use this object. Keep in mind that one object can have many uses. Separate your responses with a comma.",NA,"y",31042,NA,NA,1950,29234,NA,NA,NA,"eat, use as table decoration, sow, grow, pick, buy, pack, brighten room, nourish, hydrate",1
"56ce42d9465e580006846f57","ij3qrde976","Affordance Norms_Prolific",1,36,"2023-07-26T18:07:09+00:00",40.977035999298,6,"updated stim.csv","Version6.csv","Version 6","List 6","river",NA,171,4.896551724,220,0.733213397,172,"BOI","-","-","Please name all of the ways you could use this object. Keep in mind that one object can have many uses. Separate your responses with a comma.",NA,"y",40505,NA,NA,2356,30053,NA,NA,NA,"flow, sustain life, drown, moisten, sail down, swim in, ",1
"56ce42d9465e580006846f57","ij3qrde976","Affordance Norms_Prolific",1,37,"2023-07-26T18:07:39+00:00",29.983103990555,6,"updated stim.csv","Version6.csv","Version 6","List 6","padding",NA,169,5.08,2892,0.374452273,170,"BOI","-","-","Please name all of the ways you could use this object. Keep in mind that one object can have many uses. Separate your responses with a comma.",NA,"y",29490,NA,NA,3643,27931,NA,NA,NA,"protect, strengthen, encase, keep warm, protect goods in transit",1
"56ce42d9465e580006846f57","ij3qrde976","Affordance Norms_Prolific",1,38,"2023-07-26T18:08:14+00:00",35.214731931686,6,"updated stim.csv","Version6.csv","Version 6","List 6","crate",NA,155,5.458333333,2703,0.677843929,156,"BOI","-","-","Please name all of the ways you could use this object. Keep in mind that one object can have many uses. Separate your responses with a comma.",NA,"y",34728,NA,NA,2415,32456,NA,NA,NA,"transport goods,pack items in, unpack, protect, security, keep safe, carve crate from wood",1
"56ce42d9465e580006846f57","ij3qrde976","Affordance Norms_Prolific",1,39,"2023-07-26T18:08:53+00:00",38.851758956909,6,"updated stim.csv","Version6.csv","Version 6","List 6","dustbin",NA,157,4.7,1959,0.18002119,158,"BOI","-","-","Please name all of the ways you could use this object. Keep in mind that one object can have many uses. Separate your responses with a comma.",NA,"y",38358,NA,NA,2519,36754,NA,NA,NA,"dispose of rubbish, move goods inside in, create dustbin go kart, put unsafe products in, hide in",1
"56ce42d9465e580006846f57","ij3qrde976","Affordance Norms_Prolific",1,40,"2023-07-26T18:09:43+00:00",50.143904924393,6,"updated stim.csv","Version6.csv","Version 6","List 6","licence",NA,162,5.038461538,1731,0.310058292,163,"BOI","-","-","Please name all of the ways you could use this object. Keep in mind that one object can have many uses. Separate your responses with a comma.",NA,"y",49660,NA,NA,10090,47504,NA,NA,NA,"prove you can keep gun, prove you can drive, prove you are married, show as identification, prove who you are, verify age",1
"5716a297c5aca200128d2c52","4rf0cvj5zo","Affordance Norms_Prolific",1,11,"2023-07-26T16:02:37+00:00",18.099909067154,9,"updated stim.csv","Version9.csv","Version 9","List 9","hutch",NA,267,5.52,1249,0.839198693,268,"BOI","-","-","Please name all of the ways you could use this object. Keep in mind that one object can have many uses. Separate your responses with a comma.",NA,"y",17565,NA,NA,2919,16907,NA,NA,NA,"house rabbit, convert to a cat bed, storage of plants",1
"5716a297c5aca200128d2c52","4rf0cvj5zo","Affordance Norms_Prolific",1,12,"2023-07-26T16:03:00+00:00",23.455194950104,9,"updated stim.csv","Version9.csv","Version 9","List 9","fishbone",NA,262,5.826086957,1125,0.285427589,263,"BOI","-","-","Please name all of the ways you could use this object. Keep in mind that one object can have many uses. Separate your responses with a comma.",NA,"y",22909,NA,NA,2944,22110,NA,NA,NA,"sewing needle, jewllery, museum exhibit",1
"5716a297c5aca200128d2c52","4rf0cvj5zo","Affordance Norms_Prolific",1,13,"2023-07-26T16:03:21+00:00",21.065655946732,9,"updated stim.csv","Version9.csv","Version 9","List 9","hickory",NA,266,5.791666667,2978,0.869670923,267,"BOI","-","-","Please name all of the ways you could use this object. Keep in mind that one object can have many uses. Separate your responses with a comma.",NA,"y",20520,NA,NA,2573,19722,NA,NA,NA,"make bad coffee, smoke it, cook in some dishes, throw into a cup for a game",1
"5716a297c5aca200128d2c52","4rf0cvj5zo","Affordance Norms_Prolific",1,14,"2023-07-26T16:03:41+00:00",19.51269197464,9,"updated stim.csv","Version9.csv","Version 9","List 9","lump",NA,243,4.68,2137,0.77966363,244,"BOI","-","-","Please name all of the ways you could use this object. Keep in mind that one object can have many uses. Separate your responses with a comma.",NA,"y",18882,NA,NA,8963,18173,NA,NA,NA,"throw like a ball, paperweight",1
"5716a297c5aca200128d2c52","4rf0cvj5zo","Affordance Norms_Prolific",1,15,"2023-07-26T16:04:00+00:00",19.721827983856,9,"updated stim.csv","Version9.csv","Version 9","List 9","broomstick",NA,251,5.56,85,0.630185252,252,"BOI","-","-","Please name all of the ways you could use this object. Keep in mind that one object can have many uses. Separate your responses with a comma.",NA,"y",19105,NA,NA,2841,18622,NA,NA,NA,"clean the floor, a decoration for halloween, kindling for fire",1
"5716a297c5aca200128d2c52","4rf0cvj5zo","Affordance Norms_Prolific",1,16,"2023-07-26T16:04:28+00:00",27.210732936859,9,"updated stim.csv","Version9.csv","Version 9","List 9","bugle",NA,252,4.384615385,1462,0.792855773,253,"BOI","-","-","Please name all of the ways you could use this object. Keep in mind that one object can have many uses. Separate your responses with a comma.",NA,"y",26663,NA,NA,1754,24216,NA,NA,NA,"play tunes on it, vase for flowers, melt the metal into something new, ",1
"5716a297c5aca200128d2c52","4rf0cvj5zo","Affordance Norms_Prolific",1,17,"2023-07-26T16:04:53+00:00",25.378496170044,9,"updated stim.csv","Version9.csv","Version 9","List 9","aluminum",NA,246,5.041666667,859,0.394435726,247,"BOI","-","-","Please name all of the ways you could use this object. Keep in mind that one object can have many uses. Separate your responses with a comma.",NA,"y",24779,NA,NA,2488,22212,NA,NA,NA,"foil covering for food, roofing, bright light when on fire, ",1
"5716a297c5aca200128d2c52","4rf0cvj5zo","Affordance Norms_Prolific",1,18,"2023-07-26T16:05:42+00:00",48.882941007614,9,"updated stim.csv","Version9.csv","Version 9","List 9","lens",NA,269,4.80952381,31,0.560695239,270,"BOI","-","-","Please name all of the ways you could use this object. Keep in mind that one object can have many uses. Separate your responses with a comma.",NA,"y",48323,NA,NA,2705,47404,NA,NA,NA,"glasses, make a fire, make jewellery",1
"5716a297c5aca200128d2c52","4rf0cvj5zo","Affordance Norms_Prolific",1,19,"2023-07-26T16:06:27+00:00",45.588135004044,9,"updated stim.csv","Version9.csv","Version 9","List 9","custard",NA,260,4.5,2840,0.767300611,261,"BOI","-","-","Please name all of the ways you could use this object. Keep in mind that one object can have many uses. Separate your responses with a comma.",NA,"y",44988,NA,NA,2209,44419,NA,NA,NA,"eat it, topping for dessert, throw things at it so it hardens like oobleck, add chocolate",1
"5716a297c5aca200128d2c52","4rf0cvj5zo","Affordance Norms_Prolific",1,20,"2023-07-26T16:06:42+00:00",14.674289941788,9,"updated stim.csv","Version9.csv","Version 9","List 9","bosom",NA,250,5.846153846,200,0.99406305,251,"BOI","-","-","Please name all of the ways you could use this object. Keep in mind that one object can have many uses. Separate your responses with a comma.",NA,"y",14106,NA,NA,9475,11895,NA,NA,NA,"add fashion over top",1
"5716a297c5aca200128d2c52","4rf0cvj5zo","Affordance Norms_Prolific",1,21,"2023-07-26T16:07:02+00:00",20.23339009285,9,"updated stim.csv","Version9.csv","Version 9","List 9","children",NA,255,5.2,2721,0.805795808,256,"BOI","-","-","Please name all of the ways you could use this object. Keep in mind that one object can have many uses. Separate your responses with a comma.",NA,"y",19671,NA,NA,4205,14974,NA,NA,NA,"play with them, teach them important things, take to museum, ",1
"5716a297c5aca200128d2c52","4rf0cvj5zo","Affordance Norms_Prolific",1,22,"2023-07-26T16:07:22+00:00",19.310208797455,9,"updated stim.csv","Version9.csv","Version 9","List 9","gown",NA,264,4.28,2221,0.151974823,265,"BOI","-","-","Please name all of the ways you could use this object. Keep in mind that one object can have many uses. Separate your responses with a comma.",NA,"y",18775,NA,NA,1789,17788,NA,NA,NA,"wear it, convert into another garment, hang up as a decoration",1
"5716a297c5aca200128d2c52","4rf0cvj5zo","Affordance Norms_Prolific",1,23,"2023-07-26T16:07:34+00:00",12.457843065262,9,"updated stim.csv","Version9.csv","Version 9","List 9","cartridge",NA,254,4.72,599,0.022418683,255,"BOI","-","-","Please name all of the ways you could use this object. Keep in mind that one object can have many uses. Separate your responses with a comma.",NA,"y",11907,NA,NA,2349,9154,NA,NA,NA,"put in printer for ink, fire in a gun, ",1
"5716a297c5aca200128d2c52","4rf0cvj5zo","Affordance Norms_Prolific",1,24,"2023-07-26T16:07:52+00:00",18.197638988495,9,"updated stim.csv","Version9.csv","Version 9","List 9","backboard",NA,249,6.52173913,2582,0.02685761,250,"BOI","-","-","Please name all of the ways you could use this object. Keep in mind that one object can have many uses. Separate your responses with a comma.",NA,"y",17562,NA,NA,2283,16804,NA,NA,NA,"lay against it, tie a baby to one to carry, use for decor in a craft room",1
"5716a297c5aca200128d2c52","4rf0cvj5zo","Affordance Norms_Prolific",1,25,"2023-07-26T16:08:06+00:00",13.626838922501,9,"updated stim.csv","Version9.csv","Version 9","List 9","cruiser",NA,259,5.04,510,0.869697856,260,"BOI","-","-","Please name all of the ways you could use this object. Keep in mind that one object can have many uses. Separate your responses with a comma.",NA,"y",11912,NA,NA,5716,11195,NA,NA,NA,"drive it?, repaint",1
"5716a297c5aca200128d2c52","4rf0cvj5zo","Affordance Norms_Prolific",1,26,"2023-07-26T16:08:41+00:00",34.615284204483,9,"updated stim.csv","Version9.csv","Version 9","List 9","plexiglas",NA,245,5.05,2813,0.492849182,246,"BOI","-","-","Please name all of the ways you could use this object. Keep in mind that one object can have many uses. Separate your responses with a comma.",NA,"y",34055,NA,NA,8094,33313,NA,NA,NA,"make a case for something special, submersible porthole, add windows into something",1
"5716a297c5aca200128d2c52","4rf0cvj5zo","Affordance Norms_Prolific",1,27,"2023-07-26T16:08:46+00:00",5.8465030193329,9,"updated stim.csv","Version9.csv","Version 9","List 9","chin",NA,256,4.583333333,2976,0.28598123,257,"BOI","-","-","Please name all of the ways you could use this object. Keep in mind that one object can have many uses. Separate your responses with a comma.",NA,"y",5053,NA,NA,2071,4160,NA,NA,NA,"grow a beard",1
"5716a297c5aca200128d2c52","4rf0cvj5zo","Affordance Norms_Prolific",1,28,"2023-07-26T16:08:59+00:00",12.29532289505,9,"updated stim.csv","Version9.csv","Version 9","List 9","assemblyman",NA,248,4.925925926,2852,0.127753764,249,"BOI","-","-","Please name all of the ways you could use this object. Keep in mind that one object can have many uses. Separate your responses with a comma.",NA,"y",11731,NA,NA,3763,10231,NA,NA,NA,"ask for help with diy furnitue",1
"5716a297c5aca200128d2c52","4rf0cvj5zo","Affordance Norms_Prolific",1,29,"2023-07-26T16:09:18+00:00",19.326867103577,9,"updated stim.csv","Version9.csv","Version 9","List 9","coaster",NA,258,6.458333333,896,0.003681913,259,"BOI","-","-","Please name all of the ways you could use this object. Keep in mind that one object can have many uses. Separate your responses with a comma.",NA,"y",18768,NA,NA,14705,17753,NA,NA,NA,"put hot drinks on",1
"5716a297c5aca200128d2c52","4rf0cvj5zo","Affordance Norms_Prolific",1,30,"2023-07-26T16:09:35+00:00",17.492273807526,9,"updated stim.csv","Version9.csv","Version 9","List 9","ledger",NA,268,5.75,1998,0.769402376,269,"BOI","-","-","Please name all of the ways you could use this object. Keep in mind that one object can have many uses. Separate your responses with a comma.",NA,"y",16936,NA,NA,1888,15466,NA,NA,NA,"write things in it, make origami with pages",1
"5716a297c5aca200128d2c52","4rf0cvj5zo","Affordance Norms_Prolific",1,31,"2023-07-26T16:09:50+00:00",14.663305997849,9,"updated stim.csv","Version9.csv","Version 9","List 9","clerk",NA,257,6.068965517,413,0.55347765,258,"BOI","-","-","Please name all of the ways you could use this object. Keep in mind that one object can have many uses. Separate your responses with a comma.",NA,"y",14108,NA,NA,1716,13326,NA,NA,NA,"ask them to file things for you, write up letters",1
"5716a297c5aca200128d2c52","4rf0cvj5zo","Affordance Norms_Prolific",1,32,"2023-07-26T16:10:01+00:00",11.160161972046,9,"updated stim.csv","Version9.csv","Version 9","List 9","plaque",NA,244,5.413793103,239,0.767968501,245,"BOI","-","-","Please name all of the ways you could use this object. Keep in mind that one object can have many uses. Separate your responses with a comma.",NA,"y",10452,NA,NA,2070,9637,NA,NA,NA,"put it on the wall, paint it for decor",1
"5716a297c5aca200128d2c52","4rf0cvj5zo","Affordance Norms_Prolific",1,33,"2023-07-26T16:10:19+00:00",17.751741170883,9,"updated stim.csv","Version9.csv","Version 9","List 9","greens",NA,265,6.291666667,2105,0.327813639,266,"BOI","-","-","Please name all of the ways you could use this object. Keep in mind that one object can have many uses. Separate your responses with a comma.",NA,"y",16834,NA,NA,1328,15662,NA,NA,NA,"eat them, cook in many dishes, grow new plants, in vase for decoration",1
"5716a297c5aca200128d2c52","4rf0cvj5zo","Affordance Norms_Prolific",1,34,"2023-07-26T16:10:41+00:00",22.225817918777,9,"updated stim.csv","Version9.csv","Version 9","List 9","capsule",NA,253,4.875,2557,0.13601316,254,"BOI","-","-","Please name all of the ways you could use this object. Keep in mind that one object can have many uses. Separate your responses with a comma.",NA,"y",21668,NA,NA,2253,12116,NA,NA,NA,"put something in it, fire it in a tube through a building",1
"5716a297c5aca200128d2c52","4rf0cvj5zo","Affordance Norms_Prolific",1,35,"2023-07-26T16:10:55+00:00",13.936155080795,9,"updated stim.csv","Version9.csv","Version 9","List 9","fillet",NA,241,4.28,1629,0.300205289,242,"BOI","-","-","Please name all of the ways you could use this object. Keep in mind that one object can have many uses. Separate your responses with a comma.",NA,"y",12508,NA,NA,2307,11926,NA,NA,NA,"cook it, season and BBQ, give to a pet",1
"5716a297c5aca200128d2c52","4rf0cvj5zo","Affordance Norms_Prolific",1,36,"2023-07-26T16:11:11+00:00",15.731153011322,9,"updated stim.csv","Version9.csv","Version 9","List 9","appendage",NA,247,4.916666667,2791,0.621648514,248,"BOI","-","-","Please name all of the ways you could use this object. Keep in mind that one object can have many uses. Separate your responses with a comma.",NA,"y",14914,NA,NA,10458,13963,NA,NA,NA,"remove it if appendix",1
"5716a297c5aca200128d2c52","4rf0cvj5zo","Affordance Norms_Prolific",1,37,"2023-07-26T16:11:28+00:00",16.696652889252,9,"updated stim.csv","Version9.csv","Version 9","List 9","limb",NA,270,4.333333333,1816,0.055847864,271,"BOI","-","-","Please name all of the ways you could use this object. Keep in mind that one object can have many uses. Separate your responses with a comma.",NA,"y",16133,NA,NA,2346,14949,NA,NA,NA,"hold things, punch/kick people, do exercises, type",1
"5716a297c5aca200128d2c52","4rf0cvj5zo","Affordance Norms_Prolific",1,38,"2023-07-26T16:11:42+00:00",14.693863153458,9,"updated stim.csv","Version9.csv","Version 9","List 9","foliage",NA,263,5.52,551,0.620791367,264,"BOI","-","-","Please name all of the ways you could use this object. Keep in mind that one object can have many uses. Separate your responses with a comma.",NA,"y",14135,NA,NA,2469,10976,NA,NA,NA,"use for decoration, grow and nuture, ",1
"5716a297c5aca200128d2c52","4rf0cvj5zo","Affordance Norms_Prolific",1,39,"2023-07-26T16:11:56+00:00",13.442177772522,9,"updated stim.csv","Version9.csv","Version 9","List 9","dermatologist",NA,261,5.291666667,2333,0.088519981,262,"BOI","-","-","Please name all of the ways you could use this object. Keep in mind that one object can have many uses. Separate your responses with a comma.",NA,"y",12865,NA,NA,1821,11943,NA,NA,NA,"check moles, treat skin cancer, advise on products for acne",1
"5716a297c5aca200128d2c52","4rf0cvj5zo","Affordance Norms_Prolific",1,40,"2023-07-26T16:12:07+00:00",11.107461214066,9,"updated stim.csv","Version9.csv","Version 9","List 9","giblets",NA,242,6.166666667,203,0.96821643,243,"BOI","-","-","Please name all of the ways you could use this object. Keep in mind that one object can have many uses. Separate your responses with a comma.",NA,"y",10548,NA,NA,2388,8546,NA,NA,NA,"throw away, give as animal feed",1
"59d8ec713e5ea00001e1d09c","os78pqwdgi","Affordance Norms_Prolific",1,11,"2023-07-26T16:20:29+00:00",17.779164075851,15,"updated stim.csv","Version15.csv","Version 15","List 15","tissue",NA,423,4.391304348,550,0.085968356,424,"BOI","-","-","Please name all of the ways you could use this object. Keep in mind that one object can have many uses. Separate your responses with a comma.",NA,"y",16945,NA,NA,3175,14867,NA,NA,NA,"sneezing , wiping nose, cleaning up a mess",1
"59d8ec713e5ea00001e1d09c","os78pqwdgi","Affordance Norms_Prolific",1,12,"2023-07-26T16:20:46+00:00",16.887498855591,15,"updated stim.csv","Version15.csv","Version 15","List 15","mountain",NA,428,4.958333333,2763,0.021755234,429,"BOI","-","-","Please name all of the ways you could use this object. Keep in mind that one object can have many uses. Separate your responses with a comma.",NA,"y",16044,NA,NA,3113,15138,NA,NA,NA,"climbing up it, looking at it, enjoy the view from the top ",1
"59d8ec713e5ea00001e1d09c","os78pqwdgi","Affordance Norms_Prolific",1,13,"2023-07-26T16:21:12+00:00",26.080866098404,15,"updated stim.csv","Version15.csv","Version 15","List 15","smock",NA,439,4.333333333,922,0.993576252,440,"BOI","-","-","Please name all of the ways you could use this object. Keep in mind that one object can have many uses. Separate your responses with a comma.",NA,"y",25287,NA,NA,3995,24516,NA,NA,NA,"wear as a dress, use to keep cool , use to show personality ",1
"59d8ec713e5ea00001e1d09c","os78pqwdgi","Affordance Norms_Prolific",1,14,"2023-07-26T16:21:33+00:00",21.162103891373,15,"updated stim.csv","Version15.csv","Version 15","List 15","timepiece",NA,437,4.6,1869,0.022813055,438,"BOI","-","-","Please name all of the ways you could use this object. Keep in mind that one object can have many uses. Separate your responses with a comma.",NA,"y",16612,NA,NA,4163,15923,NA,NA,NA,"to show sense of style, to tell the time ",1
"59d8ec713e5ea00001e1d09c","os78pqwdgi","Affordance Norms_Prolific",1,15,"2023-07-26T16:22:06+00:00",33.164548158646,15,"updated stim.csv","Version15.csv","Version 15","List 15","fruitcake",NA,427,5.826086957,422,0.328762048,428,"BOI","-","-","Please name all of the ways you could use this object. Keep in mind that one object can have many uses. Separate your responses with a comma.",NA,"y",32319,NA,NA,5090,31617,NA,NA,NA,"for a snack , for a desert, for a wedding , for christmas ",1
"59d8ec713e5ea00001e1d09c","os78pqwdgi","Affordance Norms_Prolific",1,16,"2023-07-26T16:22:33+00:00",26.537111997604,15,"updated stim.csv","Version15.csv","Version 15","List 15","tinderbox",NA,422,4.888888889,1367,0.47461087,423,"BOI","-","-","Please name all of the ways you could use this object. Keep in mind that one object can have many uses. Separate your responses with a comma.",NA,"y",25669,NA,NA,18519,24994,NA,NA,NA,"matches , keep things in ",1
"59d8ec713e5ea00001e1d09c","os78pqwdgi","Affordance Norms_Prolific",1,17,"2023-07-26T16:22:55+00:00",21.995893955231,15,"updated stim.csv","Version15.csv","Version 15","List 15","clergy",NA,443,5.333333333,1504,0.414036557,444,"BOI","-","-","Please name all of the ways you could use this object. Keep in mind that one object can have many uses. Separate your responses with a comma.",NA,"y",21135,NA,NA,9881,20463,NA,NA,NA,"for a funeral, for a baptism , for a wedding ",1
"59d8ec713e5ea00001e1d09c","os78pqwdgi","Affordance Norms_Prolific",1,18,"2023-07-26T16:23:11+00:00",16.133720874786,15,"updated stim.csv","Version15.csv","Version 15","List 15","corduroy",NA,444,6.111111111,365,0.030114514,445,"BOI","-","-","Please name all of the ways you could use this object. Keep in mind that one object can have many uses. Separate your responses with a comma.",NA,"y",15292,NA,NA,1621,13198,NA,NA,NA,"for jeans , for a jacket , for trousers, pinafore dress, clothing ",1
"59d8ec713e5ea00001e1d09c","os78pqwdgi","Affordance Norms_Prolific",1,19,"2023-07-26T16:23:32+00:00",21.334645032883,15,"updated stim.csv","Version15.csv","Version 15","List 15","stall",NA,441,4.5,651,0.966954402,442,"BOI","-","-","Please name all of the ways you could use this object. Keep in mind that one object can have many uses. Separate your responses with a comma.",NA,"y",20452,NA,NA,2718,19675,NA,NA,NA,"to keep animals in , to display goods at a market , a toilet ",1
"59d8ec713e5ea00001e1d09c","os78pqwdgi","Affordance Norms_Prolific",1,20,"2023-07-26T16:23:48+00:00",15.528477907181,15,"updated stim.csv","Version15.csv","Version 15","List 15","saucepan",NA,432,4.52173913,1013,0.365858235,433,"BOI","-","-","Please name all of the ways you could use this object. Keep in mind that one object can have many uses. Separate your responses with a comma.",NA,"y",14643,NA,NA,1561,13937,NA,NA,NA,"for cooking pasta , for cooking eggs, for cooking a sauce ",1
"59d8ec713e5ea00001e1d09c","os78pqwdgi","Affordance Norms_Prolific",1,21,"2023-07-26T16:24:06+00:00",18.188509225845,15,"updated stim.csv","Version15.csv","Version 15","List 15","goddaughter",NA,442,4.75,2552,0.711529641,443,"BOI","-","-","Please name all of the ways you could use this object. Keep in mind that one object can have many uses. Separate your responses with a comma.",NA,"y",17318,NA,NA,5061,16581,NA,NA,NA,"to be a godparent , to keep safe",1
"59d8ec713e5ea00001e1d09c","os78pqwdgi","Affordance Norms_Prolific",1,22,"2023-07-26T16:24:33+00:00",26.76663684845,15,"updated stim.csv","Version15.csv","Version 15","List 15","pen",NA,431,4.6,55,0.282470897,432,"BOI","-","-","Please name all of the ways you could use this object. Keep in mind that one object can have many uses. Separate your responses with a comma.",NA,"y",25950,NA,NA,1372,25215,NA,NA,NA,"to write down thoughts, to write down a shopping list, to express ideas, to put pen to paper ",1
"59d8ec713e5ea00001e1d09c","os78pqwdgi","Affordance Norms_Prolific",1,23,"2023-07-26T16:24:43+00:00",10.510911941528,15,"updated stim.csv","Version15.csv","Version 15","List 15","ukulele",NA,424,5.04,2373,0.526230235,425,"BOI","-","-","Please name all of the ways you could use this object. Keep in mind that one object can have many uses. Separate your responses with a comma.",NA,"y",9713,NA,NA,1452,8361,NA,NA,NA,"to make music , to be in a band ",1
"59d8ec713e5ea00001e1d09c","os78pqwdgi","Affordance Norms_Prolific",1,24,"2023-07-26T16:25:00+00:00",16.668556213379,15,"updated stim.csv","Version15.csv","Version 15","List 15","pulp",NA,448,5.769230769,1148,0.122398019,449,"BOI","-","-","Please name all of the ways you could use this object. Keep in mind that one object can have many uses. Separate your responses with a comma.",NA,"y",13474,NA,NA,2196,12634,NA,NA,NA,"to make a meal from the pulp of fruit ",1
"59d8ec713e5ea00001e1d09c","os78pqwdgi","Affordance Norms_Prolific",1,25,"2023-07-26T16:25:13+00:00",13.458552837372,15,"updated stim.csv","Version15.csv","Version 15","List 15","stool",NA,434,5.275862069,2159,0.75962687,435,"BOI","-","-","Please name all of the ways you could use this object. Keep in mind that one object can have many uses. Separate your responses with a comma.",NA,"y",12543,NA,NA,1635,11727,NA,NA,NA,"to sit down , to sit at a table ",1
"59d8ec713e5ea00001e1d09c","os78pqwdgi","Affordance Norms_Prolific",1,26,"2023-07-26T16:25:26+00:00",13.104078054428,15,"updated stim.csv","Version15.csv","Version 15","List 15","terrace",NA,436,5.24,2120,0.111236528,437,"BOI","-","-","Please name all of the ways you could use this object. Keep in mind that one object can have many uses. Separate your responses with a comma.",NA,"y",12271,NA,NA,2336,11231,NA,NA,NA,"to sit outside in the sunshine , to live in a house ",1
"59d8ec713e5ea00001e1d09c","os78pqwdgi","Affordance Norms_Prolific",1,27,"2023-07-26T16:25:39+00:00",12.140283107758,15,"updated stim.csv","Version15.csv","Version 15","List 15","boa",NA,440,6.086956522,399,0.792412943,441,"BOI","-","-","Please name all of the ways you could use this object. Keep in mind that one object can have many uses. Separate your responses with a comma.",NA,"y",11168,NA,NA,3504,10153,NA,NA,NA,"to accesorize and outfit ",1
"59d8ec713e5ea00001e1d09c","os78pqwdgi","Affordance Norms_Prolific",1,28,"2023-07-26T16:25:48+00:00",9.6934788227081,15,"updated stim.csv","Version15.csv","Version 15","List 15","flyswatter",NA,426,5.458333333,1764,0.165548754,427,"BOI","-","-","Please name all of the ways you could use this object. Keep in mind that one object can have many uses. Separate your responses with a comma.",NA,"y",8723,NA,NA,2408,7973,NA,NA,NA,"to get rid of flies or wasps ",1
"59d8ec713e5ea00001e1d09c","os78pqwdgi","Affordance Norms_Prolific",1,29,"2023-07-26T16:26:03+00:00",14.625242948532,15,"updated stim.csv","Version15.csv","Version 15","List 15","okra",NA,430,4.44,1800,0.127937549,431,"BOI","-","-","Please name all of the ways you could use this object. Keep in mind that one object can have many uses. Separate your responses with a comma.",NA,"y",13782,NA,NA,10794,12959,NA,NA,NA,"to make a meal ",1
"59d8ec713e5ea00001e1d09c","os78pqwdgi","Affordance Norms_Prolific",1,30,"2023-07-26T16:26:33+00:00",30.285972118378,15,"updated stim.csv","Version15.csv","Version 15","List 15","thumbtack",NA,421,4.5,2586,0.114183625,422,"BOI","-","-","Please name all of the ways you could use this object. Keep in mind that one object can have many uses. Separate your responses with a comma.",NA,"y",27887,NA,NA,14258,26846,NA,NA,NA,"to affix paper to a wall, to affix pictures to a wall",1
"59d8ec713e5ea00001e1d09c","os78pqwdgi","Affordance Norms_Prolific",1,31,"2023-07-26T16:26:53+00:00",20.136765003204,15,"updated stim.csv","Version15.csv","Version 15","List 15","outfielder",NA,447,4.772727273,1754,0.905080051,448,"BOI","-","-","Please name all of the ways you could use this object. Keep in mind that one object can have many uses. Separate your responses with a comma.",NA,"y",19251,NA,NA,12958,18600,NA,NA,NA,"playing ball game on a pitch ",1
"59d8ec713e5ea00001e1d09c","os78pqwdgi","Affordance Norms_Prolific",1,32,"2023-07-26T16:27:10+00:00",16.58028793335,15,"updated stim.csv","Version15.csv","Version 15","List 15","dove",NA,445,6.08,1412,0.85415253,446,"BOI","-","-","Please name all of the ways you could use this object. Keep in mind that one object can have many uses. Separate your responses with a comma.",NA,"y",15709,NA,NA,3123,14622,NA,NA,NA,"to use for a wedding , to signify peace ",1
"59d8ec713e5ea00001e1d09c","os78pqwdgi","Affordance Norms_Prolific",1,33,"2023-07-26T16:27:22+00:00",11.769665002823,15,"updated stim.csv","Version15.csv","Version 15","List 15","stomach",NA,433,4.652173913,2420,0.469760498,434,"BOI","-","-","Please name all of the ways you could use this object. Keep in mind that one object can have many uses. Separate your responses with a comma.",NA,"y",10945,NA,NA,1715,10259,NA,NA,NA,"to eat food , to digest food ",1
"59d8ec713e5ea00001e1d09c","os78pqwdgi","Affordance Norms_Prolific",1,34,"2023-07-26T16:27:34+00:00",11.989833116531,15,"updated stim.csv","Version15.csv","Version 15","List 15","table",NA,435,5.851851852,2152,0.017631805,436,"BOI","-","-","Please name all of the ways you could use this object. Keep in mind that one object can have many uses. Separate your responses with a comma.",NA,"y",11183,NA,NA,1378,10244,NA,NA,NA,"to sit at and eat, to sit at and work ",1
"59d8ec713e5ea00001e1d09c","os78pqwdgi","Affordance Norms_Prolific",1,35,"2023-07-26T16:27:53+00:00",19.493146896362,15,"updated stim.csv","Version15.csv","Version 15","List 15","cosmetician",NA,438,4.454545455,2185,0.868683002,439,"BOI","-","-","Please name all of the ways you could use this object. Keep in mind that one object can have many uses. Separate your responses with a comma.",NA,"y",18642,NA,NA,2935,17839,NA,NA,NA,"to have procedures done to ones skin ",1
"59d8ec713e5ea00001e1d09c","os78pqwdgi","Affordance Norms_Prolific",1,36,"2023-07-26T16:28:12+00:00",18.466171979904,15,"updated stim.csv","Version15.csv","Version 15","List 15","rowboat",NA,449,5.826086957,2727,0.638758823,450,"BOI","-","-","Please name all of the ways you could use this object. Keep in mind that one object can have many uses. Separate your responses with a comma.",NA,"y",17634,NA,NA,5425,16844,NA,NA,NA,"to go on a boat ride together , to go on a boat alone ",1
"59d8ec713e5ea00001e1d09c","os78pqwdgi","Affordance Norms_Prolific",1,37,"2023-07-26T16:28:23+00:00",11.925315141678,15,"updated stim.csv","Version15.csv","Version 15","List 15","mouth",NA,429,5.56,2676,0.363619709,430,"BOI","-","-","Please name all of the ways you could use this object. Keep in mind that one object can have many uses. Separate your responses with a comma.",NA,"y",11050,NA,NA,1096,10503,NA,NA,NA,"to eat, to speak , to drink , to kiss",1
"59d8ec713e5ea00001e1d09c","os78pqwdgi","Affordance Norms_Prolific",1,38,"2023-07-26T16:28:36+00:00",12.125075817108,15,"updated stim.csv","Version15.csv","Version 15","List 15","mutton",NA,446,5.045454545,2031,0.306327361,447,"BOI","-","-","Please name all of the ways you could use this object. Keep in mind that one object can have many uses. Separate your responses with a comma.",NA,"y",11328,NA,NA,5272,7716,NA,NA,NA,"stew",1
"59d8ec713e5ea00001e1d09c","os78pqwdgi","Affordance Norms_Prolific",1,39,"2023-07-26T16:28:50+00:00",14.574737071991,15,"updated stim.csv","Version15.csv","Version 15","List 15","swan",NA,450,6.2,2649,0.536720356,451,"BOI","-","-","Please name all of the ways you could use this object. Keep in mind that one object can have many uses. Separate your responses with a comma.",NA,"y",13201,NA,NA,3394,12454,NA,NA,NA,"to watch it and enjoy the serenity ",1
"59d8ec713e5ea00001e1d09c","os78pqwdgi","Affordance Norms_Prolific",1,40,"2023-07-26T16:29:01+00:00",11.204837083817,15,"updated stim.csv","Version15.csv","Version 15","List 15","bed",NA,425,6.291666667,1677,0.69421982,426,"BOI","-","-","Please name all of the ways you could use this object. Keep in mind that one object can have many uses. Separate your responses with a comma.",NA,"y",10344,NA,NA,1027,8356,NA,NA,NA,"to sleep, to sit, to read",1
"59f709c1b47dfc0001b65fc9","x272mtvtk1","Affordance Norms_Prolific",1,11,"2023-07-26T17:52:14+00:00",30.581165075302,8,"updated stim.csv","Version8.csv","Version 8","List 8","fir",NA,231,4.545454545,558,0.033017559,232,"BOI","-","-","Please name all of the ways you could use this object. Keep in mind that one object can have many uses. Separate your responses with a comma.",NA,"y",28889,NA,NA,9826,26587,NA,NA,NA,"harvest, cut down",1
"59f709c1b47dfc0001b65fc9","x272mtvtk1","Affordance Norms_Prolific",1,12,"2023-07-26T17:52:31+00:00",17.057736873627,8,"updated stim.csv","Version8.csv","Version 8","List 8","fork",NA,211,5.375,852,0.400751294,212,"BOI","-","-","Please name all of the ways you could use this object. Keep in mind that one object can have many uses. Separate your responses with a comma.",NA,"y",16216,NA,NA,2024,14847,NA,NA,NA,"eating, cleaning, stabbing",1
"59f709c1b47dfc0001b65fc9","x272mtvtk1","Affordance Norms_Prolific",1,13,"2023-07-26T17:52:53+00:00",22.036768913269,8,"updated stim.csv","Version8.csv","Version 8","List 8","sledge",NA,238,5.62962963,2010,0.625895758,239,"BOI","-","-","Please name all of the ways you could use this object. Keep in mind that one object can have many uses. Separate your responses with a comma.",NA,"y",19213,NA,NA,2870,12838,NA,NA,NA,"sledding, sitting, standing on",1
"59f709c1b47dfc0001b65fc9","x272mtvtk1","Affordance Norms_Prolific",1,14,"2023-07-26T17:53:18+00:00",25.757004022598,8,"updated stim.csv","Version8.csv","Version 8","List 8","bloomers",NA,230,6,1060,0.931705867,231,"BOI","-","-","Please name all of the ways you could use this object. Keep in mind that one object can have many uses. Separate your responses with a comma.",NA,"y",25352,NA,NA,2231,23972,NA,NA,NA,"wearing, decorating",1
"59f709c1b47dfc0001b65fc9","x272mtvtk1","Affordance Norms_Prolific",1,15,"2023-07-26T17:53:33+00:00",15.039569139481,8,"updated stim.csv","Version8.csv","Version 8","List 8","suds",NA,226,4.35,1937,0.497580512,227,"BOI","-","-","Please name all of the ways you could use this object. Keep in mind that one object can have many uses. Separate your responses with a comma.",NA,"y",14627,NA,NA,5003,13521,NA,NA,NA,"cleaning, making a beard",1
"59f709c1b47dfc0001b65fc9","x272mtvtk1","Affordance Norms_Prolific",1,16,"2023-07-26T17:53:41+00:00",7.9447119235992,8,"updated stim.csv","Version8.csv","Version 8","List 8","thong",NA,227,5.826086957,5,0.076040939,228,"BOI","-","-","Please name all of the ways you could use this object. Keep in mind that one object can have many uses. Separate your responses with a comma.",NA,"y",6994,NA,NA,1882,5962,NA,NA,NA,"wearing, washing",1
"59f709c1b47dfc0001b65fc9","x272mtvtk1","Affordance Norms_Prolific",1,17,"2023-07-26T17:53:56+00:00",14.956727027893,8,"updated stim.csv","Version8.csv","Version 8","List 8","azalea",NA,222,4.333333333,1183,0.64899298,223,"BOI","-","-","Please name all of the ways you could use this object. Keep in mind that one object can have many uses. Separate your responses with a comma.",NA,"y",14529,NA,NA,6007,12530,NA,NA,NA,"planting, pruning, ",1
"59f709c1b47dfc0001b65fc9","x272mtvtk1","Affordance Norms_Prolific",1,18,"2023-07-26T17:54:23+00:00",26.803138017654,8,"updated stim.csv","Version8.csv","Version 8","List 8","physiologist",NA,215,4.62962963,1519,0.262823842,216,"BOI","-","-","Please name all of the ways you could use this object. Keep in mind that one object can have many uses. Separate your responses with a comma.",NA,"y",26381,NA,NA,9557,21521,NA,NA,NA,"healthcare, rehabilitation",1
"59f709c1b47dfc0001b65fc9","x272mtvtk1","Affordance Norms_Prolific",1,19,"2023-07-26T17:54:35+00:00",12.209053993225,8,"updated stim.csv","Version8.csv","Version 8","List 8","smooch",NA,217,5.714285714,189,0.160382134,218,"BOI","-","-","Please name all of the ways you could use this object. Keep in mind that one object can have many uses. Separate your responses with a comma.",NA,"y",11728,NA,NA,5599,8811,NA,NA,NA,"to express love, ",1
"59f709c1b47dfc0001b65fc9","x272mtvtk1","Affordance Norms_Prolific",1,20,"2023-07-26T17:54:45+00:00",10.112691879272,8,"updated stim.csv","Version8.csv","Version 8","List 8","quill",NA,216,5.260869565,1860,0.771460967,217,"BOI","-","-","Please name all of the ways you could use this object. Keep in mind that one object can have many uses. Separate your responses with a comma.",NA,"y",9622,NA,NA,2421,6148,NA,NA,NA,"writing, drawing",1
"59f709c1b47dfc0001b65fc9","x272mtvtk1","Affordance Norms_Prolific",1,21,"2023-07-26T17:54:55+00:00",9.8347251415253,8,"updated stim.csv","Version8.csv","Version 8","List 8","walnut",NA,218,5.090909091,1863,0.914778388,219,"BOI","-","-","Please name all of the ways you could use this object. Keep in mind that one object can have many uses. Separate your responses with a comma.",NA,"y",9401,NA,NA,1504,7444,NA,NA,NA,"eating, growing, storing",1
"59f709c1b47dfc0001b65fc9","x272mtvtk1","Affordance Norms_Prolific",1,22,"2023-07-26T17:55:25+00:00",29.523890972137,8,"updated stim.csv","Version8.csv","Version 8","List 8","lick",NA,224,4.409090909,925,0.140617165,225,"BOI","-","-","Please name all of the ways you could use this object. Keep in mind that one object can have many uses. Separate your responses with a comma.",NA,"y",21690,NA,NA,7942,20644,NA,NA,NA,"to taste food, to see if something is hot or cold",1
"59f709c1b47dfc0001b65fc9","x272mtvtk1","Affordance Norms_Prolific",1,23,"2023-07-26T17:55:48+00:00",23.012897968292,8,"updated stim.csv","Version8.csv","Version 8","List 8","paintbrush",NA,214,4.84,2302,0.90340916,215,"BOI","-","-","Please name all of the ways you could use this object. Keep in mind that one object can have many uses. Separate your responses with a comma.",NA,"y",13411,NA,NA,2580,9442,NA,NA,NA,"painting, decorating, gluing, ",1
"59f709c1b47dfc0001b65fc9","x272mtvtk1","Affordance Norms_Prolific",1,24,"2023-07-26T17:56:05+00:00",17.042184114456,8,"updated stim.csv","Version8.csv","Version 8","List 8","wreath",NA,220,6.24137931,103,0.11835624,221,"BOI","-","-","Please name all of the ways you could use this object. Keep in mind that one object can have many uses. Separate your responses with a comma.",NA,"y",13223,NA,NA,3068,12159,NA,NA,NA,"decorating, making, displaying",1
"59f709c1b47dfc0001b65fc9","x272mtvtk1","Affordance Norms_Prolific",1,25,"2023-07-26T17:59:01+00:00",176.34536194801,8,"updated stim.csv","Version8.csv","Version 8","List 8","polyester",NA,225,5.807692308,894,0.26688468,226,"BOI","-","-","Please name all of the ways you could use this object. Keep in mind that one object can have many uses. Separate your responses with a comma.",NA,"y",14531,NA,NA,5299,11659,NA,NA,NA,"sewing, making clothes, wearing,",1
"59f709c1b47dfc0001b65fc9","x272mtvtk1","Affordance Norms_Prolific",1,26,"2023-07-26T17:59:12+00:00",11.222357034683,8,"updated stim.csv","Version8.csv","Version 8","List 8","cuttlefish",NA,240,5.47826087,2624,0.573904042,241,"BOI","-","-","Please name all of the ways you could use this object. Keep in mind that one object can have many uses. Separate your responses with a comma.",NA,"y",10798,NA,NA,1826,9382,NA,NA,NA,"eating, fishing, looking at, watching",1
"59f709c1b47dfc0001b65fc9","x272mtvtk1","Affordance Norms_Prolific",1,27,"2023-07-26T17:59:31+00:00",18.95112490654,8,"updated stim.csv","Version8.csv","Version 8","List 8","bowling",NA,228,6.16,2535,0.473992945,229,"BOI","-","-","Please name all of the ways you could use this object. Keep in mind that one object can have many uses. Separate your responses with a comma.",NA,"y",16282,NA,NA,5473,15418,NA,NA,NA,"playing, watching, supporting, enjoying",1
"59f709c1b47dfc0001b65fc9","x272mtvtk1","Affordance Norms_Prolific",1,28,"2023-07-26T17:59:45+00:00",13.622208118439,8,"updated stim.csv","Version8.csv","Version 8","List 8","rye",NA,235,4.4,1625,0.181387363,236,"BOI","-","-","Please name all of the ways you could use this object. Keep in mind that one object can have many uses. Separate your responses with a comma.",NA,"y",13157,NA,NA,3306,12793,NA,NA,NA,"baking, cooking, eating, growing, harvesting",1
"59f709c1b47dfc0001b65fc9","x272mtvtk1","Affordance Norms_Prolific",1,29,"2023-07-26T18:00:06+00:00",20.783973932266,8,"updated stim.csv","Version8.csv","Version 8","List 8","loaf",NA,221,4.48,1689,0.151002659,222,"BOI","-","-","Please name all of the ways you could use this object. Keep in mind that one object can have many uses. Separate your responses with a comma.",NA,"y",12493,NA,NA,2258,10905,NA,NA,NA,"eating, smelling, baking",1
"59f709c1b47dfc0001b65fc9","x272mtvtk1","Affordance Norms_Prolific",1,30,"2023-07-26T18:00:21+00:00",15.432134866714,8,"updated stim.csv","Version8.csv","Version 8","List 8","proprietor",NA,234,6.038461538,260,0.738290174,235,"BOI","-","-","Please name all of the ways you could use this object. Keep in mind that one object can have many uses. Separate your responses with a comma.",NA,"y",14996,NA,NA,3846,5275,NA,NA,NA,"visiting",1
"59f709c1b47dfc0001b65fc9","x272mtvtk1","Affordance Norms_Prolific",1,31,"2023-07-26T18:00:32+00:00",11.178994178772,8,"updated stim.csv","Version8.csv","Version 8","List 8","ant",NA,239,4.52,691,0.967555981,240,"BOI","-","-","Please name all of the ways you could use this object. Keep in mind that one object can have many uses. Separate your responses with a comma.",NA,"y",10695,NA,NA,5516,10296,NA,NA,NA,"keeping, watching, carrying",1
"59f709c1b47dfc0001b65fc9","x272mtvtk1","Affordance Norms_Prolific",1,32,"2023-07-26T18:00:43+00:00",10.192916870117,8,"updated stim.csv","Version8.csv","Version 8","List 8","workbench",NA,219,4.64,2738,0.501435614,220,"BOI","-","-","Please name all of the ways you could use this object. Keep in mind that one object can have many uses. Separate your responses with a comma.",NA,"y",9774,NA,NA,1915,9557,NA,NA,NA,"sitting, working, crafting",1
"59f709c1b47dfc0001b65fc9","x272mtvtk1","Affordance Norms_Prolific",1,33,"2023-07-26T18:01:09+00:00",26.511399030685,8,"updated stim.csv","Version8.csv","Version 8","List 8","goalpost",NA,232,4.272727273,445,0.110016369,233,"BOI","-","-","Please name all of the ways you could use this object. Keep in mind that one object can have many uses. Separate your responses with a comma.",NA,"y",26081,NA,NA,2010,25857,NA,NA,NA,"scoring, building",1
"59f709c1b47dfc0001b65fc9","x272mtvtk1","Affordance Norms_Prolific",1,34,"2023-07-26T18:01:25+00:00",15.438368082047,8,"updated stim.csv","Version8.csv","Version 8","List 8","hostel",NA,212,4.44,2187,0.118404242,213,"BOI","-","-","Please name all of the ways you could use this object. Keep in mind that one object can have many uses. Separate your responses with a comma.",NA,"y",15013,NA,NA,9841,14845,NA,NA,NA,"living, sleeping, visiting",1
"59f709c1b47dfc0001b65fc9","x272mtvtk1","Affordance Norms_Prolific",1,35,"2023-07-26T18:01:33+00:00",8.7739329338074,8,"updated stim.csv","Version8.csv","Version 8","List 8","sandpaper",NA,236,5.269230769,2335,0.866817871,237,"BOI","-","-","Please name all of the ways you could use this object. Keep in mind that one object can have many uses. Separate your responses with a comma.",NA,"y",8006,NA,NA,3631,7312,NA,NA,NA,"making, using",1
"59f709c1b47dfc0001b65fc9","x272mtvtk1","Affordance Norms_Prolific",1,36,"2023-07-26T18:01:49+00:00",15.155092000961,8,"updated stim.csv","Version8.csv","Version 8","List 8","pail",NA,213,4.92,76,0.32863745,214,"BOI","-","-","Please name all of the ways you could use this object. Keep in mind that one object can have many uses. Separate your responses with a comma.",NA,"y",14731,NA,NA,3573,14516,NA,NA,NA,"filling up, collecting things",1
"59f709c1b47dfc0001b65fc9","x272mtvtk1","Affordance Norms_Prolific",1,37,"2023-07-26T18:02:12+00:00",23.366738080978,8,"updated stim.csv","Version8.csv","Version 8","List 8","shipman",NA,237,4.571428571,82,0.707229995,238,"BOI","-","-","Please name all of the ways you could use this object. Keep in mind that one object can have many uses. Separate your responses with a comma.",NA,"y",14115,NA,NA,6410,13639,NA,NA,NA,"sailing, cleaning, fishing,",1
"59f709c1b47dfc0001b65fc9","x272mtvtk1","Affordance Norms_Prolific",1,38,"2023-07-26T18:02:39+00:00",27.126931905746,8,"updated stim.csv","Version8.csv","Version 8","List 8","crotch",NA,223,4.454545455,2571,0.678876617,224,"BOI","-","-","Please name all of the ways you could use this object. Keep in mind that one object can have many uses. Separate your responses with a comma.",NA,"y",26703,NA,NA,25021,26360,NA,NA,NA,"urinating",1
"59f709c1b47dfc0001b65fc9","x272mtvtk1","Affordance Norms_Prolific",1,39,"2023-07-26T18:03:05+00:00",26.323055028915,8,"updated stim.csv","Version8.csv","Version 8","List 8","lanyard",NA,233,5.545454545,1294,0.814565241,234,"BOI","-","-","Please name all of the ways you could use this object. Keep in mind that one object can have many uses. Separate your responses with a comma.",NA,"y",8261,NA,NA,1891,8047,NA,NA,NA,"wearing, displaying, making",1
"59f709c1b47dfc0001b65fc9","x272mtvtk1","Affordance Norms_Prolific",1,40,"2023-07-26T18:03:20+00:00",14.789220094681,8,"updated stim.csv","Version8.csv","Version 8","List 8","ballplayer",NA,229,4.48,1351,0.733873145,230,"BOI","-","-","Please name all of the ways you could use this object. Keep in mind that one object can have many uses. Separate your responses with a comma.",NA,"y",13137,NA,NA,4453,13049,NA,NA,NA,"kicking, throwing, sports",1
"5ab10212fb22320001bacdfe","tiqujteber","Affordance Norms_Prolific",1,11,"2023-07-26T17:44:44+00:00",11.577157020569,5,"updated stim.csv","Version5.csv","Version 5","List 5","applicator",NA,137,4.928571429,2330,0.621252368,138,"BOI","-","-","Please name all of the ways you could use this object. Keep in mind that one object can have many uses. Separate your responses with a comma.",NA,"y",10853,NA,NA,2634,10281,NA,NA,NA,"use, remove",1
"5ab10212fb22320001bacdfe","tiqujteber","Affordance Norms_Prolific",1,12,"2023-07-26T17:45:05+00:00",20.51398897171,5,"updated stim.csv","Version5.csv","Version 5","List 5","wiper",NA,136,5.44,1413,0.406137653,137,"BOI","-","-","Please name all of the ways you could use this object. Keep in mind that one object can have many uses. Separate your responses with a comma.",NA,"y",20103,NA,NA,2021,3580,NA,NA,NA,"wash, clean",1
"5ab10212fb22320001bacdfe","tiqujteber","Affordance Norms_Prolific",1,13,"2023-07-26T17:45:39+00:00",34.102792978287,5,"updated stim.csv","Version5.csv","Version 5","List 5","walrus",NA,145,4.923076923,2055,0.604936304,146,"BOI","-","-","Please name all of the ways you could use this object. Keep in mind that one object can have many uses. Separate your responses with a comma.",NA,"y",33691,NA,NA,29369,32541,NA,NA,NA,"feed, pet, look at",1
"5ab10212fb22320001bacdfe","tiqujteber","Affordance Norms_Prolific",1,14,"2023-07-26T17:45:48+00:00",9.4882500171661,5,"updated stim.csv","Version5.csv","Version 5","List 5","tablecloth",NA,142,4.913043478,2044,0.01460871,143,"BOI","-","-","Please name all of the ways you could use this object. Keep in mind that one object can have many uses. Separate your responses with a comma.",NA,"y",9052,NA,NA,1188,8730,NA,NA,NA,"fold, wash, put out, remove, clean",1
"5ab10212fb22320001bacdfe","tiqujteber","Affordance Norms_Prolific",1,15,"2023-07-26T17:46:01+00:00",12.674007892609,5,"updated stim.csv","Version5.csv","Version 5","List 5","barrette",NA,149,5.8,717,0.131827503,150,"BOI","-","-","Please name all of the ways you could use this object. Keep in mind that one object can have many uses. Separate your responses with a comma.",NA,"y",11965,NA,NA,11066,11401,NA,NA,NA,"wear",0.75
"5ab10212fb22320001bacdfe","tiqujteber","Affordance Norms_Prolific",1,16,"2023-07-26T17:46:12+00:00",10.869480133057,5,"updated stim.csv","Version5.csv","Version 5","List 5","horseman",NA,132,5.608695652,386,0.325095127,133,"BOI","-","-","Please name all of the ways you could use this object. Keep in mind that one object can have many uses. Separate your responses with a comma.",NA,"y",10424,NA,NA,5262,8873,NA,NA,NA,"feed, pay, watch",1
"5ab10212fb22320001bacdfe","tiqujteber","Affordance Norms_Prolific",1,17,"2023-07-26T17:46:17+00:00",5.2904279232025,5,"updated stim.csv","Version5.csv","Version 5","List 5","eclair",NA,124,4.833333333,638,0.549670749,125,"BOI","-","-","Please name all of the ways you could use this object. Keep in mind that one object can have many uses. Separate your responses with a comma.",NA,"y",4860,NA,NA,1938,4566,NA,NA,NA,"cook, bake, eat, give",1
"5ab10212fb22320001bacdfe","tiqujteber","Affordance Norms_Prolific",1,18,"2023-07-26T17:46:24+00:00",6.5472269058228,5,"updated stim.csv","Version5.csv","Version 5","List 5","workroom",NA,146,4.64,2078,0.373078665,147,"BOI","-","-","Please name all of the ways you could use this object. Keep in mind that one object can have many uses. Separate your responses with a comma.",NA,"y",5882,NA,NA,1541,4962,NA,NA,NA,"work in, clean",1
"5ab10212fb22320001bacdfe","tiqujteber","Affordance Norms_Prolific",1,19,"2023-07-26T17:46:34+00:00",10.498677015305,5,"updated stim.csv","Version5.csv","Version 5","List 5","teakwood",NA,127,4.607142857,2761,0.821162254,128,"BOI","-","-","Please name all of the ways you could use this object. Keep in mind that one object can have many uses. Separate your responses with a comma.",NA,"y",10068,NA,NA,2522,9916,NA,NA,NA,"sand, paint, treat",1
"5ab10212fb22320001bacdfe","tiqujteber","Affordance Norms_Prolific",1,20,"2023-07-26T17:46:39+00:00",4.7154731750488,5,"updated stim.csv","Version5.csv","Version 5","List 5","ballot",NA,148,6.434782609,814,0.883086008,149,"BOI","-","-","Please name all of the ways you could use this object. Keep in mind that one object can have many uses. Separate your responses with a comma.",NA,"y",4284,NA,NA,1485,4054,NA,NA,NA,"vote, count",1
"5ab10212fb22320001bacdfe","tiqujteber","Affordance Norms_Prolific",1,21,"2023-07-26T17:46:46+00:00",6.9117720127106,5,"updated stim.csv","Version5.csv","Version 5","List 5","trench",NA,123,4.318181818,2903,0.192088069,124,"BOI","-","-","Please name all of the ways you could use this object. Keep in mind that one object can have many uses. Separate your responses with a comma.",NA,"y",6493,NA,NA,1717,5365,NA,NA,NA,"dig",1
"5ab10212fb22320001bacdfe","tiqujteber","Affordance Norms_Prolific",1,22,"2023-07-26T17:46:54+00:00",8.509162902832,5,"updated stim.csv","Version5.csv","Version 5","List 5","trainer",NA,144,5.428571429,2984,0.95091675,145,"BOI","-","-","Please name all of the ways you could use this object. Keep in mind that one object can have many uses. Separate your responses with a comma.",NA,"y",8060,NA,NA,987,5303,NA,NA,NA,"wear, run, walk",1
"5ab10212fb22320001bacdfe","tiqujteber","Affordance Norms_Prolific",1,23,"2023-07-26T17:47:02+00:00",7.5138850212097,5,"updated stim.csv","Version5.csv","Version 5","List 5","optician",NA,125,5.04,1900,0.012619648,126,"BOI","-","-","Please name all of the ways you could use this object. Keep in mind that one object can have many uses. Separate your responses with a comma.",NA,"y",7099,NA,NA,1295,4343,NA,NA,NA,"go to, pay",1
"5ab10212fb22320001bacdfe","tiqujteber","Affordance Norms_Prolific",1,24,"2023-07-26T17:47:15+00:00",12.814125061035,5,"updated stim.csv","Version5.csv","Version 5","List 5","fawn",NA,138,5.12,2966,0.663344397,139,"BOI","-","-","Please name all of the ways you could use this object. Keep in mind that one object can have many uses. Separate your responses with a comma.",NA,"y",12400,NA,NA,8697,12157,NA,NA,NA,"feed, pet, hunt",0.854
"5ab10212fb22320001bacdfe","tiqujteber","Affordance Norms_Prolific",1,25,"2023-07-26T17:47:26+00:00",10.996490955353,5,"updated stim.csv","Version5.csv","Version 5","List 5","nursemaid",NA,133,5.086956522,2971,0.589394286,134,"BOI","-","-","Please name all of the ways you could use this object. Keep in mind that one object can have many uses. Separate your responses with a comma.",NA,"y",10581,NA,NA,1111,10363,NA,NA,NA,"pay, help, deliver",1
"5ab10212fb22320001bacdfe","tiqujteber","Affordance Norms_Prolific",1,26,"2023-07-26T17:47:34+00:00",7.8949589729309,5,"updated stim.csv","Version5.csv","Version 5","List 5","thumbnail",NA,134,5.296296296,1310,0.74583685,135,"BOI","-","-","Please name all of the ways you could use this object. Keep in mind that one object can have many uses. Separate your responses with a comma.",NA,"y",7479,NA,NA,1239,7307,NA,NA,NA,"click, press",1
"5ab10212fb22320001bacdfe","tiqujteber","Affordance Norms_Prolific",1,27,"2023-07-26T17:47:43+00:00",9.1437320709229,5,"updated stim.csv","Version5.csv","Version 5","List 5","worksheet",NA,147,4.428571429,1867,0.923363889,148,"BOI","-","-","Please name all of the ways you could use this object. Keep in mind that one object can have many uses. Separate your responses with a comma.",NA,"y",8738,NA,NA,2247,5816,NA,NA,NA,"fill in, use, write",1
"5ab10212fb22320001bacdfe","tiqujteber","Affordance Norms_Prolific",1,28,"2023-07-26T17:47:54+00:00",11.037226915359,5,"updated stim.csv","Version5.csv","Version 5","List 5","bodice",NA,131,5.36,2003,0.404603014,132,"BOI","-","-","Please name all of the ways you could use this object. Keep in mind that one object can have many uses. Separate your responses with a comma.",NA,"y",10547,NA,NA,8319,10376,NA,NA,NA,"wear, clean, fold",0.8
"5ab10212fb22320001bacdfe","tiqujteber","Affordance Norms_Prolific",1,29,"2023-07-26T17:47:58+00:00",4.0296530723572,5,"updated stim.csv","Version5.csv","Version 5","List 5","bankbook",NA,130,NA,3002,0.356895476,131,"BOI","-","-","Please name all of the ways you could use this object. Keep in mind that one object can have many uses. Separate your responses with a comma.",NA,"y",3613,NA,NA,1775,3238,NA,NA,NA,"fill in, pay",1
"5ab10212fb22320001bacdfe","tiqujteber","Affordance Norms_Prolific",1,30,"2023-07-26T17:48:17+00:00",19.426596879959,5,"updated stim.csv","Version5.csv","Version 5","List 5","torso",NA,128,4.782608696,2910,0.65261601,129,"BOI","-","-","Please name all of the ways you could use this object. Keep in mind that one object can have many uses. Separate your responses with a comma.",NA,"y",19038,NA,NA,17849,18566,NA,NA,NA,"protect",0.788
"5ab10212fb22320001bacdfe","tiqujteber","Affordance Norms_Prolific",1,31,"2023-07-26T17:48:21+00:00",3.8621170520782,5,"updated stim.csv","Version5.csv","Version 5","List 5","frankfurter",NA,139,5.391304348,2026,0.369576509,140,"BOI","-","-","Please name all of the ways you could use this object. Keep in mind that one object can have many uses. Separate your responses with a comma.",NA,"y",3463,NA,NA,1300,2421,NA,NA,NA,"eat, cook",1
"5ab10212fb22320001bacdfe","tiqujteber","Affordance Norms_Prolific",1,32,"2023-07-26T17:48:29+00:00",7.4245290756226,5,"updated stim.csv","Version5.csv","Version 5","List 5","parchment",NA,141,4.375,2495,0.024282326,142,"BOI","-","-","Please name all of the ways you could use this object. Keep in mind that one object can have many uses. Separate your responses with a comma.",NA,"y",6939,NA,NA,1578,6815,NA,NA,NA,"write on, fold, shred",1
"5ab10212fb22320001bacdfe","tiqujteber","Affordance Norms_Prolific",1,33,"2023-07-26T17:48:34+00:00",5.7121770381927,5,"updated stim.csv","Version5.csv","Version 5","List 5","globe",NA,140,4.68,51,0.461950375,141,"BOI","-","-","Please name all of the ways you could use this object. Keep in mind that one object can have many uses. Separate your responses with a comma.",NA,"y",5303,NA,NA,2045,4994,NA,NA,NA,"spin, look at",1
"5ab10212fb22320001bacdfe","tiqujteber","Affordance Norms_Prolific",1,34,"2023-07-26T17:48:43+00:00",9.1202418804169,5,"updated stim.csv","Version5.csv","Version 5","List 5","teacup",NA,143,4.583333333,470,0.107709949,144,"BOI","-","-","Please name all of the ways you could use this object. Keep in mind that one object can have many uses. Separate your responses with a comma.",NA,"y",8716,NA,NA,5511,7775,NA,NA,NA,"drink, fill up",0.727
"5ab10212fb22320001bacdfe","tiqujteber","Affordance Norms_Prolific",1,35,"2023-07-26T17:48:47+00:00",3.5921070575714,5,"updated stim.csv","Version5.csv","Version 5","List 5","ore",NA,126,4.52,2234,0.16035416,127,"BOI","-","-","Please name all of the ways you could use this object. Keep in mind that one object can have many uses. Separate your responses with a comma.",NA,"y",2580,NA,NA,2236,2454,NA,NA,NA,"mine",1
"5ab10212fb22320001bacdfe","tiqujteber","Affordance Norms_Prolific",1,36,"2023-07-26T17:49:05+00:00",17.744716882706,5,"updated stim.csv","Version5.csv","Version 5","List 5","urn",NA,135,4.411764706,1467,0.485337296,136,"BOI","-","-","Please name all of the ways you could use this object. Keep in mind that one object can have many uses. Separate your responses with a comma.",NA,"y",17293,NA,NA,14808,17119,NA,NA,NA,"bury, hold",0.517
"5ab10212fb22320001bacdfe","tiqujteber","Affordance Norms_Prolific",1,37,"2023-07-26T17:49:09+00:00",4.5609450340271,5,"updated stim.csv","Version5.csv","Version 5","List 5","piss",NA,121,5.791666667,973,0.03998685,122,"BOI","-","-","Please name all of the ways you could use this object. Keep in mind that one object can have many uses. Separate your responses with a comma.",NA,"y",4118,NA,NA,1998,3915,NA,NA,NA,"have one",1
"5ab10212fb22320001bacdfe","tiqujteber","Affordance Norms_Prolific",1,38,"2023-07-26T17:49:18+00:00",9.0709609985352,5,"updated stim.csv","Version5.csv","Version 5","List 5","wheat",NA,129,5.041666667,175,0.357199657,130,"BOI","-","-","Please name all of the ways you could use this object. Keep in mind that one object can have many uses. Separate your responses with a comma.",NA,"y",8670,NA,NA,1459,8514,NA,NA,NA,"farm, bake, ship, export",1
"5ab10212fb22320001bacdfe","tiqujteber","Affordance Norms_Prolific",1,39,"2023-07-26T17:49:21+00:00",3.0104310512543,5,"updated stim.csv","Version5.csv","Version 5","List 5","tonic",NA,122,6.28,1637,0.689498349,123,"BOI","-","-","Please name all of the ways you could use this object. Keep in mind that one object can have many uses. Separate your responses with a comma.",NA,"y",2595,NA,NA,994,2095,NA,NA,NA,"drink",1
"5ab10212fb22320001bacdfe","tiqujteber","Affordance Norms_Prolific",1,40,"2023-07-26T17:49:27+00:00",5.3856348991394,5,"updated stim.csv","Version5.csv","Version 5","List 5","building",NA,150,5.8,937,0.594546173,151,"BOI","-","-","Please name all of the ways you could use this object. Keep in mind that one object can have many uses. Separate your responses with a comma.",NA,"y",4983,NA,NA,1174,4173,NA,NA,NA,"build, house",1
"5b74072058a6240001b1a222","e3lth7zdzd","Affordance Norms_Prolific",1,11,"2023-07-26T15:58:19+00:00",31.824658870697,6,"updated stim.csv","Version6.csv","Version 6","List 6","fertilizer",NA,158,5.913043478,527,0.987997305,159,"BOI","-","-","Please name all of the ways you could use this object. Keep in mind that one object can have many uses. Separate your responses with a comma.",NA,"y",31289,NA,NA,2025,30963,NA,NA,NA,"spray, smell, plant, pour, spread, carry, lift, seperate",1
"5b74072058a6240001b1a222","e3lth7zdzd","Affordance Norms_Prolific",1,12,"2023-07-26T15:58:53+00:00",33.569846153259,6,"updated stim.csv","Version6.csv","Version 6","List 6","swimsuit",NA,173,5.260869565,2615,0.993494851,174,"BOI","-","-","Please name all of the ways you could use this object. Keep in mind that one object can have many uses. Separate your responses with a comma.",NA,"y",32747,NA,NA,1603,11610,NA,NA,NA,"wear, wash, stretch, dry, ",1
"5b74072058a6240001b1a222","e3lth7zdzd","Affordance Norms_Prolific",1,13,"2023-07-26T15:59:56+00:00",63.133382797241,6,"updated stim.csv","Version6.csv","Version 6","List 6","vermicelli",NA,176,4.739130435,127,0.967270436,177,"BOI","-","-","Please name all of the ways you could use this object. Keep in mind that one object can have many uses. Separate your responses with a comma.",NA,"y",62333,NA,NA,6282,62106,NA,NA,NA,"use as inspiration for embroidery technique, cook, eat, add to recipe, fry, boil, touch, taste, eat ",1
"5b74072058a6240001b1a222","e3lth7zdzd","Affordance Norms_Prolific",1,14,"2023-07-26T16:00:33+00:00",37.002292156219,6,"updated stim.csv","Version6.csv","Version 6","List 6","padding",NA,169,5.08,2892,0.374452273,170,"BOI","-","-","Please name all of the ways you could use this object. Keep in mind that one object can have many uses. Separate your responses with a comma.",NA,"y",36565,NA,NA,2689,35600,NA,NA,NA,"add to furniture, add to clothing, staple, glue, sew, cover with fabric, touch, sit on, squish, squeeze",1
"5b74072058a6240001b1a222","e3lth7zdzd","Affordance Norms_Prolific",1,15,"2023-07-26T16:01:26+00:00",53.115072965622,6,"updated stim.csv","Version6.csv","Version 6","List 6","concrete",NA,153,5.291666667,944,0.967521962,154,"BOI","-","-","Please name all of the ways you could use this object. Keep in mind that one object can have many uses. Separate your responses with a comma.",NA,"y",52269,NA,NA,2207,51863,NA,NA,NA,"pour, mix, walk over, walk through, touch",1
"5b74072058a6240001b1a222","e3lth7zdzd","Affordance Norms_Prolific",1,16,"2023-07-26T16:02:05+00:00",38.471484899521,6,"updated stim.csv","Version6.csv","Version 6","List 6","clipper",NA,152,5.708333333,2286,0.354129595,153,"BOI","-","-","Please name all of the ways you could use this object. Keep in mind that one object can have many uses. Separate your responses with a comma.",NA,"y",38044,NA,NA,1808,19393,NA,NA,NA,"shave hair, cut grass, trim hedges, ",1
"5b74072058a6240001b1a222","e3lth7zdzd","Affordance Norms_Prolific",1,17,"2023-07-26T16:02:34+00:00",28.85715007782,6,"updated stim.csv","Version6.csv","Version 6","List 6","marigold",NA,165,5.041666667,1031,0.824671402,166,"BOI","-","-","Please name all of the ways you could use this object. Keep in mind that one object can have many uses. Separate your responses with a comma.",NA,"y",28066,NA,NA,4281,27575,NA,NA,NA,"gloves, washing up, flowers, smell, decorate with, touch, put in vase, dry out, smell",1
"5b74072058a6240001b1a222","e3lth7zdzd","Affordance Norms_Prolific",1,18,"2023-07-26T16:03:28+00:00",54.446650981903,6,"updated stim.csv","Version6.csv","Version 6","List 6","airplane",NA,178,5.32,1104,0.498173145,179,"BOI","-","-","Please name all of the ways you could use this object. Keep in mind that one object can have many uses. Separate your responses with a comma.",NA,"y",54037,NA,NA,2803,53319,NA,NA,NA,"play with toy, passenger on plane, fly airplane, draw, take photo of, fill with fuel, load with luggage,",1
"5b74072058a6240001b1a222","e3lth7zdzd","Affordance Norms_Prolific",1,19,"2023-07-26T16:04:14+00:00",45.911780118942,6,"updated stim.csv","Version6.csv","Version 6","List 6","peony",NA,170,4.37037037,720,0.826771226,171,"BOI","-","-","Please name all of the ways you could use this object. Keep in mind that one object can have many uses. Separate your responses with a comma.",NA,"y",45088,NA,NA,1996,44927,NA,NA,NA,"smell, touch, decorate with, draw, put in vase, dry out, press",1
"5b74072058a6240001b1a222","e3lth7zdzd","Affordance Norms_Prolific",1,20,"2023-07-26T16:05:07+00:00",53.171545982361,6,"updated stim.csv","Version6.csv","Version 6","List 6","river",NA,171,4.896551724,220,0.733213397,172,"BOI","-","-","Please name all of the ways you could use this object. Keep in mind that one object can have many uses. Separate your responses with a comma.",NA,"y",52762,NA,NA,2310,52502,NA,NA,NA,"swim in, wash in, look at, listen to, touch water, jump over, walk through, throw stones in",1
"5b74072058a6240001b1a222","e3lth7zdzd","Affordance Norms_Prolific",1,21,"2023-07-26T16:05:34+00:00",27.329270839691,6,"updated stim.csv","Version6.csv","Version 6","List 6","supermarket",NA,172,4.75,1749,0.715344787,173,"BOI","-","-","Please name all of the ways you could use this object. Keep in mind that one object can have many uses. Separate your responses with a comma.",NA,"y",26558,NA,NA,1682,25156,NA,NA,NA,"go shopping, walk about, buy things, bring back things, eat in, ",1
"5b74072058a6240001b1a222","e3lth7zdzd","Affordance Norms_Prolific",1,22,"2023-07-26T16:06:32+00:00",57.357980012894,6,"updated stim.csv","Version6.csv","Version 6","List 6","tangerine",NA,174,5.857142857,2931,0.820907003,175,"BOI","-","-","Please name all of the ways you could use this object. Keep in mind that one object can have many uses. Separate your responses with a comma.",NA,"y",54081,NA,NA,21058,53785,NA,NA,NA,"eat, smell, touch, cut open, peel open, cut into slices, taste, dry out, cook with, add to recipe",1
"5b74072058a6240001b1a222","e3lth7zdzd","Affordance Norms_Prolific",1,23,"2023-07-26T16:07:08+00:00",36.514865159988,6,"updated stim.csv","Version6.csv","Version 6","List 6","cornflakes",NA,154,4.684210526,538,0.574977468,155,"BOI","-","-","Please name all of the ways you could use this object. Keep in mind that one object can have many uses. Separate your responses with a comma.",NA,"y",35691,NA,NA,3802,34224,NA,NA,NA,"eat with milk, make buns with, crush and use as chicken breading, ",1
"5b74072058a6240001b1a222","e3lth7zdzd","Affordance Norms_Prolific",1,24,"2023-07-26T16:07:39+00:00",31.152473926544,6,"updated stim.csv","Version6.csv","Version 6","List 6","log",NA,163,6.28,2836,0.923120289,164,"BOI","-","-","Please name all of the ways you could use this object. Keep in mind that one object can have many uses. Separate your responses with a comma.",NA,"y",30746,NA,NA,2443,28472,NA,NA,NA,"use as fuel on fire, use as footstool, use wood as material for art, jump over, climb up, kick over, ",1
"5b74072058a6240001b1a222","e3lth7zdzd","Affordance Norms_Prolific",1,25,"2023-07-26T16:07:56+00:00",16.915920972824,6,"updated stim.csv","Version6.csv","Version 6","List 6","handwork",NA,160,4.291666667,779,0.522113996,161,"BOI","-","-","Please name all of the ways you could use this object. Keep in mind that one object can have many uses. Separate your responses with a comma.",NA,"y",16237,NA,NA,3520,15948,NA,NA,NA,"drawing, crochet, knitting, sculpting, painting",1
"5b74072058a6240001b1a222","e3lth7zdzd","Affordance Norms_Prolific",1,26,"2023-07-26T16:09:38+00:00",101.26503705978,6,"updated stim.csv","Version6.csv","Version 6","List 6","crate",NA,155,5.458333333,2703,0.677843929,156,"BOI","-","-","Please name all of the ways you could use this object. Keep in mind that one object can have many uses. Separate your responses with a comma.",NA,"y",100457,NA,NA,2146,75267,NA,NA,NA,"open, climb up, use wood as material, use as storage, ",0.951
"5b74072058a6240001b1a222","e3lth7zdzd","Affordance Norms_Prolific",1,27,"2023-07-26T16:10:13+00:00",35.405956983566,6,"updated stim.csv","Version6.csv","Version 6","List 6","gun",NA,159,5.666666667,1878,0.217047994,160,"BOI","-","-","Please name all of the ways you could use this object. Keep in mind that one object can have many uses. Separate your responses with a comma.",NA,"y",34975,NA,NA,2948,31221,NA,NA,NA,"water gun, spray gun, airbrush gun, defence weapon, ",1
"5b74072058a6240001b1a222","e3lth7zdzd","Affordance Norms_Prolific",1,28,"2023-07-26T16:11:31+00:00",78.289589881897,6,"updated stim.csv","Version6.csv","Version 6","List 6","cymbals",NA,156,5.214285714,168,0.590683649,157,"BOI","-","-","Please name all of the ways you could use this object. Keep in mind that one object can have many uses. Separate your responses with a comma.",NA,"y",77130,NA,NA,1720,76775,NA,NA,NA,"hit hard, musical instrument, feel, lift, tighten",1
"5b74072058a6240001b1a222","e3lth7zdzd","Affordance Norms_Prolific",1,29,"2023-07-26T16:13:08+00:00",96.207101106644,6,"updated stim.csv","Version6.csv","Version 6","List 6","licence",NA,162,5.038461538,1731,0.310058292,163,"BOI","-","-","Please name all of the ways you could use this object. Keep in mind that one object can have many uses. Separate your responses with a comma.",NA,"y",95292,NA,NA,1564,92736,NA,NA,NA,"drive, fly a plane, fish, ",1
"5b74072058a6240001b1a222","e3lth7zdzd","Affordance Norms_Prolific",1,30,"2023-07-26T16:14:26+00:00",78.328672885895,6,"updated stim.csv","Version6.csv","Version 6","List 6","mantelpiece",NA,164,5.333333333,2692,0.82890071,165,"BOI","-","-","Please name all of the ways you could use this object. Keep in mind that one object can have many uses. Separate your responses with a comma.",NA,"y",77530,NA,NA,11218,49943,NA,NA,NA,"fireplace, decorate, put cards on, ",1
"5b74072058a6240001b1a222","e3lth7zdzd","Affordance Norms_Prolific",1,31,"2023-07-26T16:15:01+00:00",35.510766029358,6,"updated stim.csv","Version6.csv","Version 6","List 6","leaflet",NA,161,5.12,1945,0.324749543,162,"BOI","-","-","Please name all of the ways you could use this object. Keep in mind that one object can have many uses. Separate your responses with a comma.",NA,"y",35119,NA,NA,1967,34794,NA,NA,NA,"print out, hand out, read, throw away, recycle",1
"5b74072058a6240001b1a222","e3lth7zdzd","Affordance Norms_Prolific",1,32,"2023-07-26T16:15:42+00:00",40.339405059814,6,"updated stim.csv","Version6.csv","Version 6","List 6","armor",NA,180,5.555555556,2717,0.437108817,181,"BOI","-","-","Please name all of the ways you could use this object. Keep in mind that one object can have many uses. Separate your responses with a comma.",NA,"y",39521,NA,NA,5297,36512,NA,NA,NA,"wear, display in museum, touch, draw, ",1
"5b74072058a6240001b1a222","e3lth7zdzd","Affordance Norms_Prolific",1,33,"2023-07-26T16:16:33+00:00",51.236392021179,6,"updated stim.csv","Version6.csv","Version 6","List 6","dustbin",NA,157,4.7,1959,0.18002119,158,"BOI","-","-","Please name all of the ways you could use this object. Keep in mind that one object can have many uses. Separate your responses with a comma.",NA,"y",48223,NA,NA,2265,46856,NA,NA,NA,"close, open, fill with rubbish, fill with water, empty",1
"5b74072058a6240001b1a222","e3lth7zdzd","Affordance Norms_Prolific",1,34,"2023-07-26T16:17:20+00:00",46.999069929123,6,"updated stim.csv","Version6.csv","Version 6","List 6","toga",NA,175,5.652173913,2259,0.959918952,176,"BOI","-","-","Please name all of the ways you could use this object. Keep in mind that one object can have many uses. Separate your responses with a comma.",NA,"y",46133,NA,NA,12528,45659,NA,NA,NA,"wear, drape, wash, dye, cover up with,",1
"5b74072058a6240001b1a222","e3lth7zdzd","Affordance Norms_Prolific",1,35,"2023-07-26T16:17:51+00:00",30.805222988129,6,"updated stim.csv","Version6.csv","Version 6","List 6","neckerchief",NA,167,5.125,237,0.416830365,168,"BOI","-","-","Please name all of the ways you could use this object. Keep in mind that one object can have many uses. Separate your responses with a comma.",NA,"y",30386,NA,NA,2094,30013,NA,NA,NA,"tie round neck, use as headband, use as a bracelet, tie on bag",1
"5b74072058a6240001b1a222","e3lth7zdzd","Affordance Norms_Prolific",1,36,"2023-07-26T16:18:22+00:00",31.633903980255,6,"updated stim.csv","Version6.csv","Version 6","List 6","calender",NA,151,5.666666667,209,0.894670762,152,"BOI","-","-","Please name all of the ways you could use this object. Keep in mind that one object can have many uses. Separate your responses with a comma.",NA,"y",30841,NA,NA,1754,29512,NA,NA,NA,"mark dates, hang up, flick through, recycle",1
"5b74072058a6240001b1a222","e3lth7zdzd","Affordance Norms_Prolific",1,37,"2023-07-26T16:19:28+00:00",65.255860090256,6,"updated stim.csv","Version6.csv","Version 6","List 6","airman",NA,177,4.347826087,421,0.150190136,178,"BOI","-","-","Please name all of the ways you could use this object. Keep in mind that one object can have many uses. Separate your responses with a comma.",NA,"y",64433,NA,NA,8643,53835,NA,NA,NA,"fly a plane, control a plane, ",1
"5b74072058a6240001b1a222","e3lth7zdzd","Affordance Norms_Prolific",1,38,"2023-07-26T16:19:58+00:00",30.324803113937,6,"updated stim.csv","Version6.csv","Version 6","List 6","package",NA,168,4.464285714,1256,0.861077807,169,"BOI","-","-","Please name all of the ways you could use this object. Keep in mind that one object can have many uses. Separate your responses with a comma.",NA,"y",29921,NA,NA,1538,29827,NA,NA,NA,"open, post, tape up, carry, throw, recieve, give",1
"5b74072058a6240001b1a222","e3lth7zdzd","Affordance Norms_Prolific",1,39,"2023-07-26T16:20:36+00:00",38.231647968292,6,"updated stim.csv","Version6.csv","Version 6","List 6","mathematician",NA,166,4.347826087,2433,0.405301502,167,"BOI","-","-","Please name all of the ways you could use this object. Keep in mind that one object can have many uses. Separate your responses with a comma.",NA,"y",37414,NA,NA,1750,36749,NA,NA,NA,"formulas, addition, subtraction, multiplication, algebra ",1
"5b74072058a6240001b1a222","e3lth7zdzd","Affordance Norms_Prolific",1,40,"2023-07-26T16:20:58+00:00",22.105423927307,6,"updated stim.csv","Version6.csv","Version 6","List 6","alcohol",NA,179,5.523809524,205,0.969656849,180,"BOI","-","-","Please name all of the ways you could use this object. Keep in mind that one object can have many uses. Separate your responses with a comma.",NA,"y",21644,NA,NA,3415,19991,NA,NA,NA,"drink, clean with, sanitise with, smell, pour",1
"5bc10133904b2f000194b264","6ch9vdnz70","Affordance Norms_Prolific",1,11,"2023-07-26T16:48:45+00:00",19.200517892838,20,"updated stim.csv","Version20.csv","Version 20","List 20","balloonist",NA,587,4.538461538,47,0.730388709,588,"BOI","-","-","Please name all of the ways you could use this object. Keep in mind that one object can have many uses. Separate your responses with a comma.",NA,"y",18445,NA,NA,10532,16569,NA,NA,NA,"pay, visit, review",1
"5bc10133904b2f000194b264","6ch9vdnz70","Affordance Norms_Prolific",1,12,"2023-07-26T16:49:12+00:00",27.091960906982,20,"updated stim.csv","Version20.csv","Version 20","List 20","bookseller",NA,591,5.041666667,2186,0.950545873,592,"BOI","-","-","Please name all of the ways you could use this object. Keep in mind that one object can have many uses. Separate your responses with a comma.",NA,"y",26393,NA,NA,17059,23555,NA,NA,NA,"speak to, buy",1
"5bc10133904b2f000194b264","6ch9vdnz70","Affordance Norms_Prolific",1,13,"2023-07-26T16:49:25+00:00",13.503668069839,20,"updated stim.csv","Version20.csv","Version 20","List 20","beach",NA,588,4.916666667,344,0.678293363,589,"BOI","-","-","Please name all of the ways you could use this object. Keep in mind that one object can have many uses. Separate your responses with a comma.",NA,"y",12732,NA,NA,1898,11040,NA,NA,NA,"chill, relax, photograph, run",1
"5bc10133904b2f000194b264","6ch9vdnz70","Affordance Norms_Prolific",1,14,"2023-07-26T16:49:44+00:00",18.234029054642,20,"updated stim.csv","Version20.csv","Version 20","List 20","canoe",NA,595,4.384615385,1753,0.636652588,596,"BOI","-","-","Please name all of the ways you could use this object. Keep in mind that one object can have many uses. Separate your responses with a comma.",NA,"y",17436,NA,NA,4446,12210,NA,NA,NA,"paddle, raft",1
"5bc10133904b2f000194b264","6ch9vdnz70","Affordance Norms_Prolific",1,15,"2023-07-26T16:49:50+00:00",6.3505449295044,20,"updated stim.csv","Version20.csv","Version 20","List 20","anchovy",NA,586,5.565217391,2306,0.20374677,587,"BOI","-","-","Please name all of the ways you could use this object. Keep in mind that one object can have many uses. Separate your responses with a comma.",NA,"y",5571,NA,NA,-1,-1,NA,NA,NA,"",1
"5bc10133904b2f000194b264","6ch9vdnz70","Affordance Norms_Prolific",1,16,"2023-07-26T16:50:10+00:00",19.89021897316,20,"updated stim.csv","Version20.csv","Version 20","List 20","spyglass",NA,580,4.583333333,1360,0.834414594,581,"BOI","-","-","Please name all of the ways you could use this object. Keep in mind that one object can have many uses. Separate your responses with a comma.",NA,"y",19064,NA,NA,1885,18577,NA,NA,NA,"look, give, extend, enhance, zoom",1
"5bc10133904b2f000194b264","6ch9vdnz70","Affordance Norms_Prolific",1,17,"2023-07-26T16:50:31+00:00",21.191810131073,20,"updated stim.csv","Version20.csv","Version 20","List 20","bookshelf",NA,592,5.833333333,2394,0.383818306,593,"BOI","-","-","Please name all of the ways you could use this object. Keep in mind that one object can have many uses. Separate your responses with a comma.",NA,"y",20478,NA,NA,3041,20209,NA,NA,NA,"tidy, place books, build, take down",1
"5bc10133904b2f000194b264","6ch9vdnz70","Affordance Norms_Prolific",1,18,"2023-07-26T16:50:40+00:00",8.8816478252411,20,"updated stim.csv","Version20.csv","Version 20","List 20","scooter",NA,574,5.625,589,0.771924307,575,"BOI","-","-","Please name all of the ways you could use this object. Keep in mind that one object can have many uses. Separate your responses with a comma.",NA,"y",8143,NA,NA,1523,7983,NA,NA,NA,"ride, fix, store",1
"5bc10133904b2f000194b264","6ch9vdnz70","Affordance Norms_Prolific",1,19,"2023-07-26T16:50:44+00:00",4.007208108902,20,"updated stim.csv","Version20.csv","Version 20","List 20","bodyguard",NA,589,6.173913043,315,0.727607181,590,"BOI","-","-","Please name all of the ways you could use this object. Keep in mind that one object can have many uses. Separate your responses with a comma.",NA,"y",3595,NA,NA,2890,3414,NA,NA,NA,"hide",1
"5bc10133904b2f000194b264","6ch9vdnz70","Affordance Norms_Prolific",1,20,"2023-07-26T16:50:52+00:00",7.9116349220276,20,"updated stim.csv","Version20.csv","Version 20","List 20","satchel",NA,572,5.545454545,795,0.224312152,573,"BOI","-","-","Please name all of the ways you could use this object. Keep in mind that one object can have many uses. Separate your responses with a comma.",NA,"y",7140,NA,NA,1897,7000,NA,NA,NA,"store, wear",1
"5bc10133904b2f000194b264","6ch9vdnz70","Affordance Norms_Prolific",1,21,"2023-07-26T16:51:00+00:00",7.712464094162,20,"updated stim.csv","Version20.csv","Version 20","List 20","bonnet",NA,590,6.086956522,1886,0.101584578,591,"BOI","-","-","Please name all of the ways you could use this object. Keep in mind that one object can have many uses. Separate your responses with a comma.",NA,"y",6973,NA,NA,2570,6235,NA,NA,NA,"close",1
"5bc10133904b2f000194b264","6ch9vdnz70","Affordance Norms_Prolific",1,22,"2023-07-26T16:51:04+00:00",4.6540648937225,20,"updated stim.csv","Version20.csv","Version 20","List 20","ventilator",NA,584,4.909090909,1257,0.234929947,585,"BOI","-","-","Please name all of the ways you could use this object. Keep in mind that one object can have many uses. Separate your responses with a comma.",NA,"y",4267,NA,NA,3780,4086,NA,NA,NA,"use",1
"5bc10133904b2f000194b264","6ch9vdnz70","Affordance Norms_Prolific",1,23,"2023-07-26T16:51:10+00:00",5.8057451248169,20,"updated stim.csv","Version20.csv","Version 20","List 20","altarpiece",NA,585,4.833333333,679,0.422256989,586,"BOI","-","-","Please name all of the ways you could use this object. Keep in mind that one object can have many uses. Separate your responses with a comma.",NA,"y",5040,NA,NA,3446,4884,NA,NA,NA,"view, look",1
"5bc10133904b2f000194b264","6ch9vdnz70","Affordance Norms_Prolific",1,24,"2023-07-26T16:51:22+00:00",12.396147966385,20,"updated stim.csv","Version20.csv","Version 20","List 20","snow",NA,578,5.4,1783,0.135347184,579,"BOI","-","-","Please name all of the ways you could use this object. Keep in mind that one object can have many uses. Separate your responses with a comma.",NA,"y",11643,NA,NA,1789,11459,NA,NA,NA,"lick, play, view, clear",1
"5bc10133904b2f000194b264","6ch9vdnz70","Affordance Norms_Prolific",1,25,"2023-07-26T16:51:30+00:00",7.4782791137695,20,"updated stim.csv","Version20.csv","Version 20","List 20","booze",NA,593,5.72,987,0.915415576,594,"BOI","-","-","Please name all of the ways you could use this object. Keep in mind that one object can have many uses. Separate your responses with a comma.",NA,"y",4876,NA,NA,1100,4696,NA,NA,NA,"drink,store, mix",1
"5bc10133904b2f000194b264","6ch9vdnz70","Affordance Norms_Prolific",1,26,"2023-07-26T16:51:37+00:00",6.6210839748383,20,"updated stim.csv","Version20.csv","Version 20","List 20","sugarcane",NA,582,5.083333333,2309,0.909423363,583,"BOI","-","-","Please name all of the ways you could use this object. Keep in mind that one object can have many uses. Separate your responses with a comma.",NA,"y",5917,NA,NA,2517,5761,NA,NA,NA,"bake, grow",1
"5bc10133904b2f000194b264","6ch9vdnz70","Affordance Norms_Prolific",1,27,"2023-07-26T16:51:40+00:00",3.241739988327,20,"updated stim.csv","Version20.csv","Version 20","List 20","cheesecloth",NA,597,5.517241379,1093,0.914098667,598,"BOI","-","-","Please name all of the ways you could use this object. Keep in mind that one object can have many uses. Separate your responses with a comma.",NA,"y",2833,NA,NA,1719,2640,NA,NA,NA,"strain",1
"5bc10133904b2f000194b264","6ch9vdnz70","Affordance Norms_Prolific",1,28,"2023-07-26T16:51:52+00:00",12.422413825989,20,"updated stim.csv","Version20.csv","Version 20","List 20","scanner",NA,573,5.173913043,1372,0.856688434,574,"BOI","-","-","Please name all of the ways you could use this object. Keep in mind that one object can have many uses. Separate your responses with a comma.",NA,"y",11725,NA,NA,3749,11577,NA,NA,NA,"upload",1
"5bc10133904b2f000194b264","6ch9vdnz70","Affordance Norms_Prolific",1,29,"2023-07-26T16:51:58+00:00",5.6757462024689,20,"updated stim.csv","Version20.csv","Version 20","List 20","derriere",NA,599,6.130434783,2527,0.499161262,600,"BOI","-","-","Please name all of the ways you could use this object. Keep in mind that one object can have many uses. Separate your responses with a comma.",NA,"y",4816,NA,NA,1869,4455,NA,NA,NA,"touch, kiss",1
"5bc10133904b2f000194b264","6ch9vdnz70","Affordance Norms_Prolific",1,30,"2023-07-26T16:52:04+00:00",6.6265349388123,20,"updated stim.csv","Version20.csv","Version 20","List 20","sportswoman",NA,579,5.916666667,2628,0.900070154,580,"BOI","-","-","Please name all of the ways you could use this object. Keep in mind that one object can have many uses. Separate your responses with a comma.",NA,"y",5931,NA,NA,2162,5781,NA,NA,NA,"view, speak to",1
"5bc10133904b2f000194b264","6ch9vdnz70","Affordance Norms_Prolific",1,31,"2023-07-26T16:52:14+00:00",9.4695379734039,20,"updated stim.csv","Version20.csv","Version 20","List 20","sea",NA,575,4.96,1073,0.507161058,576,"BOI","-","-","Please name all of the ways you could use this object. Keep in mind that one object can have many uses. Separate your responses with a comma.",NA,"y",8751,NA,NA,1265,8342,NA,NA,NA,"play, swim, admire,photo",1
"5bc10133904b2f000194b264","6ch9vdnz70","Affordance Norms_Prolific",1,32,"2023-07-26T16:52:22+00:00",8.3119599819183,20,"updated stim.csv","Version20.csv","Version 20","List 20","diagram",NA,600,5.125,1803,0.545634211,601,"BOI","-","-","Please name all of the ways you could use this object. Keep in mind that one object can have many uses. Separate your responses with a comma.",NA,"y",7518,NA,NA,1603,7325,NA,NA,NA,"draw, trends",1
"5bc10133904b2f000194b264","6ch9vdnz70","Affordance Norms_Prolific",1,33,"2023-07-26T16:52:27+00:00",4.5150051116943,20,"updated stim.csv","Version20.csv","Version 20","List 20","slaw",NA,577,5,2401,0.959116035,578,"BOI","-","-","Please name all of the ways you could use this object. Keep in mind that one object can have many uses. Separate your responses with a comma.",NA,"y",3652,NA,NA,1852,3560,NA,NA,NA,"cook, make",1
"5bc10133904b2f000194b264","6ch9vdnz70","Affordance Norms_Prolific",1,34,"2023-07-26T16:52:35+00:00",8.2382078170776,20,"updated stim.csv","Version20.csv","Version 20","List 20","burglar",NA,594,5.08,2421,0.292298633,595,"BOI","-","-","Please name all of the ways you could use this object. Keep in mind that one object can have many uses. Separate your responses with a comma.",NA,"y",7536,NA,NA,6037,7037,NA,NA,NA,"punish",1
"5bc10133904b2f000194b264","6ch9vdnz70","Affordance Norms_Prolific",1,35,"2023-07-26T16:52:39+00:00",4.005763053894,20,"updated stim.csv","Version20.csv","Version 20","List 20","tinsel",NA,583,5.125,2317,0.345258516,584,"BOI","-","-","Please name all of the ways you could use this object. Keep in mind that one object can have many uses. Separate your responses with a comma.",NA,"y",3621,NA,NA,1269,2531,NA,NA,NA,"wrap",1
"5bc10133904b2f000194b264","6ch9vdnz70","Affordance Norms_Prolific",1,36,"2023-07-26T16:52:43+00:00",3.9778709411621,20,"updated stim.csv","Version20.csv","Version 20","List 20","stroller",NA,581,5,2673,0.209563183,582,"BOI","-","-","Please name all of the ways you could use this object. Keep in mind that one object can have many uses. Separate your responses with a comma.",NA,"y",3593,NA,NA,2942,3413,NA,NA,NA,"push",1
"5bc10133904b2f000194b264","6ch9vdnz70","Affordance Norms_Prolific",1,37,"2023-07-26T16:52:47+00:00",4.3348350524902,20,"updated stim.csv","Version20.csv","Version 20","List 20","rubbish",NA,571,5.2,1000,0.795806976,572,"BOI","-","-","Please name all of the ways you could use this object. Keep in mind that one object can have many uses. Separate your responses with a comma.",NA,"y",3947,NA,NA,3045,3537,NA,NA,NA,"bin",1
"5bc10133904b2f000194b264","6ch9vdnz70","Affordance Norms_Prolific",1,38,"2023-07-26T16:52:52+00:00",4.3927590847015,20,"updated stim.csv","Version20.csv","Version 20","List 20","shellfish",NA,576,5.347826087,2018,0.660986177,577,"BOI","-","-","Please name all of the ways you could use this object. Keep in mind that one object can have many uses. Separate your responses with a comma.",NA,"y",3998,NA,NA,2103,3803,NA,NA,NA,"eat, catch",1
"5bc10133904b2f000194b264","6ch9vdnz70","Affordance Norms_Prolific",1,39,"2023-07-26T16:52:57+00:00",5.6571719646454,20,"updated stim.csv","Version20.csv","Version 20","List 20","chalk",NA,596,4.714285714,706,0.39617836,597,"BOI","-","-","Please name all of the ways you could use this object. Keep in mind that one object can have many uses. Separate your responses with a comma.",NA,"y",4945,NA,NA,1366,4905,NA,NA,NA,"draw, write",1
"5bc10133904b2f000194b264","6ch9vdnz70","Affordance Norms_Prolific",1,40,"2023-07-26T16:53:05+00:00",7.5849258899689,20,"updated stim.csv","Version20.csv","Version 20","List 20","clock",NA,598,5.04,1798,0.141308746,599,"BOI","-","-","Please name all of the ways you could use this object. Keep in mind that one object can have many uses. Separate your responses with a comma.",NA,"y",6891,NA,NA,1636,6792,NA,NA,NA,"watch, turn, fix",1
"5c1a862dc4004e0001f8020f","00i6zsgxwr","Affordance Norms_Prolific",1,11,"2023-07-26T16:45:26+00:00",29.47808599472,18,"updated stim.csv","Version18.csv","Version 18","List 18","wheelhouse",NA,514,5.259259259,1824,0.409410216,515,"BOI","-","-","Please name all of the ways you could use this object. Keep in mind that one object can have many uses. Separate your responses with a comma.",NA,"y",29129,NA,NA,22845,27194,NA,NA,NA,"use in ship building, ",1
"5c1a862dc4004e0001f8020f","00i6zsgxwr","Affordance Norms_Prolific",1,12,"2023-07-26T16:46:01+00:00",34.61381816864,18,"updated stim.csv","Version18.csv","Version 18","List 18","birdbath",NA,523,5.269230769,2310,0.728002682,524,"BOI","-","-","Please name all of the ways you could use this object. Keep in mind that one object can have many uses. Separate your responses with a comma.",NA,"y",34233,NA,NA,3252,33098,NA,NA,NA,"look at, drinks for birds, have in an oriental garden",1
"5c1a862dc4004e0001f8020f","00i6zsgxwr","Affordance Norms_Prolific",1,13,"2023-07-26T16:46:19+00:00",18.55526804924,18,"updated stim.csv","Version18.csv","Version 18","List 18","camisole",NA,532,4.583333333,13,0.866092268,533,"BOI","-","-","Please name all of the ways you could use this object. Keep in mind that one object can have many uses. Separate your responses with a comma.",NA,"y",18136,NA,NA,2082,16279,NA,NA,NA,"wear, fold in draw,",1
"5c1a862dc4004e0001f8020f","00i6zsgxwr","Affordance Norms_Prolific",1,14,"2023-07-26T16:46:35+00:00",15.9029109478,18,"updated stim.csv","Version18.csv","Version 18","List 18","concert",NA,536,5.730769231,1109,0.219592421,537,"BOI","-","-","Please name all of the ways you could use this object. Keep in mind that one object can have many uses. Separate your responses with a comma.",NA,"y",15523,NA,NA,3201,4392,NA,NA,NA,"music, ",1
