"Username","ID","ExperimentName","Session","Trial","Date","TimeDif","Condition.Number","Stimuli.File","Order.File","Condition.Description","Condition.Notes","Stimuli.Cue","Stimuli.Answer","Stimuli.Shuffle","Stimuli.Stimuli.Notes","Stimuli.Value","Stimuli.Rand","Procedure.Item","Procedure.Trial.Type","Procedure.Max.Time","Procedure.Min.Time","Procedure.Text","Procedure.Procedure.Notes","Procedure.Shuffle","Response.RT","Response.Response","Response.Accuracy","Response.RTfirst","Response.RTlast","Response.strictAcc","Response.lenientAcc","Response.focus","Response.JOL","Response.Focus"
"5598528afdf99b38e56c8c0d","hfur2fk16k","Affordance Norms_Prolific",1,11,"2023-01-06T19:52:58+00:00",43.624118089676,82,"updated stim.csv","Version82.csv","Version 82","List 82","burglar",NA,2447,4.260869565,366,0.636597323,2448,"BOI","-","-","Please name all of the ways you could use this object. Keep in mind that one object can have many uses. Separate your responses with a comma.",NA,"y",42052,NA,NA,8467,39338,NA,NA,NA,"ROB, FOLLOW, BRIBE",1
"5598528afdf99b38e56c8c0d","hfur2fk16k","Affordance Norms_Prolific",1,12,"2023-01-06T19:53:25+00:00",26.17055606842,82,"updated stim.csv","Version82.csv","Version 82","List 82","classmate",NA,2460,5.363636364,549,0.902201284,2461,"BOI","-","-","Please name all of the ways you could use this object. Keep in mind that one object can have many uses. Separate your responses with a comma.",NA,"y",24684,NA,NA,4899,16560,NA,NA,NA,"TALK, FRIEND, SPEAK, ",1
"5598528afdf99b38e56c8c0d","hfur2fk16k","Affordance Norms_Prolific",1,13,"2023-01-06T19:53:56+00:00",31.249691963196,82,"updated stim.csv","Version82.csv","Version 82","List 82","socket",NA,2458,5.24,2440,0.765868539,2459,"BOI","-","-","Please name all of the ways you could use this object. Keep in mind that one object can have many uses. Separate your responses with a comma.",NA,"y",29730,NA,NA,2339,24112,NA,NA,NA,"PLUG, CHARGE, SWITCH ON",1
"5598528afdf99b38e56c8c0d","hfur2fk16k","Affordance Norms_Prolific",1,14,"2023-01-06T19:54:28+00:00",32.61844086647,82,"updated stim.csv","Version82.csv","Version 82","List 82","doorframe",NA,2455,5.086956522,823,0.680509669,2456,"BOI","-","-","Please name all of the ways you could use this object. Keep in mind that one object can have many uses. Separate your responses with a comma.",NA,"y",31221,NA,NA,8641,24681,NA,NA,NA,"WALK THROUGH, HANG DOOR, PAINT, ",1
"5598528afdf99b38e56c8c0d","hfur2fk16k","Affordance Norms_Prolific",1,15,"2023-01-06T19:54:56+00:00",27.305392026901,82,"updated stim.csv","Version82.csv","Version 82","List 82","slingshot",NA,2433,5.4,2414,0.097911449,2434,"BOI","-","-","Please name all of the ways you could use this object. Keep in mind that one object can have many uses. Separate your responses with a comma.",NA,"y",25817,NA,NA,4001,22525,NA,NA,NA,"THROW, HOLD, SHOOT",1
"5598528afdf99b38e56c8c0d","hfur2fk16k","Affordance Norms_Prolific",1,16,"2023-01-06T19:55:24+00:00",27.919908046722,82,"updated stim.csv","Version82.csv","Version 82","List 82","candlestick",NA,2441,6,411,0.314982696,2442,"BOI","-","-","Please name all of the ways you could use this object. Keep in mind that one object can have many uses. Separate your responses with a comma.",NA,"y",26520,NA,NA,2014,21525,NA,NA,NA,"LIGHT, HOLD, CARRY",1
"5598528afdf99b38e56c8c0d","hfur2fk16k","Affordance Norms_Prolific",1,17,"2023-01-06T19:55:57+00:00",33.718419075012,82,"updated stim.csv","Version82.csv","Version 82","List 82","blender",NA,2442,5.739130435,236,0.878994835,2443,"BOI","-","-","Please name all of the ways you could use this object. Keep in mind that one object can have many uses. Separate your responses with a comma.",NA,"y",32209,NA,NA,4575,22205,NA,NA,NA,"BLEND, SWITCH ON, GRIND, CHOP, CUT",1
"5598528afdf99b38e56c8c0d","hfur2fk16k","Affordance Norms_Prolific",1,18,"2023-01-06T19:56:20+00:00",22.99337387085,82,"updated stim.csv","Version82.csv","Version 82","List 82","Crab",NA,2432,4.889189189,674,0.893830777,2433,"BOI","-","-","Please name all of the ways you could use this object. Keep in mind that one object can have many uses. Separate your responses with a comma.",NA,"y",21545,NA,NA,2659,14128,NA,NA,NA,"EAT, CATCH, SALAD, ",1
"5598528afdf99b38e56c8c0d","hfur2fk16k","Affordance Norms_Prolific",1,19,"2023-01-06T19:56:37+00:00",16.856558084488,82,"updated stim.csv","Version82.csv","Version 82","List 82","saxophone",NA,2456,6.222222222,2257,0.438334646,2457,"BOI","-","-","Please name all of the ways you could use this object. Keep in mind that one object can have many uses. Separate your responses with a comma.",NA,"y",15576,NA,NA,3563,12357,NA,NA,NA,"PLAY, LISTEN, BLOW",1
"5598528afdf99b38e56c8c0d","hfur2fk16k","Affordance Norms_Prolific",1,20,"2023-01-06T19:56:55+00:00",17.944602012634,82,"updated stim.csv","Version82.csv","Version 82","List 82","buck",NA,2440,4.291666667,340,0.941213361,2441,"BOI","-","-","Please name all of the ways you could use this object. Keep in mind that one object can have many uses. Separate your responses with a comma.",NA,"y",16872,NA,NA,9598,15461,NA,NA,NA,"PAY, TOSS,",1
"5598528afdf99b38e56c8c0d","hfur2fk16k","Affordance Norms_Prolific",1,21,"2023-01-06T19:57:21+00:00",25.69922208786,82,"updated stim.csv","Version82.csv","Version 82","List 82","shrine",NA,2443,4.555555556,2367,0.930741572,2444,"BOI","-","-","Please name all of the ways you could use this object. Keep in mind that one object can have many uses. Separate your responses with a comma.",NA,"y",23821,NA,NA,3346,21792,NA,NA,NA,"WORSHIP, POLISH, CLEAN, PRAY, VISIT",1
"5598528afdf99b38e56c8c0d","hfur2fk16k","Affordance Norms_Prolific",1,22,"2023-01-06T19:57:50+00:00",29.175977945328,82,"updated stim.csv","Version82.csv","Version 82","List 82","oven",NA,2445,5.923076923,1831,0.613415562,2446,"BOI","-","-","Please name all of the ways you could use this object. Keep in mind that one object can have many uses. Separate your responses with a comma.",NA,"y",27664,NA,NA,1825,19702,NA,NA,NA,"COOK, HEAT, BAKE, ROAST, TOAST",1
"5598528afdf99b38e56c8c0d","hfur2fk16k","Affordance Norms_Prolific",1,23,"2023-01-06T19:58:20+00:00",30.329124927521,82,"updated stim.csv","Version82.csv","Version 82","List 82","dumpling",NA,2449,4.826086957,867,0.576231689,2450,"BOI","-","-","Please name all of the ways you could use this object. Keep in mind that one object can have many uses. Separate your responses with a comma.",NA,"y",28853,NA,NA,2686,23808,NA,NA,NA,"EAT, CUT, CHEW",1
"5598528afdf99b38e56c8c0d","hfur2fk16k","Affordance Norms_Prolific",1,24,"2023-01-06T19:58:51+00:00",30.119770050049,82,"updated stim.csv","Version82.csv","Version 82","List 82","corduroy",NA,2446,5.041666667,641,0.863483233,2447,"BOI","-","-","Please name all of the ways you could use this object. Keep in mind that one object can have many uses. Separate your responses with a comma.",NA,"y",28517,NA,NA,5105,27223,NA,NA,NA,"WEAR, SEW, TROUSERS",1
"5598528afdf99b38e56c8c0d","hfur2fk16k","Affordance Norms_Prolific",1,25,"2023-01-06T19:59:18+00:00",27.575075864792,82,"updated stim.csv","Version82.csv","Version 82","List 82","cartridge",NA,2444,5.12,444,0.218092929,2445,"BOI","-","-","Please name all of the ways you could use this object. Keep in mind that one object can have many uses. Separate your responses with a comma.",NA,"y",25933,NA,NA,4104,22896,NA,NA,NA,"INK, PRINT, INSTALL, CHANGE",1
"5598528afdf99b38e56c8c0d","hfur2fk16k","Affordance Norms_Prolific",1,26,"2023-01-06T19:59:54+00:00",35.695128202438,82,"updated stim.csv","Version82.csv","Version 82","List 82","peppermint",NA,2452,5.391304348,1923,0.275923071,2453,"BOI","-","-","Please name all of the ways you could use this object. Keep in mind that one object can have many uses. Separate your responses with a comma.",NA,"y",34167,NA,NA,2256,29871,NA,NA,NA,"SMELL, COOK, BAKE, DRINK, TEA, PERFUME, GROW",1
"5598528afdf99b38e56c8c0d","hfur2fk16k","Affordance Norms_Prolific",1,27,"2023-01-06T20:00:34+00:00",40.211177825928,82,"updated stim.csv","Version82.csv","Version 82","List 82","tablet",NA,2448,6.517241379,2619,0.393271427,2449,"BOI","-","-","Please name all of the ways you could use this object. Keep in mind that one object can have many uses. Separate your responses with a comma.",NA,"y",38786,NA,NA,4068,37099,NA,NA,NA,"TAKE, SWALLOW, CHARGE, INTERNET",1
"5598528afdf99b38e56c8c0d","hfur2fk16k","Affordance Norms_Prolific",1,28,"2023-01-06T20:01:13+00:00",39.346525192261,82,"updated stim.csv","Version82.csv","Version 82","List 82","eclair",NA,2435,6.166666667,886,0.376305071,2436,"BOI","-","-","Please name all of the ways you could use this object. Keep in mind that one object can have many uses. Separate your responses with a comma.",NA,"y",37777,NA,NA,2358,25876,NA,NA,NA,"EAT, GIFT, DEVOUR",1
"5598528afdf99b38e56c8c0d","hfur2fk16k","Affordance Norms_Prolific",1,29,"2023-01-06T20:02:05+00:00",51.267248868942,82,"updated stim.csv","Version82.csv","Version 82","List 82","backboard",NA,2431,4.565217391,112,0.288232898,2432,"BOI","-","-","Please name all of the ways you could use this object. Keep in mind that one object can have many uses. Separate your responses with a comma.",NA,"y",49661,NA,NA,37893,45262,NA,NA,NA,"HIT, THROW, BOUNCE",0.892
"5598528afdf99b38e56c8c0d","hfur2fk16k","Affordance Norms_Prolific",1,30,"2023-01-06T20:02:34+00:00",29.67760014534,82,"updated stim.csv","Version82.csv","Version 82","List 82","mattress",NA,2453,6.72,1626,0.986617127,2454,"BOI","-","-","Please name all of the ways you could use this object. Keep in mind that one object can have many uses. Separate your responses with a comma.",NA,"y",27912,NA,NA,2210,24719,NA,NA,NA,"SLEEP, SIT, REST, BED, BOUNCE",1
"5598528afdf99b38e56c8c0d","hfur2fk16k","Affordance Norms_Prolific",1,31,"2023-01-06T20:02:46+00:00",11.568436861038,82,"updated stim.csv","Version82.csv","Version 82","List 82","soda",NA,2450,6.47826087,2442,0.228811069,2451,"BOI","-","-","Please name all of the ways you could use this object. Keep in mind that one object can have many uses. Separate your responses with a comma.",NA,"y",9973,NA,NA,1834,3090,NA,NA,NA,"DRINK",1
"5598528afdf99b38e56c8c0d","hfur2fk16k","Affordance Norms_Prolific",1,32,"2023-01-06T20:03:31+00:00",45.340140104294,82,"updated stim.csv","Version82.csv","Version 82","List 82","arrowhead",NA,2457,4.44,77,0.878580468,2458,"BOI","-","-","Please name all of the ways you could use this object. Keep in mind that one object can have many uses. Separate your responses with a comma.",NA,"y",43752,NA,NA,3664,39456,NA,NA,NA,"SPEAR, ARROW, THROW, SHOOT, SPORTS, HUNTING",0.945
"5598528afdf99b38e56c8c0d","hfur2fk16k","Affordance Norms_Prolific",1,33,"2023-01-06T20:04:03+00:00",31.366079807281,82,"updated stim.csv","Version82.csv","Version 82","List 82","buffet",NA,2451,5.409090909,346,0.793112316,2452,"BOI","-","-","Please name all of the ways you could use this object. Keep in mind that one object can have many uses. Separate your responses with a comma.",NA,"y",29706,NA,NA,3176,24993,NA,NA,NA,"EAT, PARTY, FOOD, SUPRISE",1
"5598528afdf99b38e56c8c0d","hfur2fk16k","Affordance Norms_Prolific",1,34,"2023-01-06T20:04:20+00:00",17.424574136734,82,"updated stim.csv","Version82.csv","Version 82","List 82","teakwood",NA,2436,5.136363636,2647,0.381547921,2437,"BOI","-","-","Please name all of the ways you could use this object. Keep in mind that one object can have many uses. Separate your responses with a comma.",NA,"y",15699,NA,NA,3169,13342,NA,NA,NA,"TABLE, CARVE, FURNITURE",1
"5598528afdf99b38e56c8c0d","hfur2fk16k","Affordance Norms_Prolific",1,35,"2023-01-06T20:04:34+00:00",13.858083963394,82,"updated stim.csv","Version82.csv","Version 82","List 82","sidecar",NA,2434,4.347826087,2376,0.56786032,2435,"BOI","-","-","Please name all of the ways you could use this object. Keep in mind that one object can have many uses. Separate your responses with a comma.",NA,"y",12341,NA,NA,2811,7301,NA,NA,NA,"RIDE, SIT",1
"5598528afdf99b38e56c8c0d","hfur2fk16k","Affordance Norms_Prolific",1,36,"2023-01-06T20:05:00+00:00",26.297981023788,82,"updated stim.csv","Version82.csv","Version 82","List 82","petroleum",NA,2438,4.333333333,1934,0.18972014,2439,"BOI","-","-","Please name all of the ways you could use this object. Keep in mind that one object can have many uses. Separate your responses with a comma.",NA,"y",24814,NA,NA,1940,12920,NA,NA,NA,"FUEL, BURN, LIGHT",1
"5598528afdf99b38e56c8c0d","hfur2fk16k","Affordance Norms_Prolific",1,37,"2023-01-06T20:05:18+00:00",17.829900026321,82,"updated stim.csv","Version82.csv","Version 82","List 82","announcer",NA,2439,4.296296296,44,0.293508408,2440,"BOI","-","-","Please name all of the ways you could use this object. Keep in mind that one object can have many uses. Separate your responses with a comma.",NA,"y",16400,NA,NA,3106,12311,NA,NA,NA,"SPEECH, INSTRUCTIONS",1
"5598528afdf99b38e56c8c0d","hfur2fk16k","Affordance Norms_Prolific",1,38,"2023-01-06T20:05:43+00:00",24.87796998024,82,"updated stim.csv","Version82.csv","Version 82","List 82","card",NA,2437,5.56,430,0.002227114,2438,"BOI","-","-","Please name all of the ways you could use this object. Keep in mind that one object can have many uses. Separate your responses with a comma.",NA,"y",23362,NA,NA,4983,19540,NA,NA,NA,"GIFT, BIRTHDAY, CRAFT, ART, ",1
"5598528afdf99b38e56c8c0d","hfur2fk16k","Affordance Norms_Prolific",1,39,"2023-01-06T20:05:53+00:00",9.9595839977264,82,"updated stim.csv","Version82.csv","Version 82","List 82","punter",NA,2454,4.464285714,2100,0.817623298,2455,"BOI","-","-","Please name all of the ways you could use this object. Keep in mind that one object can have many uses. Separate your responses with a comma.",NA,"y",8461,NA,NA,6585,7351,NA,NA,NA,"SELL",1
"5598528afdf99b38e56c8c0d","hfur2fk16k","Affordance Norms_Prolific",1,40,"2023-01-06T20:06:22+00:00",29.051892995834,82,"updated stim.csv","Version82.csv","Version 82","List 82","net",NA,2459,5.208333333,1751,0.421115039,2460,"BOI","-","-","Please name all of the ways you could use this object. Keep in mind that one object can have many uses. Separate your responses with a comma.",NA,"y",27503,NA,NA,2710,22031,NA,NA,NA,"FISH, HUNT, WEAR, SEW, CLOTHING",1
"56afa11aabec410005a56534","iqp8ruuitb","Affordance Norms_Prolific",1,11,"2023-01-06T21:37:47+00:00",21.762903213501,3,"updated stim.csv","Version3.csv","Version 3","List 3","perfume",NA,78,4.96,1926,0.460539621,79,"BOI","-","-","Please name all of the ways you could use this object. Keep in mind that one object can have many uses. Separate your responses with a comma.",NA,"y",21211,NA,NA,7141,20005,NA,NA,NA,"to put on oneself, to spray in a room",0.957
"56afa11aabec410005a56534","iqp8ruuitb","Affordance Norms_Prolific",1,12,"2023-01-06T21:37:55+00:00",8.3023929595947,3,"updated stim.csv","Version3.csv","Version 3","List 3","stake",NA,66,4.36,2503,0.391571319,67,"BOI","-","-","Please name all of the ways you could use this object. Keep in mind that one object can have many uses. Separate your responses with a comma.",NA,"y",7945,NA,NA,2113,7569,NA,NA,NA,"to cut something",1
"56afa11aabec410005a56534","iqp8ruuitb","Affordance Norms_Prolific",1,13,"2023-01-06T21:37:59+00:00",4.3727998733521,3,"updated stim.csv","Version3.csv","Version 3","List 3","limestone",NA,81,4.565217391,1515,0.357597243,82,"BOI","-","-","Please name all of the ways you could use this object. Keep in mind that one object can have many uses. Separate your responses with a comma.",NA,"y",4039,NA,NA,2286,2286,NA,NA,NA,"?",1
"56afa11aabec410005a56534","iqp8ruuitb","Affordance Norms_Prolific",1,14,"2023-01-06T21:38:12+00:00",12.45724105835,3,"updated stim.csv","Version3.csv","Version 3","List 3","plastics",NA,61,5,1995,0.297611551,62,"BOI","-","-","Please name all of the ways you could use this object. Keep in mind that one object can have many uses. Separate your responses with a comma.",NA,"y",11953,NA,NA,1651,11788,NA,NA,NA,"to wrap something, to carry something",1
"56afa11aabec410005a56534","iqp8ruuitb","Affordance Norms_Prolific",1,15,"2023-01-06T21:38:35+00:00",23.097683906555,3,"updated stim.csv","Version3.csv","Version 3","List 3","postage",NA,83,4.32,2041,0.504174346,84,"BOI","-","-","Please name all of the ways you could use this object. Keep in mind that one object can have many uses. Separate your responses with a comma.",NA,"y",22547,NA,NA,17524,22436,NA,NA,NA,"to send out cards or letters",0.882
"56afa11aabec410005a56534","iqp8ruuitb","Affordance Norms_Prolific",1,16,"2023-01-06T21:38:44+00:00",9.4858059883118,3,"updated stim.csv","Version3.csv","Version 3","List 3","businesswoman",NA,86,5.08,371,0.22831517,87,"BOI","-","-","Please name all of the ways you could use this object. Keep in mind that one object can have many uses. Separate your responses with a comma.",NA,"y",9155,NA,NA,4644,9050,NA,NA,NA,"this is not an object",1
"56afa11aabec410005a56534","iqp8ruuitb","Affordance Norms_Prolific",1,17,"2023-01-06T21:38:49+00:00",5.0616660118103,3,"updated stim.csv","Version3.csv","Version 3","List 3","sportswriter",NA,69,4.32,2484,0.788241169,70,"BOI","-","-","Please name all of the ways you could use this object. Keep in mind that one object can have many uses. Separate your responses with a comma.",NA,"y",4704,NA,NA,4437,4437,NA,NA,NA,"?",1
"56afa11aabec410005a56534","iqp8ruuitb","Affordance Norms_Prolific",1,18,"2023-01-06T21:38:56+00:00",6.8295500278473,3,"updated stim.csv","Version3.csv","Version 3","List 3","rink",NA,71,4.333333333,2171,0.641556175,72,"BOI","-","-","Please name all of the ways you could use this object. Keep in mind that one object can have many uses. Separate your responses with a comma.",NA,"y",6477,NA,NA,3653,6359,NA,NA,NA,"to go ice skating",1
"56afa11aabec410005a56534","iqp8ruuitb","Affordance Norms_Prolific",1,19,"2023-01-06T21:38:58+00:00",1.8324379920959,3,"updated stim.csv","Version3.csv","Version 3","List 3","sash",NA,79,4.916666667,2244,0.813802173,80,"BOI","-","-","Please name all of the ways you could use this object. Keep in mind that one object can have many uses. Separate your responses with a comma.",NA,"y",1482,NA,NA,1237,1237,NA,NA,NA,"?",1
"56afa11aabec410005a56534","iqp8ruuitb","Affordance Norms_Prolific",1,20,"2023-01-06T21:39:05+00:00",7.4673120975494,3,"updated stim.csv","Version3.csv","Version 3","List 3","police",NA,72,4.739130435,2021,0.71377516,73,"BOI","-","-","Please name all of the ways you could use this object. Keep in mind that one object can have many uses. Separate your responses with a comma.",NA,"y",7133,NA,NA,1668,7046,NA,NA,NA,"to stop criminals, to maintain order",1
"56afa11aabec410005a56534","iqp8ruuitb","Affordance Norms_Prolific",1,21,"2023-01-06T21:39:16+00:00",10.584652900696,3,"updated stim.csv","Version3.csv","Version 3","List 3","stone",NA,67,5.875,2545,0.16935575,68,"BOI","-","-","Please name all of the ways you could use this object. Keep in mind that one object can have many uses. Separate your responses with a comma.",NA,"y",10243,NA,NA,1208,9907,NA,NA,NA,"to throw, to build something, to step on",1
"56afa11aabec410005a56534","iqp8ruuitb","Affordance Norms_Prolific",1,22,"2023-01-06T21:39:41+00:00",25.195549964905,3,"updated stim.csv","Version3.csv","Version 3","List 3","lumber",NA,88,5.217391304,1557,0.027089463,89,"BOI","-","-","Please name all of the ways you could use this object. Keep in mind that one object can have many uses. Separate your responses with a comma.",NA,"y",24645,NA,NA,15177,24528,NA,NA,NA,"to construct a house, to put in the fireplace",0.829
"56afa11aabec410005a56534","iqp8ruuitb","Affordance Norms_Prolific",1,23,"2023-01-06T21:40:01+00:00",19.430546045303,3,"updated stim.csv","Version3.csv","Version 3","List 3","plow",NA,68,5,2008,0.897588843,69,"BOI","-","-","Please name all of the ways you could use this object. Keep in mind that one object can have many uses. Separate your responses with a comma.",NA,"y",19121,NA,NA,17464,18842,NA,NA,NA,"to turn soil",0.605
"56afa11aabec410005a56534","iqp8ruuitb","Affordance Norms_Prolific",1,24,"2023-01-06T21:40:22+00:00",20.894206047058,3,"updated stim.csv","Version3.csv","Version 3","List 3","curtain",NA,84,5.875,732,0.795847806,85,"BOI","-","-","Please name all of the ways you could use this object. Keep in mind that one object can have many uses. Separate your responses with a comma.",NA,"y",20332,NA,NA,1212,20142,NA,NA,NA,"to keep lights out, to hide behind, to maintain warmth in a room",1
"56afa11aabec410005a56534","iqp8ruuitb","Affordance Norms_Prolific",1,25,"2023-01-06T21:40:28+00:00",6.65238904953,3,"updated stim.csv","Version3.csv","Version 3","List 3","tights",NA,63,5.956521739,2696,0.229279242,64,"BOI","-","-","Please name all of the ways you could use this object. Keep in mind that one object can have many uses. Separate your responses with a comma.",NA,"y",6322,NA,NA,1799,6078,NA,NA,NA,"to keep warm, to hide legs",1
"56afa11aabec410005a56534","iqp8ruuitb","Affordance Norms_Prolific",1,26,"2023-01-06T21:41:03+00:00",35.209529876709,3,"updated stim.csv","Version3.csv","Version 3","List 3","footplate",NA,90,4.875,1038,0.590943274,91,"BOI","-","-","Please name all of the ways you could use this object. Keep in mind that one object can have many uses. Separate your responses with a comma.",NA,"y",34626,NA,NA,33430,34447,NA,NA,NA,"to stand on",0.392
"56afa11aabec410005a56534","iqp8ruuitb","Affordance Norms_Prolific",1,27,"2023-01-06T21:41:08+00:00",4.9864621162415,3,"updated stim.csv","Version3.csv","Version 3","List 3","stuff",NA,77,4.391304348,2574,0.106746219,78,"BOI","-","-","Please name all of the ways you could use this object. Keep in mind that one object can have many uses. Separate your responses with a comma.",NA,"y",4621,NA,NA,2000,4296,NA,NA,NA,"to own, to share",1
"56afa11aabec410005a56534","iqp8ruuitb","Affordance Norms_Prolific",1,28,"2023-01-06T21:41:23+00:00",14.377845048904,3,"updated stim.csv","Version3.csv","Version 3","List 3","dogcatcher",NA,74,4.72,812,0.011096937,75,"BOI","-","-","Please name all of the ways you could use this object. Keep in mind that one object can have many uses. Separate your responses with a comma.",NA,"y",14028,NA,NA,12252,13957,NA,NA,NA,"to catch gods",0.727
"56afa11aabec410005a56534","iqp8ruuitb","Affordance Norms_Prolific",1,29,"2023-01-06T21:41:27+00:00",3.9667778015137,3,"updated stim.csv","Version3.csv","Version 3","List 3","crumb",NA,89,4.45,714,0.473160418,90,"BOI","-","-","Please name all of the ways you could use this object. Keep in mind that one object can have many uses. Separate your responses with a comma.",NA,"y",3622,NA,NA,3420,3420,NA,NA,NA,"?",1
"56afa11aabec410005a56534","iqp8ruuitb","Affordance Norms_Prolific",1,30,"2023-01-06T21:41:32+00:00",5.5353121757507,3,"updated stim.csv","Version3.csv","Version 3","List 3","backbone",NA,65,4.64,113,0.193301397,66,"BOI","-","-","Please name all of the ways you could use this object. Keep in mind that one object can have many uses. Separate your responses with a comma.",NA,"y",5202,NA,NA,1398,5011,NA,NA,NA,"to hold the back straight",1
"56afa11aabec410005a56534","iqp8ruuitb","Affordance Norms_Prolific",1,31,"2023-01-06T21:41:44+00:00",11.256583929062,3,"updated stim.csv","Version3.csv","Version 3","List 3","spit",NA,76,4.391304348,2476,0.828123751,77,"BOI","-","-","Please name all of the ways you could use this object. Keep in mind that one object can have many uses. Separate your responses with a comma.",NA,"y",10914,NA,NA,2409,10801,NA,NA,NA,"to wet something, to keep mouth moist",1
"56afa11aabec410005a56534","iqp8ruuitb","Affordance Norms_Prolific",1,32,"2023-01-06T21:41:48+00:00",4.7230169773102,3,"updated stim.csv","Version3.csv","Version 3","List 3","overcoat",NA,85,6.52,1832,0.794942896,86,"BOI","-","-","Please name all of the ways you could use this object. Keep in mind that one object can have many uses. Separate your responses with a comma.",NA,"y",4400,NA,NA,1964,4223,NA,NA,NA,"to protect something",1
"56afa11aabec410005a56534","iqp8ruuitb","Affordance Norms_Prolific",1,33,"2023-01-06T21:41:50+00:00",2.0946941375732,3,"updated stim.csv","Version3.csv","Version 3","List 3","postmaster",NA,64,5.2,2045,0.553054431,65,"BOI","-","-","Please name all of the ways you could use this object. Keep in mind that one object can have many uses. Separate your responses with a comma.",NA,"y",1761,NA,NA,1574,1574,NA,NA,NA,"?",1
"56afa11aabec410005a56534","iqp8ruuitb","Affordance Norms_Prolific",1,34,"2023-01-06T21:42:02+00:00",11.518217802048,3,"updated stim.csv","Version3.csv","Version 3","List 3","cart",NA,70,5.4,442,0.978148159,71,"BOI","-","-","Please name all of the ways you could use this object. Keep in mind that one object can have many uses. Separate your responses with a comma.",NA,"y",11208,NA,NA,1461,10975,NA,NA,NA,"to carry things around, to hide in",1
"56afa11aabec410005a56534","iqp8ruuitb","Affordance Norms_Prolific",1,35,"2023-01-06T21:42:26+00:00",24.605275154114,3,"updated stim.csv","Version3.csv","Version 3","List 3","pinecone",NA,62,5.821428571,1972,0.647636876,63,"BOI","-","-","Please name all of the ways you could use this object. Keep in mind that one object can have many uses. Separate your responses with a comma.",NA,"y",24017,NA,NA,1537,23810,NA,NA,NA,"to decorate, to burn",0.912
"56afa11aabec410005a56534","iqp8ruuitb","Affordance Norms_Prolific",1,36,"2023-01-06T21:42:37+00:00",10.532343864441,3,"updated stim.csv","Version3.csv","Version 3","List 3","lilac",NA,80,5,1508,0.204621036,81,"BOI","-","-","Please name all of the ways you could use this object. Keep in mind that one object can have many uses. Separate your responses with a comma.",NA,"y",10200,NA,NA,1241,10070,NA,NA,NA,"to give a room a good smell, for a bouquet, in tea",1
"56afa11aabec410005a56534","iqp8ruuitb","Affordance Norms_Prolific",1,37,"2023-01-06T21:42:44+00:00",6.8263139724731,3,"updated stim.csv","Version3.csv","Version 3","List 3","litter",NA,75,5.034482759,1526,0.130915448,76,"BOI","-","-","Please name all of the ways you could use this object. Keep in mind that one object can have many uses. Separate your responses with a comma.",NA,"y",6518,NA,NA,1534,6431,NA,NA,NA,"for pets to do their business",1
"56afa11aabec410005a56534","iqp8ruuitb","Affordance Norms_Prolific",1,38,"2023-01-06T21:42:53+00:00",9.4157521724701,3,"updated stim.csv","Version3.csv","Version 3","List 3","delicatessen",NA,87,4.347826087,768,0.964513541,88,"BOI","-","-","Please name all of the ways you could use this object. Keep in mind that one object can have many uses. Separate your responses with a comma.",NA,"y",9088,NA,NA,1688,8973,NA,NA,NA,"to eat, with tea",1
"56afa11aabec410005a56534","iqp8ruuitb","Affordance Norms_Prolific",1,39,"2023-01-06T21:42:57+00:00",3.6221268177032,3,"updated stim.csv","Version3.csv","Version 3","List 3","fastener",NA,82,4.347826087,950,0.481228199,83,"BOI","-","-","Please name all of the ways you could use this object. Keep in mind that one object can have many uses. Separate your responses with a comma.",NA,"y",3285,NA,NA,3122,3122,NA,NA,NA,"?",1
"56afa11aabec410005a56534","iqp8ruuitb","Affordance Norms_Prolific",1,40,"2023-01-06T21:43:28+00:00",30.863910198212,3,"updated stim.csv","Version3.csv","Version 3","List 3","rack",NA,73,4.68,2119,0.859929905,74,"BOI","-","-","Please name all of the ways you could use this object. Keep in mind that one object can have many uses. Separate your responses with a comma.",NA,"y",30312,NA,NA,25662,29622,NA,NA,NA,"to hold something, to strain",0.61
"572f526c3c27e7000e0b8aaa","g9bs6s6qqg","Affordance Norms_Prolific",1,11,"2023-01-06T21:40:51+00:00",53.591068983078,100,"updated stim.csv","Version100.csv","Version 100","List 100","wrist",NA,2993,6.291666667,2982,0.064872608,2994,"BOI","-","-","Please name all of the ways you could use this object. Keep in mind that one object can have many uses. Separate your responses with a comma.",NA,"y",52897,NA,NA,-1,-1,NA,NA,NA,"Wearing watches, shaking",1
"572f526c3c27e7000e0b8aaa","g9bs6s6qqg","Affordance Norms_Prolific",1,12,"2023-01-06T21:41:07+00:00",16.828271150589,100,"updated stim.csv","Version100.csv","Version 100","List 100","marketeer",NA,2989,4.5,1608,0.440459181,2990,"BOI","-","-","Please name all of the ways you could use this object. Keep in mind that one object can have many uses. Separate your responses with a comma.",NA,"y",16321,NA,NA,-1,-1,NA,NA,NA,"Marketing, advertising ",1
"572f526c3c27e7000e0b8aaa","g9bs6s6qqg","Affordance Norms_Prolific",1,13,"2023-01-06T21:41:44+00:00",36.600326776505,100,"updated stim.csv","Version100.csv","Version 100","List 100","centipede",NA,2986,5.25,478,0.361563673,2987,"BOI","-","-","Please name all of the ways you could use this object. Keep in mind that one object can have many uses. Separate your responses with a comma.",NA,"y",35847,NA,NA,-1,-1,NA,NA,NA,"Scaring children ",1
"572f526c3c27e7000e0b8aaa","g9bs6s6qqg","Affordance Norms_Prolific",1,14,"2023-01-06T21:42:29+00:00",44.882983207703,100,"updated stim.csv","Version100.csv","Version 100","List 100","dish",NA,2981,5.8,802,0.35675411,2982,"BOI","-","-","Please name all of the ways you could use this object. Keep in mind that one object can have many uses. Separate your responses with a comma.",NA,"y",44152,NA,NA,-1,-1,NA,NA,NA,"Holding food, storage, covering things ",1
"572f526c3c27e7000e0b8aaa","g9bs6s6qqg","Affordance Norms_Prolific",1,15,"2023-01-06T21:42:37+00:00",8.4436678886414,100,"updated stim.csv","Version100.csv","Version 100","List 100","tee",NA,2984,5.347826087,2656,0.439440456,2985,"BOI","-","-","Please name all of the ways you could use this object. Keep in mind that one object can have many uses. Separate your responses with a comma.",NA,"y",7970,NA,NA,-1,-1,NA,NA,NA,"Golf",1
"572f526c3c27e7000e0b8aaa","g9bs6s6qqg","Affordance Norms_Prolific",1,16,"2023-01-06T21:43:08+00:00",31.011701107025,100,"updated stim.csv","Version100.csv","Version 100","List 100","pulley",NA,2973,5.208333333,2092,0.333814216,2974,"BOI","-","-","Please name all of the ways you could use this object. Keep in mind that one object can have many uses. Separate your responses with a comma.",NA,"y",30337,NA,NA,-1,-1,NA,NA,NA,"Lifting things, as a wheel ",1
"572f526c3c27e7000e0b8aaa","g9bs6s6qqg","Affordance Norms_Prolific",1,17,"2023-01-06T21:44:05+00:00",56.529694795609,100,"updated stim.csv","Version100.csv","Version 100","List 100","earplugs",NA,2996,6.541666667,880,0.170981049,2997,"BOI","-","-","Please name all of the ways you could use this object. Keep in mind that one object can have many uses. Separate your responses with a comma.",NA,"y",55760,NA,NA,-1,-1,NA,NA,NA,"Block noise, keeping water out, keeping dirt out",1
"572f526c3c27e7000e0b8aaa","g9bs6s6qqg","Affordance Norms_Prolific",1,18,"2023-01-06T21:44:42+00:00",37.460914134979,100,"updated stim.csv","Version100.csv","Version 100","List 100","breadboard",NA,2987,5.44,310,0.496866856,2988,"BOI","-","-","Please name all of the ways you could use this object. Keep in mind that one object can have many uses. Separate your responses with a comma.",NA,"y",36698,NA,NA,-1,-1,NA,NA,NA,"Cutting food, mixing ingredients ",1
"572f526c3c27e7000e0b8aaa","g9bs6s6qqg","Affordance Norms_Prolific",1,19,"2023-01-06T21:45:24+00:00",41.938014984131,100,"updated stim.csv","Version100.csv","Version 100","List 100","waist",NA,2997,6.458333333,1117,0.193631458,2998,"BOI","-","-","Please name all of the ways you could use this object. Keep in mind that one object can have many uses. Separate your responses with a comma.",NA,"y",41192,NA,NA,-1,-1,NA,NA,NA,"Supporting clothes, dancing ",1
"572f526c3c27e7000e0b8aaa","g9bs6s6qqg","Affordance Norms_Prolific",1,20,"2023-01-06T21:45:52+00:00",27.709007978439,100,"updated stim.csv","Version100.csv","Version 100","List 100","limb",NA,2982,5.703703704,1511,0.461627008,2983,"BOI","-","-","Please name all of the ways you could use this object. Keep in mind that one object can have many uses. Separate your responses with a comma.",NA,"y",26853,NA,NA,-1,-1,NA,NA,NA,"Lifting, walking, moving ",1
"572f526c3c27e7000e0b8aaa","g9bs6s6qqg","Affordance Norms_Prolific",1,21,"2023-01-06T21:46:34+00:00",41.868146896362,100,"updated stim.csv","Version100.csv","Version 100","List 100","hound",NA,2974,4.962962963,1324,0.921503251,2975,"BOI","-","-","Please name all of the ways you could use this object. Keep in mind that one object can have many uses. Separate your responses with a comma.",NA,"y",41092,NA,NA,-1,-1,NA,NA,NA,"Hunting, chasing, guarding, going for walks ",1
"572f526c3c27e7000e0b8aaa","g9bs6s6qqg","Affordance Norms_Prolific",1,22,"2023-01-06T21:46:53+00:00",18.613414049149,100,"updated stim.csv","Version100.csv","Version 100","List 100","bowling",NA,2980,5,293,0.377094601,2981,"BOI","-","-","Please name all of the ways you could use this object. Keep in mind that one object can have many uses. Separate your responses with a comma.",NA,"y",18126,NA,NA,-1,-1,NA,NA,NA,"Sport, fun, exercise ",1
"572f526c3c27e7000e0b8aaa","g9bs6s6qqg","Affordance Norms_Prolific",1,23,"2023-01-06T21:47:24+00:00",31.669456005096,100,"updated stim.csv","Version100.csv","Version 100","List 100","school",NA,2979,5.16,2269,0.316817228,2980,"BOI","-","-","Please name all of the ways you could use this object. Keep in mind that one object can have many uses. Separate your responses with a comma.",NA,"y",30881,NA,NA,-1,-1,NA,NA,NA,"Learning, teaching, entertainment, events ",1
"572f526c3c27e7000e0b8aaa","g9bs6s6qqg","Affordance Norms_Prolific",1,24,"2023-01-06T21:48:14+00:00",49.625524997711,100,"updated stim.csv","Version100.csv","Version 100","List 100","Fern",NA,2976,5.005471956,964,0.19837687,2977,"BOI","-","-","Please name all of the ways you could use this object. Keep in mind that one object can have many uses. Separate your responses with a comma.",NA,"y",48872,NA,NA,-1,-1,NA,NA,NA,"Decoration, shelter, landscaping ",1
"572f526c3c27e7000e0b8aaa","g9bs6s6qqg","Affordance Norms_Prolific",1,25,"2023-01-06T21:48:48+00:00",34.158715009689,100,"updated stim.csv","Version100.csv","Version 100","List 100","knickers",NA,2977,5.5,1435,0.06671173,2978,"BOI","-","-","Please name all of the ways you could use this object. Keep in mind that one object can have many uses. Separate your responses with a comma.",NA,"y",33362,NA,NA,-1,-1,NA,NA,NA,"Clothing, rags",1
"572f526c3c27e7000e0b8aaa","g9bs6s6qqg","Affordance Norms_Prolific",1,26,"2023-01-06T21:49:26+00:00",37.659013032913,100,"updated stim.csv","Version100.csv","Version 100","List 100","respirator",NA,2995,4.923076923,2158,0.490217612,2996,"BOI","-","-","Please name all of the ways you could use this object. Keep in mind that one object can have many uses. Separate your responses with a comma.",NA,"y",36907,NA,NA,-1,-1,NA,NA,NA,"Breathing, protection ",1
"572f526c3c27e7000e0b8aaa","g9bs6s6qqg","Affordance Norms_Prolific",1,27,"2023-01-06T21:49:53+00:00",27.852951049805,100,"updated stim.csv","Version100.csv","Version 100","List 100","brow",NA,2998,4.416666667,336,0.275656791,2999,"BOI","-","-","Please name all of the ways you could use this object. Keep in mind that one object can have many uses. Separate your responses with a comma.",NA,"y",27111,NA,NA,-1,-1,NA,NA,NA,"Wiping, frowning, sweating ",1
"572f526c3c27e7000e0b8aaa","g9bs6s6qqg","Affordance Norms_Prolific",1,28,"2023-01-06T21:50:22+00:00",28.845728874207,100,"updated stim.csv","Version100.csv","Version 100","List 100","waffle",NA,2983,6.173913043,2878,0.966588305,2984,"BOI","-","-","Please name all of the ways you could use this object. Keep in mind that one object can have many uses. Separate your responses with a comma.",NA,"y",28126,NA,NA,-1,-1,NA,NA,NA,"Honey, chocolate, butter ",1
"572f526c3c27e7000e0b8aaa","g9bs6s6qqg","Affordance Norms_Prolific",1,29,"2023-01-06T21:50:54+00:00",31.17524600029,100,"updated stim.csv","Version100.csv","Version 100","List 100","blowgun",NA,2985,4.625,246,0.815635977,2986,"BOI","-","-","Please name all of the ways you could use this object. Keep in mind that one object can have many uses. Separate your responses with a comma.",NA,"y",30423,NA,NA,-1,-1,NA,NA,NA,"Fun, scaring pests, killing flies",1
"572f526c3c27e7000e0b8aaa","g9bs6s6qqg","Affordance Norms_Prolific",1,30,"2023-01-06T21:51:32+00:00",38.830121040344,100,"updated stim.csv","Version100.csv","Version 100","List 100","greenhouse",NA,2975,5.260869565,1171,0.395588172,2976,"BOI","-","-","Please name all of the ways you could use this object. Keep in mind that one object can have many uses. Separate your responses with a comma.",NA,"y",38091,NA,NA,-1,-1,NA,NA,NA,"Growing plants, shelter, storage ",1
"572f526c3c27e7000e0b8aaa","g9bs6s6qqg","Affordance Norms_Prolific",1,31,"2023-01-06T21:52:20+00:00",47.769680976868,100,"updated stim.csv","Version100.csv","Version 100","List 100","wallboard",NA,2978,4.64,2887,0.494540405,2979,"BOI","-","-","Please name all of the ways you could use this object. Keep in mind that one object can have many uses. Separate your responses with a comma.",NA,"y",47068,NA,NA,-1,-1,NA,NA,NA,"Pinning notes, scribbling, hanging things ",1
"572f526c3c27e7000e0b8aaa","g9bs6s6qqg","Affordance Norms_Prolific",1,32,"2023-01-06T21:52:32+00:00",12.243553161621,100,"updated stim.csv","Version100.csv","Version 100","List 100","guardrail",NA,2991,4.36,1186,0.020980927,2992,"BOI","-","-","Please name all of the ways you could use this object. Keep in mind that one object can have many uses. Separate your responses with a comma.",NA,"y",11733,NA,NA,-1,-1,NA,NA,NA,"Protection ",1
"572f526c3c27e7000e0b8aaa","g9bs6s6qqg","Affordance Norms_Prolific",1,33,"2023-01-06T21:53:12+00:00",39.670195817947,100,"updated stim.csv","Version100.csv","Version 100","List 100","badminton",NA,2999,4.92,120,0.95175255,3000,"BOI","-","-","Please name all of the ways you could use this object. Keep in mind that one object can have many uses. Separate your responses with a comma.",NA,"y",38952,NA,NA,-1,-1,NA,NA,NA,"Sport, exercise, entertainment, competitions ",1
"572f526c3c27e7000e0b8aaa","g9bs6s6qqg","Affordance Norms_Prolific",1,34,"2023-01-06T21:53:51+00:00",38.889512062073,100,"updated stim.csv","Version100.csv","Version 100","List 100","dye",NA,2972,4.52173913,873,0.952729296,2973,"BOI","-","-","Please name all of the ways you could use this object. Keep in mind that one object can have many uses. Separate your responses with a comma.",NA,"y",38143,NA,NA,-1,-1,NA,NA,NA,"Colouring clothes, hair",1
"572f526c3c27e7000e0b8aaa","g9bs6s6qqg","Affordance Norms_Prolific",1,35,"2023-01-06T21:54:55+00:00",63.75803899765,100,"updated stim.csv","Version100.csv","Version 100","List 100","debris",NA,2971,4.75,762,0.012673773,2972,"BOI","-","-","Please name all of the ways you could use this object. Keep in mind that one object can have many uses. Separate your responses with a comma.",NA,"y",63251,NA,NA,-1,-1,NA,NA,NA,"Sweeping up, littering, filling bin",1
"572f526c3c27e7000e0b8aaa","g9bs6s6qqg","Affordance Norms_Prolific",1,36,"2023-01-06T21:55:15+00:00",20.443367958069,100,"updated stim.csv","Version100.csv","Version 100","List 100","trampoline",NA,2994,5.88,2759,0.660595549,2995,"BOI","-","-","Please name all of the ways you could use this object. Keep in mind that one object can have many uses. Separate your responses with a comma.",NA,"y",19694,NA,NA,-1,-1,NA,NA,NA,"Jumping, exercise, entertainment ",1
"572f526c3c27e7000e0b8aaa","g9bs6s6qqg","Affordance Norms_Prolific",1,38,"2023-01-06T21:55:58+00:00",11.798166036606,100,"updated stim.csv","Version100.csv","Version 100","List 100","topaz",NA,2992,4.642857143,2735,0.997478424,2993,"BOI","-","-","Please name all of the ways you could use this object. Keep in mind that one object can have many uses. Separate your responses with a comma.",NA,"y",11280,NA,NA,-1,-1,NA,NA,NA,"Jewellery ",1
"572f526c3c27e7000e0b8aaa","g9bs6s6qqg","Affordance Norms_Prolific",1,39,"2023-01-06T21:56:15+00:00",16.611768960953,100,"updated stim.csv","Version100.csv","Version 100","List 100","fieldstone",NA,2990,4.761904762,971,0.517837285,2991,"BOI","-","-","Please name all of the ways you could use this object. Keep in mind that one object can have many uses. Separate your responses with a comma.",NA,"y",16172,NA,NA,-1,-1,NA,NA,NA,"Building ",1
"572f526c3c27e7000e0b8aaa","g9bs6s6qqg","Affordance Norms_Prolific",1,40,"2023-01-06T21:56:37+00:00",22.150375127792,100,"updated stim.csv","Version100.csv","Version 100","List 100","deck",NA,2988,5.541666667,763,0.401643692,2989,"BOI","-","-","Please name all of the ways you could use this object. Keep in mind that one object can have many uses. Separate your responses with a comma.",NA,"y",21444,NA,NA,-1,-1,NA,NA,NA,"Sitting, standing ",1
"57b715b842195e000159f82b","yj9oj4em5z","Affordance Norms_Prolific",1,11,"2023-01-06T21:36:02+00:00",48.689914941788,95,"updated stim.csv","Version95.csv","Version 95","List 95","lemon",NA,2828,6.08,1489,0.902022384,2829,"BOI","-","-","Please name all of the ways you could use this object. Keep in mind that one object can have many uses. Separate your responses with a comma.",NA,"y",47757,NA,NA,-1,-1,NA,NA,NA,"Squeeze, cook with, put on pancakes, make lemonade, peal, zest, juice, smell, buy, plant, pick, hold",1
"57b715b842195e000159f82b","yj9oj4em5z","Affordance Norms_Prolific",1,12,"2023-01-06T21:36:28+00:00",26.017259120941,95,"updated stim.csv","Version95.csv","Version 95","List 95","Taco",NA,2826,NA,3005,0.811321361,2827,"BOI","-","-","Please name all of the ways you could use this object. Keep in mind that one object can have many uses. Separate your responses with a comma.",NA,"y",24852,NA,NA,-1,-1,NA,NA,NA,"Fill, eat, cook, buy, order at restaurant",1
"57b715b842195e000159f82b","yj9oj4em5z","Affordance Norms_Prolific",1,13,"2023-01-06T21:37:07+00:00",38.689622879028,95,"updated stim.csv","Version95.csv","Version 95","List 95","handgun",NA,2830,5.761904762,1236,0.798867093,2831,"BOI","-","-","Please name all of the ways you could use this object. Keep in mind that one object can have many uses. Separate your responses with a comma.",NA,"y",37230,NA,NA,-1,-1,NA,NA,NA,"Shoot, put in holster, buy, store, take apart, threaten with, kill with",1
"57b715b842195e000159f82b","yj9oj4em5z","Affordance Norms_Prolific",1,14,"2023-01-06T21:37:36+00:00",29.211035966873,95,"updated stim.csv","Version95.csv","Version 95","List 95","javelin",NA,2844,5.833333333,1375,0.671141287,2845,"BOI","-","-","Please name all of the ways you could use this object. Keep in mind that one object can have many uses. Separate your responses with a comma.",NA,"y",27663,NA,NA,-1,-1,NA,NA,NA,"Throw, stick in thr ground, aim",1
"57b715b842195e000159f82b","yj9oj4em5z","Affordance Norms_Prolific",1,15,"2023-01-06T21:37:58+00:00",22.075400114059,95,"updated stim.csv","Version95.csv","Version 95","List 95","pitcher",NA,2843,5.259259259,1980,0.37527782,2844,"BOI","-","-","Please name all of the ways you could use this object. Keep in mind that one object can have many uses. Separate your responses with a comma.",NA,"y",20271,NA,NA,-1,-1,NA,NA,NA,"Fill, pour, display, clean",1
"57b715b842195e000159f82b","yj9oj4em5z","Affordance Norms_Prolific",1,16,"2023-01-06T21:38:30+00:00",32.373436927795,95,"updated stim.csv","Version95.csv","Version 95","List 95","dinnerware",NA,2850,5.916666667,796,0.8361605,2851,"BOI","-","-","Please name all of the ways you could use this object. Keep in mind that one object can have many uses. Separate your responses with a comma.",NA,"y",30936,NA,NA,-1,-1,NA,NA,NA,"Eat off, clean, stack",1
"57b715b842195e000159f82b","yj9oj4em5z","Affordance Norms_Prolific",1,17,"2023-01-06T21:38:54+00:00",23.432609081268,95,"updated stim.csv","Version95.csv","Version 95","List 95","guillotine",NA,2847,4.52173913,1192,0.895691665,2848,"BOI","-","-","Please name all of the ways you could use this object. Keep in mind that one object can have many uses. Separate your responses with a comma.",NA,"y",22165,NA,NA,-1,-1,NA,NA,NA,"Cut someone's head off, cut paper",1
"57b715b842195e000159f82b","yj9oj4em5z","Affordance Norms_Prolific",1,18,"2023-01-06T21:39:13+00:00",19.736608028412,95,"updated stim.csv","Version95.csv","Version 95","List 95","nutmeg",NA,2848,4.608695652,1792,0.215590085,2849,"BOI","-","-","Please name all of the ways you could use this object. Keep in mind that one object can have many uses. Separate your responses with a comma.",NA,"y",18826,NA,NA,-1,-1,NA,NA,NA,"Put in food, grind, smell",1
"57b715b842195e000159f82b","yj9oj4em5z","Affordance Norms_Prolific",1,19,"2023-01-06T21:39:55+00:00",41.617309808731,95,"updated stim.csv","Version95.csv","Version 95","List 95","gadget",NA,2832,5.52,1069,0.476791818,2833,"BOI","-","-","Please name all of the ways you could use this object. Keep in mind that one object can have many uses. Separate your responses with a comma.",NA,"y",40532,NA,NA,-1,-1,NA,NA,NA,"Use to fix something, use to make something",1
"57b715b842195e000159f82b","yj9oj4em5z","Affordance Norms_Prolific",1,20,"2023-01-06T21:40:13+00:00",17.868630170822,95,"updated stim.csv","Version95.csv","Version 95","List 95","jurist",NA,2837,4.380952381,1397,0.674726468,2838,"BOI","-","-","Please name all of the ways you could use this object. Keep in mind that one object can have many uses. Separate your responses with a comma.",NA,"y",16868,NA,NA,-1,-1,NA,NA,NA,"Use in a court case",1
"57b715b842195e000159f82b","yj9oj4em5z","Affordance Norms_Prolific",1,21,"2023-01-06T21:40:28+00:00",14.749156951904,95,"updated stim.csv","Version95.csv","Version 95","List 95","glider",NA,2824,4.5,1114,0.391306611,2825,"BOI","-","-","Please name all of the ways you could use this object. Keep in mind that one object can have many uses. Separate your responses with a comma.",NA,"y",13581,NA,NA,-1,-1,NA,NA,NA,"Fly, tow, watch",1
"57b715b842195e000159f82b","yj9oj4em5z","Affordance Norms_Prolific",1,22,"2023-01-06T21:40:40+00:00",12.900536060333,95,"updated stim.csv","Version95.csv","Version 95","List 95","nightshirt",NA,2849,6.291666667,1773,0.667532644,2850,"BOI","-","-","Please name all of the ways you could use this object. Keep in mind that one object can have many uses. Separate your responses with a comma.",NA,"y",11844,NA,NA,-1,-1,NA,NA,NA,"Wear, wash, mend",1
"57b715b842195e000159f82b","yj9oj4em5z","Affordance Norms_Prolific",1,23,"2023-01-06T21:40:54+00:00",13.164376020432,95,"updated stim.csv","Version95.csv","Version 95","List 95","pajamas",NA,2839,6.222222222,1851,0.751031146,2840,"BOI","-","-","Please name all of the ways you could use this object. Keep in mind that one object can have many uses. Separate your responses with a comma.",NA,"y",11839,NA,NA,-1,-1,NA,NA,NA,"Wear, wash, mend",1
"57b715b842195e000159f82b","yj9oj4em5z","Affordance Norms_Prolific",1,24,"2023-01-06T21:41:17+00:00",23.588481903076,95,"updated stim.csv","Version95.csv","Version 95","List 95","cross",NA,2825,5,703,0.436202882,2826,"BOI","-","-","Please name all of the ways you could use this object. Keep in mind that one object can have many uses. Separate your responses with a comma.",NA,"y",22408,NA,NA,-1,-1,NA,NA,NA,"Pray at, wear, display ",1
"57b715b842195e000159f82b","yj9oj4em5z","Affordance Norms_Prolific",1,25,"2023-01-06T21:41:36+00:00",18.968247890472,95,"updated stim.csv","Version95.csv","Version 95","List 95","petal",NA,2841,5.75,1933,0.208572878,2842,"BOI","-","-","Please name all of the ways you could use this object. Keep in mind that one object can have many uses. Separate your responses with a comma.",NA,"y",17567,NA,NA,-1,-1,NA,NA,NA,"Pick, smell, collect, press",1
"57b715b842195e000159f82b","yj9oj4em5z","Affordance Norms_Prolific",1,26,"2023-01-06T21:41:48+00:00",11.4425740242,95,"updated stim.csv","Version95.csv","Version 95","List 95","duffel",NA,2821,4.380952381,864,0.87423404,2822,"BOI","-","-","Please name all of the ways you could use this object. Keep in mind that one object can have many uses. Separate your responses with a comma.",NA,"y",10304,NA,NA,-1,-1,NA,NA,NA,"Wear",1
"57b715b842195e000159f82b","yj9oj4em5z","Affordance Norms_Prolific",1,27,"2023-01-06T21:42:30+00:00",42.748476028442,95,"updated stim.csv","Version95.csv","Version 95","List 95","cardboard",NA,2833,5.739130435,431,0.868045014,2834,"BOI","-","-","Please name all of the ways you could use this object. Keep in mind that one object can have many uses. Separate your responses with a comma.",NA,"y",41637,NA,NA,-1,-1,NA,NA,NA,"Make a card, burn, cut, make a box",1
"57b715b842195e000159f82b","yj9oj4em5z","Affordance Norms_Prolific",1,28,"2023-01-06T21:42:48+00:00",17.841099023819,95,"updated stim.csv","Version95.csv","Version 95","List 95","munitions",NA,2836,4.80952381,1720,0.175849145,2837,"BOI","-","-","Please name all of the ways you could use this object. Keep in mind that one object can have many uses. Separate your responses with a comma.",NA,"y",16751,NA,NA,-1,-1,NA,NA,NA,"Store",1
"57b715b842195e000159f82b","yj9oj4em5z","Affordance Norms_Prolific",1,29,"2023-01-06T21:43:31+00:00",42.793698072433,95,"updated stim.csv","Version95.csv","Version 95","List 95","cone",NA,2838,4.608695652,625,0.78702333,2839,"BOI","-","-","Please name all of the ways you could use this object. Keep in mind that one object can have many uses. Separate your responses with a comma.",NA,"y",41866,NA,NA,-1,-1,NA,NA,NA,"Mark a hazard, cordon off with, put ice cream in, mark a sports goal",1
"57b715b842195e000159f82b","yj9oj4em5z","Affordance Norms_Prolific",1,30,"2023-01-06T21:44:11+00:00",40.424093008041,95,"updated stim.csv","Version95.csv","Version 95","List 95","farm",NA,2834,5.035714286,946,0.618075518,2835,"BOI","-","-","Please name all of the ways you could use this object. Keep in mind that one object can have many uses. Separate your responses with a comma.",NA,"y",39125,NA,NA,-1,-1,NA,NA,NA,"To keep animals, to grow food, storeage, to visit",1
"57b715b842195e000159f82b","yj9oj4em5z","Affordance Norms_Prolific",1,31,"2023-01-06T21:44:30+00:00",18.530772924423,95,"updated stim.csv","Version95.csv","Version 95","List 95","politician",NA,2831,4.409090909,2024,0.401487238,2832,"BOI","-","-","Please name all of the ways you could use this object. Keep in mind that one object can have many uses. Separate your responses with a comma.",NA,"y",17368,NA,NA,-1,-1,NA,NA,NA,"Listen to, vote for",1
"57b715b842195e000159f82b","yj9oj4em5z","Affordance Norms_Prolific",1,32,"2023-01-06T21:44:43+00:00",12.913458108902,95,"updated stim.csv","Version95.csv","Version 95","List 95","machine",NA,2823,5.791666667,1567,0.139052338,2824,"BOI","-","-","Please name all of the ways you could use this object. Keep in mind that one object can have many uses. Separate your responses with a comma.",NA,"y",12004,NA,NA,-1,-1,NA,NA,NA,"Use to make things",1
"57b715b842195e000159f82b","yj9oj4em5z","Affordance Norms_Prolific",1,33,"2023-01-06T21:45:05+00:00",22.168397903442,95,"updated stim.csv","Version95.csv","Version 95","List 95","pony",NA,2829,5.375,2030,0.00357547,2830,"BOI","-","-","Please name all of the ways you could use this object. Keep in mind that one object can have many uses. Separate your responses with a comma.",NA,"y",21020,NA,NA,-1,-1,NA,NA,NA,"Ride, pat, groom, make friends with",1
"57b715b842195e000159f82b","yj9oj4em5z","Affordance Norms_Prolific",1,34,"2023-01-06T21:45:44+00:00",38.538650035858,95,"updated stim.csv","Version95.csv","Version 95","List 95","guidebook",NA,2822,5.791666667,1191,0.682587012,2823,"BOI","-","-","Please name all of the ways you could use this object. Keep in mind that one object can have many uses. Separate your responses with a comma.",NA,"y",36887,NA,NA,-1,-1,NA,NA,NA,"Read, learn about a place, use to inform you, help you find your way around ",1
"57b715b842195e000159f82b","yj9oj4em5z","Affordance Norms_Prolific",1,35,"2023-01-06T21:45:57+00:00",13.342262983322,95,"updated stim.csv","Version95.csv","Version 95","List 95","bullfrog",NA,2846,4.884615385,355,0.509788133,2847,"BOI","-","-","Please name all of the ways you could use this object. Keep in mind that one object can have many uses. Separate your responses with a comma.",NA,"y",12034,NA,NA,-1,-1,NA,NA,NA,"Watch, listen to",1
"57b715b842195e000159f82b","yj9oj4em5z","Affordance Norms_Prolific",1,36,"2023-01-06T21:46:11+00:00",14.501878976822,95,"updated stim.csv","Version95.csv","Version 95","List 95","cashier",NA,2845,4.888888889,449,0.920953757,2846,"BOI","-","-","Please name all of the ways you could use this object. Keep in mind that one object can have many uses. Separate your responses with a comma.",NA,"y",13299,NA,NA,-1,-1,NA,NA,NA,"Pay",1
"57b715b842195e000159f82b","yj9oj4em5z","Affordance Norms_Prolific",1,37,"2023-01-06T21:46:36+00:00",24.564764022827,95,"updated stim.csv","Version95.csv","Version 95","List 95","farmer",NA,2840,5.08,947,0.307237157,2841,"BOI","-","-","Please name all of the ways you could use this object. Keep in mind that one object can have many uses. Separate your responses with a comma.",NA,"y",23240,NA,NA,-1,-1,NA,NA,NA,"Grow food, drive a tractor",1
"57b715b842195e000159f82b","yj9oj4em5z","Affordance Norms_Prolific",1,38,"2023-01-06T21:46:50+00:00",13.842433929443,95,"updated stim.csv","Version95.csv","Version 95","List 95","custodian",NA,2827,4.481481481,735,0.012794715,2828,"BOI","-","-","Please name all of the ways you could use this object. Keep in mind that one object can have many uses. Separate your responses with a comma.",NA,"y",12974,NA,NA,-1,-1,NA,NA,NA,"Protect something ",1
"57b715b842195e000159f82b","yj9oj4em5z","Affordance Norms_Prolific",1,39,"2023-01-06T21:46:58+00:00",8.2370300292969,95,"updated stim.csv","Version95.csv","Version 95","List 95","corkscrew",NA,2835,6.04,643,0.923622871,2836,"BOI","-","-","Please name all of the ways you could use this object. Keep in mind that one object can have many uses. Separate your responses with a comma.",NA,"y",7450,NA,NA,-1,-1,NA,NA,NA,"Open bottle ",1
"57b715b842195e000159f82b","yj9oj4em5z","Affordance Norms_Prolific",1,40,"2023-01-06T21:47:24+00:00",26.320389032364,95,"updated stim.csv","Version95.csv","Version 95","List 95","streets",NA,2842,4.769230769,2565,0.781954291,2843,"BOI","-","-","Please name all of the ways you could use this object. Keep in mind that one object can have many uses. Separate your responses with a comma.",NA,"y",24994,NA,NA,-1,-1,NA,NA,NA,"Drive along, walk along, get from one place to another ",1
"582ee44408b46b00010dbb07","y2dq51j5ee","Affordance Norms_Prolific",1,11,"2023-01-06T20:50:55+00:00",26.151354789734,92,"updated stim.csv","Version92.csv","Version 92","List 92","smoothie",NA,2741,6.041666667,2423,0.034869801,2742,"BOI","-","-","Please name all of the ways you could use this object. Keep in mind that one object can have many uses. Separate your responses with a comma.",NA,"y",25679,NA,NA,5021,16575,NA,NA,NA,"eat, create, drink",1
"582ee44408b46b00010dbb07","y2dq51j5ee","Affordance Norms_Prolific",1,12,"2023-01-06T20:51:25+00:00",30.136021137238,92,"updated stim.csv","Version92.csv","Version 92","List 92","poker",NA,2745,4.590909091,2019,0.251545465,2746,"BOI","-","-","Please name all of the ways you could use this object. Keep in mind that one object can have many uses. Separate your responses with a comma.",NA,"y",29649,NA,NA,2938,28558,NA,NA,NA,"play, win money, gamble",1
"582ee44408b46b00010dbb07","y2dq51j5ee","Affordance Norms_Prolific",1,13,"2023-01-06T20:51:42+00:00",16.742789030075,92,"updated stim.csv","Version92.csv","Version 92","List 92","teahouse",NA,2737,4.347826087,2645,0.253002246,2738,"BOI","-","-","Please name all of the ways you could use this object. Keep in mind that one object can have many uses. Separate your responses with a comma.",NA,"y",16261,NA,NA,13547,15233,NA,NA,NA,"serve tea ",0.767
"582ee44408b46b00010dbb07","y2dq51j5ee","Affordance Norms_Prolific",1,14,"2023-01-06T20:52:04+00:00",22.046799898148,92,"updated stim.csv","Version92.csv","Version 92","List 92","newsprint",NA,2752,4.260869565,1762,0.324228274,2753,"BOI","-","-","Please name all of the ways you could use this object. Keep in mind that one object can have many uses. Separate your responses with a comma.",NA,"y",21568,NA,NA,3469,9361,NA,NA,NA,"read, roll up, burn",1
"582ee44408b46b00010dbb07","y2dq51j5ee","Affordance Norms_Prolific",1,15,"2023-01-06T20:52:18+00:00",14.148357152939,92,"updated stim.csv","Version92.csv","Version 92","List 92","chestnut",NA,2753,5.555555556,514,0.971745449,2754,"BOI","-","-","Please name all of the ways you could use this object. Keep in mind that one object can have many uses. Separate your responses with a comma.",NA,"y",13659,NA,NA,3475,8717,NA,NA,NA,"eat, use as ingredient",1
"582ee44408b46b00010dbb07","y2dq51j5ee","Affordance Norms_Prolific",1,16,"2023-01-06T20:52:33+00:00",14.962867975235,92,"updated stim.csv","Version92.csv","Version 92","List 92","rawhide",NA,2733,4.541666667,2141,0.992980546,2734,"BOI","-","-","Please name all of the ways you could use this object. Keep in mind that one object can have many uses. Separate your responses with a comma.",NA,"y",14464,NA,NA,12230,13557,NA,NA,NA,"N/A",0.775
"582ee44408b46b00010dbb07","y2dq51j5ee","Affordance Norms_Prolific",1,17,"2023-01-06T20:52:54+00:00",20.945729970932,92,"updated stim.csv","Version92.csv","Version 92","List 92","cannonball",NA,2755,4.304347826,416,0.112743857,2756,"BOI","-","-","Please name all of the ways you could use this object. Keep in mind that one object can have many uses. Separate your responses with a comma.",NA,"y",20426,NA,NA,3210,19155,NA,NA,NA,"destroy with, fire, lift",1
"582ee44408b46b00010dbb07","y2dq51j5ee","Affordance Norms_Prolific",1,18,"2023-01-06T20:53:29+00:00",34.685549020767,92,"updated stim.csv","Version92.csv","Version 92","List 92","spokesman",NA,2734,4.375,2479,0.399647674,2735,"BOI","-","-","Please name all of the ways you could use this object. Keep in mind that one object can have many uses. Separate your responses with a comma.",NA,"y",34205,NA,NA,29298,33411,NA,NA,NA,"watch, listen to",0.704
"582ee44408b46b00010dbb07","y2dq51j5ee","Affordance Norms_Prolific",1,19,"2023-01-06T20:53:47+00:00",18.000351905823,92,"updated stim.csv","Version92.csv","Version 92","List 92","garnets",NA,2751,4.65,1082,0.45457956,2752,"BOI","-","-","Please name all of the ways you could use this object. Keep in mind that one object can have many uses. Separate your responses with a comma.",NA,"y",17517,NA,NA,16234,16646,NA,NA,NA,"wear",0.634
"582ee44408b46b00010dbb07","y2dq51j5ee","Affordance Norms_Prolific",1,20,"2023-01-06T20:54:04+00:00",17.111284971237,92,"updated stim.csv","Version92.csv","Version 92","List 92","tissue",NA,2759,5.72,2707,0.79838115,2760,"BOI","-","-","Please name all of the ways you could use this object. Keep in mind that one object can have many uses. Separate your responses with a comma.",NA,"y",16620,NA,NA,1647,15263,NA,NA,NA,"blow nose, wipe, crumple",1
"582ee44408b46b00010dbb07","y2dq51j5ee","Affordance Norms_Prolific",1,21,"2023-01-06T20:54:19+00:00",15.608711957932,92,"updated stim.csv","Version92.csv","Version 92","List 92","technician",NA,2757,4.56,2655,0.092155041,2758,"BOI","-","-","Please name all of the ways you could use this object. Keep in mind that one object can have many uses. Separate your responses with a comma.",NA,"y",15132,NA,NA,3814,13650,NA,NA,NA,"ask questions, repair things",1
"582ee44408b46b00010dbb07","y2dq51j5ee","Affordance Norms_Prolific",1,22,"2023-01-06T20:54:40+00:00",20.835344076157,92,"updated stim.csv","Version92.csv","Version 92","List 92","wreath",NA,2732,5.461538462,2979,0.545736443,2733,"BOI","-","-","Please name all of the ways you could use this object. Keep in mind that one object can have many uses. Separate your responses with a comma.",NA,"y",20362,NA,NA,2164,3136,NA,NA,NA,"hang",0.908
"582ee44408b46b00010dbb07","y2dq51j5ee","Affordance Norms_Prolific",1,23,"2023-01-06T20:54:55+00:00",14.503382921219,92,"updated stim.csv","Version92.csv","Version 92","List 92","basil",NA,2736,5.916666667,160,0.041453571,2737,"BOI","-","-","Please name all of the ways you could use this object. Keep in mind that one object can have many uses. Separate your responses with a comma.",NA,"y",14036,NA,NA,1874,13098,NA,NA,NA,"cook, chop, dry, eat",1
"582ee44408b46b00010dbb07","y2dq51j5ee","Affordance Norms_Prolific",1,24,"2023-01-06T20:55:31+00:00",36.303349018097,92,"updated stim.csv","Version92.csv","Version 92","List 92","padding",NA,2742,4.925925926,1841,0.414513499,2743,"BOI","-","-","Please name all of the ways you could use this object. Keep in mind that one object can have many uses. Separate your responses with a comma.",NA,"y",35805,NA,NA,28527,34886,NA,NA,NA,"put in walls, jump on",0.781
"582ee44408b46b00010dbb07","y2dq51j5ee","Affordance Norms_Prolific",1,25,"2023-01-06T20:55:44+00:00",13.432895183563,92,"updated stim.csv","Version92.csv","Version 92","List 92","typewriter",NA,2731,5.592592593,2814,0.066843696,2732,"BOI","-","-","Please name all of the ways you could use this object. Keep in mind that one object can have many uses. Separate your responses with a comma.",NA,"y",12946,NA,NA,2487,6888,NA,NA,NA,"write story, type paper",1
"582ee44408b46b00010dbb07","y2dq51j5ee","Affordance Norms_Prolific",1,26,"2023-01-06T20:55:55+00:00",10.300493001938,92,"updated stim.csv","Version92.csv","Version 92","List 92","torso",NA,2739,5.64,2739,0.109305249,2740,"BOI","-","-","Please name all of the ways you could use this object. Keep in mind that one object can have many uses. Separate your responses with a comma.",NA,"y",9791,NA,NA,4045,8177,NA,NA,NA,"move, bend, twist",1
"582ee44408b46b00010dbb07","y2dq51j5ee","Affordance Norms_Prolific",1,27,"2023-01-06T20:56:29+00:00",33.827530860901,92,"updated stim.csv","Version92.csv","Version 92","List 92","screen",NA,2749,5.041666667,2285,0.449651764,2750,"BOI","-","-","Please name all of the ways you could use this object. Keep in mind that one object can have many uses. Separate your responses with a comma.",NA,"y",33344,NA,NA,21652,31401,NA,NA,NA,"look at, read from, touch",0.809
"582ee44408b46b00010dbb07","y2dq51j5ee","Affordance Norms_Prolific",1,28,"2023-01-06T20:57:02+00:00",33.684700965881,92,"updated stim.csv","Version92.csv","Version 92","List 92","groin",NA,2758,5.72,1180,0.249014614,2759,"BOI","-","-","Please name all of the ways you could use this object. Keep in mind that one object can have many uses. Separate your responses with a comma.",NA,"y",33191,NA,NA,17149,32245,NA,NA,NA,"move, thrust, workout",0.912
"582ee44408b46b00010dbb07","y2dq51j5ee","Affordance Norms_Prolific",1,29,"2023-01-06T20:57:18+00:00",15.623625040054,92,"updated stim.csv","Version92.csv","Version 92","List 92","zipper",NA,2740,6.08,2999,0.091808488,2741,"BOI","-","-","Please name all of the ways you could use this object. Keep in mind that one object can have many uses. Separate your responses with a comma.",NA,"y",15139,NA,NA,5270,10059,NA,NA,NA,"zip, unzip",1
"582ee44408b46b00010dbb07","y2dq51j5ee","Affordance Norms_Prolific",1,30,"2023-01-06T20:57:49+00:00",30.736517906189,92,"updated stim.csv","Version92.csv","Version 92","List 92","swing",NA,2748,5.36,2608,0.846479663,2749,"BOI","-","-","Please name all of the ways you could use this object. Keep in mind that one object can have many uses. Separate your responses with a comma.",NA,"y",30254,NA,NA,5712,29002,NA,NA,NA,"have fun, jump off, move",1
"582ee44408b46b00010dbb07","y2dq51j5ee","Affordance Norms_Prolific",1,31,"2023-01-06T20:58:29+00:00",40.087198019028,92,"updated stim.csv","Version92.csv","Version 92","List 92","wife",NA,2746,6.357142857,2934,0.301062412,2747,"BOI","-","-","Please name all of the ways you could use this object. Keep in mind that one object can have many uses. Separate your responses with a comma.",NA,"y",39597,NA,NA,4537,36261,NA,NA,NA,"love, live with, sex",0.979
"582ee44408b46b00010dbb07","y2dq51j5ee","Affordance Norms_Prolific",1,32,"2023-01-06T20:58:43+00:00",14.334452152252,92,"updated stim.csv","Version92.csv","Version 92","List 92","vacuum",NA,2738,5.291666667,2831,0.217079292,2739,"BOI","-","-","Please name all of the ways you could use this object. Keep in mind that one object can have many uses. Separate your responses with a comma.",NA,"y",13852,NA,NA,2717,6326,NA,NA,NA,"clean things, suck up dust",1
"582ee44408b46b00010dbb07","y2dq51j5ee","Affordance Norms_Prolific",1,33,"2023-01-06T20:59:21+00:00",37.64012503624,92,"updated stim.csv","Version92.csv","Version 92","List 92","sweatshirt",NA,2744,6.6,2605,0.206073363,2745,"BOI","-","-","Please name all of the ways you could use this object. Keep in mind that one object can have many uses. Separate your responses with a comma.",NA,"y",37160,NA,NA,30590,35254,NA,NA,NA,"wear, wash, buy",0.603
"582ee44408b46b00010dbb07","y2dq51j5ee","Affordance Norms_Prolific",1,34,"2023-01-06T20:59:42+00:00",21.745975971222,92,"updated stim.csv","Version92.csv","Version 92","List 92","airplane",NA,2750,4.625,22,0.539121628,2751,"BOI","-","-","Please name all of the ways you could use this object. Keep in mind that one object can have many uses. Separate your responses with a comma.",NA,"y",21227,NA,NA,1710,15808,NA,NA,NA,"ride, travel",1
"582ee44408b46b00010dbb07","y2dq51j5ee","Affordance Norms_Prolific",1,35,"2023-01-06T21:00:01+00:00",18.623648881912,92,"updated stim.csv","Version92.csv","Version 92","List 92","sangria",NA,2756,4.863636364,2239,0.271380112,2757,"BOI","-","-","Please name all of the ways you could use this object. Keep in mind that one object can have many uses. Separate your responses with a comma.",NA,"y",18144,NA,NA,11401,17230,NA,NA,NA,"drink, get intoxicated ",0.896
"582ee44408b46b00010dbb07","y2dq51j5ee","Affordance Norms_Prolific",1,36,"2023-01-06T21:00:16+00:00",15.159826993942,92,"updated stim.csv","Version92.csv","Version 92","List 92","cellist",NA,2760,4.869565217,473,0.269429709,2761,"BOI","-","-","Please name all of the ways you could use this object. Keep in mind that one object can have many uses. Separate your responses with a comma.",NA,"y",14675,NA,NA,10097,13609,NA,NA,NA,"listen to, learn from",0.86
"582ee44408b46b00010dbb07","y2dq51j5ee","Affordance Norms_Prolific",1,37,"2023-01-06T21:00:34+00:00",17.311182975769,92,"updated stim.csv","Version92.csv","Version 92","List 92","bill",NA,2735,5.111111111,214,0.182223817,2736,"BOI","-","-","Please name all of the ways you could use this object. Keep in mind that one object can have many uses. Separate your responses with a comma.",NA,"y",16842,NA,NA,3105,15819,NA,NA,NA,"pay, burn, shred ",1
"582ee44408b46b00010dbb07","y2dq51j5ee","Affordance Norms_Prolific",1,38,"2023-01-06T21:00:50+00:00",16.937693119049,92,"updated stim.csv","Version92.csv","Version 92","List 92","mule",NA,2743,4.318181818,1716,0.264178826,2744,"BOI","-","-","Please name all of the ways you could use this object. Keep in mind that one object can have many uses. Separate your responses with a comma.",NA,"y",16436,NA,NA,11661,15482,NA,NA,NA,"pet, ride, watch",0.787
"582ee44408b46b00010dbb07","y2dq51j5ee","Affordance Norms_Prolific",1,39,"2023-01-06T21:01:06+00:00",15.308083057404,92,"updated stim.csv","Version92.csv","Version 92","List 92","workbox",NA,2754,5.454545455,2970,0.23536446,2755,"BOI","-","-","Please name all of the ways you could use this object. Keep in mind that one object can have many uses. Separate your responses with a comma.",NA,"y",14843,NA,NA,13556,13949,NA,NA,NA,"N/A",0.676
"582ee44408b46b00010dbb07","y2dq51j5ee","Affordance Norms_Prolific",1,40,"2023-01-06T21:01:30+00:00",23.834115982056,92,"updated stim.csv","Version92.csv","Version 92","List 92","fruitcake",NA,2747,6,1061,0.894019945,2748,"BOI","-","-","Please name all of the ways you could use this object. Keep in mind that one object can have many uses. Separate your responses with a comma.",NA,"y",23365,NA,NA,1353,22313,NA,NA,NA,"eat, bake, sell, give as present",1
"5873b2d22bd3c90001859b76","pxk8e9vk2z","Affordance Norms_Prolific",1,11,"2023-01-06T21:51:57+00:00",87.215873003006,93,"updated stim.csv","Version93.csv","Version 93","List 93","nursemaid",NA,2767,4.583333333,1787,0.844035795,2768,"BOI","-","-","Please name all of the ways you could use this object. Keep in mind that one object can have many uses. Separate your responses with a comma.",NA,"y",86603,NA,NA,60161,66729,NA,NA,NA,"Look after children",0.527
"5873b2d22bd3c90001859b76","pxk8e9vk2z","Affordance Norms_Prolific",1,12,"2023-01-06T21:52:17+00:00",19.493716001511,93,"updated stim.csv","Version93.csv","Version 93","List 93","coachman",NA,2766,4.739130435,578,0.628925197,2767,"BOI","-","-","Please name all of the ways you could use this object. Keep in mind that one object can have many uses. Separate your responses with a comma.",NA,"y",18820,NA,NA,5355,13218,NA,NA,NA,"Drive a coach",1
"5873b2d22bd3c90001859b76","pxk8e9vk2z","Affordance Norms_Prolific",1,13,"2023-01-06T21:54:13+00:00",116.52764797211,93,"updated stim.csv","Version93.csv","Version 93","List 93","camel",NA,2790,4.52173913,405,0.621591795,2791,"BOI","-","-","Please name all of the ways you could use this object. Keep in mind that one object can have many uses. Separate your responses with a comma.",NA,"y",115748,NA,NA,6232,114002,NA,NA,NA,"transport, carry goods, food, race them",0.694
"5873b2d22bd3c90001859b76","pxk8e9vk2z","Affordance Norms_Prolific",1,14,"2023-01-06T21:56:06+00:00",112.19304800034,93,"updated stim.csv","Version93.csv","Version 93","List 93","wheat",NA,2769,4.88,2920,0.072925797,2770,"BOI","-","-","Please name all of the ways you could use this object. Keep in mind that one object can have many uses. Separate your responses with a comma.",NA,"y",111112,NA,NA,62038,106037,NA,NA,NA,"make flour, make biscuits, make pasta, ",0.432
"5873b2d22bd3c90001859b76","pxk8e9vk2z","Affordance Norms_Prolific",1,15,"2023-01-06T21:57:03+00:00",57.66983795166,93,"updated stim.csv","Version93.csv","Version 93","List 93","greens",NA,2789,4.5,1172,0.210302319,2790,"BOI","-","-","Please name all of the ways you could use this object. Keep in mind that one object can have many uses. Separate your responses with a comma.",NA,"y",57047,NA,NA,32661,54964,NA,NA,NA,"Use as food, use as medicine, feed to animals",0.57
"5873b2d22bd3c90001859b76","pxk8e9vk2z","Affordance Norms_Prolific",1,16,"2023-01-06T21:57:37+00:00",33.389580011368,93,"updated stim.csv","Version93.csv","Version 93","List 93","outfielder",NA,2786,4.6,1827,0.177691203,2787,"BOI","-","-","Please name all of the ways you could use this object. Keep in mind that one object can have many uses. Separate your responses with a comma.",NA,"y",32739,NA,NA,27995,30955,NA,NA,NA,"Play baseball",0.323
"5873b2d22bd3c90001859b76","pxk8e9vk2z","Affordance Norms_Prolific",1,17,"2023-01-06T21:59:35+00:00",118.47490215302,93,"updated stim.csv","Version93.csv","Version 93","List 93","straightedge",NA,2787,4.291666667,2556,0.358005464,2788,"BOI","-","-","Please name all of the ways you could use this object. Keep in mind that one object can have many uses. Separate your responses with a comma.",NA,"y",117841,NA,NA,10258,115849,NA,NA,NA,"Use for precision marking, use to adjust a guitar neck, check for flatness",0.698
"5873b2d22bd3c90001859b76","pxk8e9vk2z","Affordance Norms_Prolific",1,18,"2023-01-06T22:00:46+00:00",70.531118869781,93,"updated stim.csv","Version93.csv","Version 93","List 93","hill",NA,2783,4.535714286,1288,0.689522723,2784,"BOI","-","-","Please name all of the ways you could use this object. Keep in mind that one object can have many uses. Separate your responses with a comma.",NA,"y",69886,NA,NA,14807,67982,NA,NA,NA,"Climb it, mine/quarry it, build on, hang glide from",1
"5873b2d22bd3c90001859b76","pxk8e9vk2z","Affordance Norms_Prolific",1,19,"2023-01-06T22:01:21+00:00",34.884953975677,93,"updated stim.csv","Version93.csv","Version 93","List 93","temple",NA,2773,4.84,2661,0.553441393,2774,"BOI","-","-","Please name all of the ways you could use this object. Keep in mind that one object can have many uses. Separate your responses with a comma.",NA,"y",34248,NA,NA,21685,31637,NA,NA,NA,"Pray in, take shelter in, store things in",0.895
"5873b2d22bd3c90001859b76","pxk8e9vk2z","Affordance Norms_Prolific",1,20,"2023-01-06T22:02:42+00:00",81.300636053085,93,"updated stim.csv","Version93.csv","Version 93","List 93","towel",NA,2762,6.04,2746,0.058323448,2763,"BOI","-","-","Please name all of the ways you could use this object. Keep in mind that one object can have many uses. Separate your responses with a comma.",NA,"y",80629,NA,NA,4476,31308,NA,NA,NA,"Dry yourself, use as a signalling flag, fold and use as a pillow",1
"5873b2d22bd3c90001859b76","pxk8e9vk2z","Affordance Norms_Prolific",1,21,"2023-01-06T22:05:01+00:00",139.14002990723,93,"updated stim.csv","Version93.csv","Version 93","List 93","sod",NA,2770,5.086956522,2441,0.646172781,2771,"BOI","-","-","Please name all of the ways you could use this object. Keep in mind that one object can have many uses. Separate your responses with a comma.",NA,"y",138483,NA,NA,33168,127710,NA,NA,NA,"Make a lawn with, sit on",0.908
"5873b2d22bd3c90001859b76","pxk8e9vk2z","Affordance Norms_Prolific",1,22,"2023-01-06T22:06:55+00:00",113.57459521294,93,"updated stim.csv","Version93.csv","Version 93","List 93","cola",NA,2785,5.565217391,597,0.131079394,2786,"BOI","-","-","Please name all of the ways you could use this object. Keep in mind that one object can have many uses. Separate your responses with a comma.",NA,"y",112904,NA,NA,8429,109132,NA,NA,NA,"Drink it, clean pots with it",0.968
"5873b2d22bd3c90001859b76","pxk8e9vk2z","Affordance Norms_Prolific",1,23,"2023-01-06T22:07:16+00:00",21.819048881531,93,"updated stim.csv","Version93.csv","Version 93","List 93","mantelpiece",NA,2771,4.285714286,1596,0.797736915,2772,"BOI","-","-","Please name all of the ways you could use this object. Keep in mind that one object can have many uses. Separate your responses with a comma.",NA,"y",21144,NA,NA,7917,14804,NA,NA,NA,"Put things on, lean on",1
"5873b2d22bd3c90001859b76","pxk8e9vk2z","Affordance Norms_Prolific",1,24,"2023-01-06T22:09:56+00:00",159.58208394051,93,"updated stim.csv","Version93.csv","Version 93","List 93","ingredient",NA,2764,4.793103448,1354,0.372263056,2765,"BOI","-","-","Please name all of the ways you could use this object. Keep in mind that one object can have many uses. Separate your responses with a comma.",NA,"y",158928,NA,NA,4574,156996,NA,NA,NA,"Create something with it, source it, sell it",1
"5873b2d22bd3c90001859b76","pxk8e9vk2z","Affordance Norms_Prolific",1,25,"2023-01-06T22:10:26+00:00",29.633681058884,93,"updated stim.csv","Version93.csv","Version 93","List 93","rice",NA,2774,6.291666667,2166,0.359336572,2775,"BOI","-","-","Please name all of the ways you could use this object. Keep in mind that one object can have many uses. Separate your responses with a comma.",NA,"y",28985,NA,NA,4237,26926,NA,NA,NA,"Boil it, eat it, absorb moisture with it, throw it at a wedding",1
"5873b2d22bd3c90001859b76","pxk8e9vk2z","Affordance Norms_Prolific",1,26,"2023-01-06T22:11:13+00:00",47.927774906158,93,"updated stim.csv","Version93.csv","Version 93","List 93","rubber",NA,2778,5.304347826,2200,0.165812587,2779,"BOI","-","-","Please name all of the ways you could use this object. Keep in mind that one object can have many uses. Separate your responses with a comma.",NA,"y",47133,NA,NA,4875,42843,NA,NA,NA,"Erase pencil marks, make a tyre, make a ball",1
"5873b2d22bd3c90001859b76","pxk8e9vk2z","Affordance Norms_Prolific",1,27,"2023-01-06T22:11:56+00:00",42.394185066223,93,"updated stim.csv","Version93.csv","Version 93","List 93","mother",NA,2776,5.52,1692,0.979961547,2777,"BOI","-","-","Please name all of the ways you could use this object. Keep in mind that one object can have many uses. Separate your responses with a comma.",NA,"y",41723,NA,NA,26600,40127,NA,NA,NA,"Love and care for, buy gifts for, make proud",1
"5873b2d22bd3c90001859b76","pxk8e9vk2z","Affordance Norms_Prolific",1,28,"2023-01-06T22:12:35+00:00",38.644854068756,93,"updated stim.csv","Version93.csv","Version 93","List 93","handbrake",NA,2784,5.083333333,1232,0.89114556,2785,"BOI","-","-","Please name all of the ways you could use this object. Keep in mind that one object can have many uses. Separate your responses with a comma.",NA,"y",37870,NA,NA,12174,36078,NA,NA,NA,"Use to keep the vehicle stationary, use to turn quickly.",1
"5873b2d22bd3c90001859b76","pxk8e9vk2z","Affordance Norms_Prolific",1,29,"2023-01-06T22:13:01+00:00",26.328173875809,93,"updated stim.csv","Version93.csv","Version 93","List 93","swimsuit",NA,2782,6.08,2607,0.861974765,2783,"BOI","-","-","Please name all of the ways you could use this object. Keep in mind that one object can have many uses. Separate your responses with a comma.",NA,"y",25681,NA,NA,3027,23459,NA,NA,NA,"Wear it, use as a flag",1
"5873b2d22bd3c90001859b76","pxk8e9vk2z","Affordance Norms_Prolific",1,30,"2023-01-06T22:13:47+00:00",46.38071513176,93,"updated stim.csv","Version93.csv","Version 93","List 93","gentleman",NA,2768,4.961538462,1098,0.035893994,2769,"BOI","-","-","Please name all of the ways you could use this object. Keep in mind that one object can have many uses. Separate your responses with a comma.",NA,"y",45712,NA,NA,36943,43886,NA,NA,NA,"Go to the opera with",0.792
"5873b2d22bd3c90001859b76","pxk8e9vk2z","Affordance Norms_Prolific",1,31,"2023-01-06T22:14:09+00:00",21.580896854401,93,"updated stim.csv","Version93.csv","Version 93","List 93","loudspeaker",NA,2763,4.625,1549,0.358408241,2764,"BOI","-","-","Please name all of the ways you could use this object. Keep in mind that one object can have many uses. Separate your responses with a comma.",NA,"y",20891,NA,NA,6877,19038,NA,NA,NA,"Play music, amplify voice",1
"5873b2d22bd3c90001859b76","pxk8e9vk2z","Affordance Norms_Prolific",1,32,"2023-01-06T22:14:23+00:00",13.751443147659,93,"updated stim.csv","Version93.csv","Version 93","List 93","pup",NA,2775,5.44,2101,0.242296263,2776,"BOI","-","-","Please name all of the ways you could use this object. Keep in mind that one object can have many uses. Separate your responses with a comma.",NA,"y",13118,NA,NA,4541,11181,NA,NA,NA,"Train, love, cherish",1
"5873b2d22bd3c90001859b76","pxk8e9vk2z","Affordance Norms_Prolific",1,33,"2023-01-06T22:14:43+00:00",20.271477937698,93,"updated stim.csv","Version93.csv","Version 93","List 93","tomato",NA,2788,6.125,2723,0.029859341,2789,"BOI","-","-","Please name all of the ways you could use this object. Keep in mind that one object can have many uses. Separate your responses with a comma.",NA,"y",19632,NA,NA,4157,13581,NA,NA,NA,"Throw, eat, puree",1
"5873b2d22bd3c90001859b76","pxk8e9vk2z","Affordance Norms_Prolific",1,34,"2023-01-06T22:15:12+00:00",29.230221986771,93,"updated stim.csv","Version93.csv","Version 93","List 93","stationmaster",NA,2779,4.739130435,2512,0.417345748,2780,"BOI","-","-","Please name all of the ways you could use this object. Keep in mind that one object can have many uses. Separate your responses with a comma.",NA,"y",28599,NA,NA,20503,26811,NA,NA,NA,"Use to look after a station",1
"5873b2d22bd3c90001859b76","pxk8e9vk2z","Affordance Norms_Prolific",1,35,"2023-01-06T22:15:25+00:00",12.863712072372,93,"updated stim.csv","Version93.csv","Version 93","List 93","aircraftsman",NA,2780,4.52,20,0.824283724,2781,"BOI","-","-","Please name all of the ways you could use this object. Keep in mind that one object can have many uses. Separate your responses with a comma.",NA,"y",12177,NA,NA,7000,10680,NA,NA,NA,"Use to fly a plane",1
"5873b2d22bd3c90001859b76","pxk8e9vk2z","Affordance Norms_Prolific",1,36,"2023-01-06T22:15:43+00:00",17.981397867203,93,"updated stim.csv","Version93.csv","Version 93","List 93","sea",NA,2777,4.653846154,2294,0.449252885,2778,"BOI","-","-","Please name all of the ways you could use this object. Keep in mind that one object can have many uses. Separate your responses with a comma.",NA,"y",17342,NA,NA,5254,15270,NA,NA,NA,"Swim in, sail on",1
"5873b2d22bd3c90001859b76","pxk8e9vk2z","Affordance Norms_Prolific",1,37,"2023-01-06T22:16:03+00:00",20.472128152847,93,"updated stim.csv","Version93.csv","Version 93","List 93","bullfighter",NA,2761,4.6,354,0.794000765,2762,"BOI","-","-","Please name all of the ways you could use this object. Keep in mind that one object can have many uses. Separate your responses with a comma.",NA,"y",19849,NA,NA,5836,17508,NA,NA,NA,"Do terrible things to a bull with, get gored",1
"5873b2d22bd3c90001859b76","pxk8e9vk2z","Affordance Norms_Prolific",1,38,"2023-01-06T22:16:28+00:00",25.075181007385,93,"updated stim.csv","Version93.csv","Version 93","List 93","cucumber",NA,2765,6.04,723,0.187883887,2766,"BOI","-","-","Please name all of the ways you could use this object. Keep in mind that one object can have many uses. Separate your responses with a comma.",NA,"y",24444,NA,NA,4345,18600,NA,NA,NA,"Eat it, throw it",1
"5873b2d22bd3c90001859b76","pxk8e9vk2z","Affordance Norms_Prolific",1,39,"2023-01-06T22:16:49+00:00",20.351754903793,93,"updated stim.csv","Version93.csv","Version 93","List 93","pulp",NA,2772,5.208333333,2094,0.568065633,2773,"BOI","-","-","Please name all of the ways you could use this object. Keep in mind that one object can have many uses. Separate your responses with a comma.",NA,"y",19710,NA,NA,3316,17356,NA,NA,NA,"Make paper with, make models with",1
"5873b2d22bd3c90001859b76","pxk8e9vk2z","Affordance Norms_Prolific",1,40,"2023-01-06T22:17:14+00:00",25.610825061798,93,"updated stim.csv","Version93.csv","Version 93","List 93","protester",NA,2781,4.8,2081,0.243802555,2782,"BOI","-","-","Please name all of the ways you could use this object. Keep in mind that one object can have many uses. Separate your responses with a comma.",NA,"y",24949,NA,NA,7030,22926,NA,NA,NA,"Used to make a point, kettle them if you are the police",1
"5878fafb460cb500018407e4","n252caddqp","Affordance Norms_Prolific",1,11,"2023-01-06T19:53:55+00:00",27.980490207672,88,"updated stim.csv","Version88.csv","Version 88","List 88","donkey",NA,2635,4.826086957,820,0.853493036,2636,"BOI","-","-","Please name all of the ways you could use this object. Keep in mind that one object can have many uses. Separate your responses with a comma.",NA,"y",27085,NA,NA,2348,26070,NA,NA,NA,"Riding, keeping, feeding, pin the tail on, stroking, petting, keeping, selling, ",1
"5878fafb460cb500018407e4","n252caddqp","Affordance Norms_Prolific",1,12,"2023-01-06T19:54:08+00:00",12.44591999054,88,"updated stim.csv","Version88.csv","Version 88","List 88","crossbar",NA,2616,5.043478261,704,0.121929154,2617,"BOI","-","-","Please name all of the ways you could use this object. Keep in mind that one object can have many uses. Separate your responses with a comma.",NA,"y",11449,NA,NA,3379,7747,NA,NA,NA,"Pull ups, ",1
"5878fafb460cb500018407e4","n252caddqp","Affordance Norms_Prolific",1,13,"2023-01-06T19:54:37+00:00",29.858168840408,88,"updated stim.csv","Version88.csv","Version 88","List 88","treat",NA,2634,4.791666667,2771,0.682839002,2635,"BOI","-","-","Please name all of the ways you could use this object. Keep in mind that one object can have many uses. Separate your responses with a comma.",NA,"y",29088,NA,NA,2630,28414,NA,NA,NA,"Eating, giving, receiving, gifting, indulging, liking, loving, experiencing ",1
"5878fafb460cb500018407e4","n252caddqp","Affordance Norms_Prolific",1,14,"2023-01-06T19:55:12+00:00",34.555588960648,88,"updated stim.csv","Version88.csv","Version 88","List 88","scooter",NA,2637,5.913043478,2278,0.01333775,2638,"BOI","-","-","Please name all of the ways you could use this object. Keep in mind that one object can have many uses. Separate your responses with a comma.",NA,"y",33858,NA,NA,1912,33017,NA,NA,NA,"Riding, parking, commuting, travelling, buying, trading, selling, gifting, giving",1
"5878fafb460cb500018407e4","n252caddqp","Affordance Norms_Prolific",1,15,"2023-01-06T19:55:32+00:00",20.285120010376,88,"updated stim.csv","Version88.csv","Version 88","List 88","kumquat",NA,2618,5.619047619,1441,0.215163503,2619,"BOI","-","-","Please name all of the ways you could use this object. Keep in mind that one object can have many uses. Separate your responses with a comma.",NA,"y",19635,NA,NA,2047,18304,NA,NA,NA,"Eating, buying, preparing, cutting, dicing, peeling ",1
"5878fafb460cb500018407e4","n252caddqp","Affordance Norms_Prolific",1,16,"2023-01-06T19:56:08+00:00",36.122368097305,88,"updated stim.csv","Version88.csv","Version 88","List 88","committeewoman",NA,2633,4.857142857,609,0.736817874,2634,"BOI","-","-","Please name all of the ways you could use this object. Keep in mind that one object can have many uses. Separate your responses with a comma.",NA,"y",35466,NA,NA,3924,34141,NA,NA,NA,"Talking to, writing to, listening to ",1
"5878fafb460cb500018407e4","n252caddqp","Affordance Norms_Prolific",1,17,"2023-01-06T19:56:30+00:00",21.882499933243,88,"updated stim.csv","Version88.csv","Version 88","List 88","youngster",NA,2621,5,2997,0.833914502,2622,"BOI","-","-","Please name all of the ways you could use this object. Keep in mind that one object can have many uses. Separate your responses with a comma.",NA,"y",21118,NA,NA,2213,20221,NA,NA,NA,"Playing, learning, talking, growing",1
"5878fafb460cb500018407e4","n252caddqp","Affordance Norms_Prolific",1,18,"2023-01-06T19:57:16+00:00",46.186475992203,88,"updated stim.csv","Version88.csv","Version 88","List 88","scanner",NA,2636,5.444444444,2264,0.460591208,2637,"BOI","-","-","Please name all of the ways you could use this object. Keep in mind that one object can have many uses. Separate your responses with a comma.",NA,"y",45569,NA,NA,3109,44437,NA,NA,NA,"Copying, scanning, ticketing, storing, printing",1
"5878fafb460cb500018407e4","n252caddqp","Affordance Norms_Prolific",1,19,"2023-01-06T19:58:15+00:00",58.959186077118,88,"updated stim.csv","Version88.csv","Version 88","List 88","paintbrush",NA,2630,5.56,1849,0.345509359,2631,"BOI","-","-","Please name all of the ways you could use this object. Keep in mind that one object can have many uses. Separate your responses with a comma.",NA,"y",58308,NA,NA,33726,54456,NA,NA,NA,"Painting, stroking, buying, dipping, brushing, playing",1
"5878fafb460cb500018407e4","n252caddqp","Affordance Norms_Prolific",1,20,"2023-01-06T19:58:55+00:00",39.672892093658,88,"updated stim.csv","Version88.csv","Version 88","List 88","bus",NA,2613,5.192307692,368,0.37966991,2614,"BOI","-","-","Please name all of the ways you could use this object. Keep in mind that one object can have many uses. Separate your responses with a comma.",NA,"y",39037,NA,NA,2266,38224,NA,NA,NA,"Getting on, getting off, riding, travelling, cleaning, filling, fueling, driving, steering ",1
"5878fafb460cb500018407e4","n252caddqp","Affordance Norms_Prolific",1,21,"2023-01-06T19:59:15+00:00",19.597595930099,88,"updated stim.csv","Version88.csv","Version 88","List 88","garment",NA,2632,5.826086957,1081,0.76823873,2633,"BOI","-","-","Please name all of the ways you could use this object. Keep in mind that one object can have many uses. Separate your responses with a comma.",NA,"y",18911,NA,NA,1778,17705,NA,NA,NA,"Wearing, buying, cleaning, drying, selling ",1
"5878fafb460cb500018407e4","n252caddqp","Affordance Norms_Prolific",1,22,"2023-01-06T19:59:34+00:00",19.074891090393,88,"updated stim.csv","Version88.csv","Version 88","List 88","protractor",NA,2614,5.434782609,2082,0.074911109,2615,"BOI","-","-","Please name all of the ways you could use this object. Keep in mind that one object can have many uses. Separate your responses with a comma.",NA,"y",18444,NA,NA,4228,10445,NA,NA,NA,"Drawing, measuring, storing, ",1
"5878fafb460cb500018407e4","n252caddqp","Affordance Norms_Prolific",1,23,"2023-01-06T19:59:50+00:00",16.733876943588,88,"updated stim.csv","Version88.csv","Version 88","List 88","ukulele",NA,2628,5.782608696,2815,0.608619173,2629,"BOI","-","-","Please name all of the ways you could use this object. Keep in mind that one object can have many uses. Separate your responses with a comma.",NA,"y",16093,NA,NA,1796,15022,NA,NA,NA,"Playing, buying, trading, selling",1
"5878fafb460cb500018407e4","n252caddqp","Affordance Norms_Prolific",1,24,"2023-01-06T20:00:04+00:00",13.521211862564,88,"updated stim.csv","Version88.csv","Version 88","List 88","balloonist",NA,2639,4.275862069,131,0.761714768,2640,"BOI","-","-","Please name all of the ways you could use this object. Keep in mind that one object can have many uses. Separate your responses with a comma.",NA,"y",12916,NA,NA,3396,11889,NA,NA,NA,"Playing, paying, creating ",1
"5878fafb460cb500018407e4","n252caddqp","Affordance Norms_Prolific",1,25,"2023-01-06T20:00:15+00:00",11.046323060989,88,"updated stim.csv","Version88.csv","Version 88","List 88","crib",NA,2631,5.56,694,0.322740091,2632,"BOI","-","-","Please name all of the ways you could use this object. Keep in mind that one object can have many uses. Separate your responses with a comma.",NA,"y",10460,NA,NA,1816,9290,NA,NA,NA,"Sleeping, building, buying, painting",1
"5878fafb460cb500018407e4","n252caddqp","Affordance Norms_Prolific",1,26,"2023-01-06T20:00:29+00:00",13.931841135025,88,"updated stim.csv","Version88.csv","Version 88","List 88","fertilizer",NA,2615,5.217391304,967,0.884941942,2616,"BOI","-","-","Please name all of the ways you could use this object. Keep in mind that one object can have many uses. Separate your responses with a comma.",NA,"y",13344,NA,NA,1826,10581,NA,NA,NA,"Spreading, buying, storing, making, ",1
"5878fafb460cb500018407e4","n252caddqp","Affordance Norms_Prolific",1,27,"2023-01-06T20:00:42+00:00",13.260011911392,88,"updated stim.csv","Version88.csv","Version 88","List 88","Sailboat",NA,2626,5.266216216,2216,0.378978462,2627,"BOI","-","-","Please name all of the ways you could use this object. Keep in mind that one object can have many uses. Separate your responses with a comma.",NA,"y",12677,NA,NA,1848,11729,NA,NA,NA,"Sailing, mooring, parking, buying, selling ",1
"5878fafb460cb500018407e4","n252caddqp","Affordance Norms_Prolific",1,28,"2023-01-06T20:01:08+00:00",25.811409950256,88,"updated stim.csv","Version88.csv","Version 88","List 88","bedclothes",NA,2617,5.708333333,185,0.51555088,2618,"BOI","-","-","Please name all of the ways you could use this object. Keep in mind that one object can have many uses. Separate your responses with a comma.",NA,"y",25222,NA,NA,2636,24078,NA,NA,NA,"Ironing, drying, cleaning, washing, sleeping, making, changing ",1
"5878fafb460cb500018407e4","n252caddqp","Affordance Norms_Prolific",1,29,"2023-01-06T20:01:57+00:00",49.435783147812,88,"updated stim.csv","Version88.csv","Version 88","List 88","cornmeal",NA,2619,5.913043478,649,0.10529369,2620,"BOI","-","-","Please name all of the ways you could use this object. Keep in mind that one object can have many uses. Separate your responses with a comma.",NA,"y",48806,NA,NA,1866,47704,NA,NA,NA,"Eating, sieving, serving, preparing, making",1
"5878fafb460cb500018407e4","n252caddqp","Affordance Norms_Prolific",1,30,"2023-01-06T20:02:43+00:00",45.439133882523,88,"updated stim.csv","Version88.csv","Version 88","List 88","wiper",NA,2622,5.125,2951,0.03276562,2623,"BOI","-","-","Please name all of the ways you could use this object. Keep in mind that one object can have many uses. Separate your responses with a comma.",NA,"y",44687,NA,NA,2078,40893,NA,NA,NA,"Wiping",1
"5878fafb460cb500018407e4","n252caddqp","Affordance Norms_Prolific",1,31,"2023-01-06T20:02:54+00:00",10.649749040604,88,"updated stim.csv","Version88.csv","Version 88","List 88","bran",NA,2640,4.407407407,302,0.51057485,2641,"BOI","-","-","Please name all of the ways you could use this object. Keep in mind that one object can have many uses. Separate your responses with a comma.",NA,"y",9938,NA,NA,2414,8042,NA,NA,NA,"Eating, making, storing, ",1
"5878fafb460cb500018407e4","n252caddqp","Affordance Norms_Prolific",1,32,"2023-01-06T20:03:23+00:00",29.3527739048,88,"updated stim.csv","Version88.csv","Version 88","List 88","attendant",NA,2629,5.083333333,94,0.096814429,2630,"BOI","-","-","Please name all of the ways you could use this object. Keep in mind that one object can have many uses. Separate your responses with a comma.",NA,"y",28752,NA,NA,2611,27405,NA,NA,NA,"Attending, paying, servicing, taking, talking",1
"5878fafb460cb500018407e4","n252caddqp","Affordance Norms_Prolific",1,33,"2023-01-06T20:03:43+00:00",20.208251953125,88,"updated stim.csv","Version88.csv","Version 88","List 88","breakfast",NA,2624,6.173913043,311,0.358706903,2625,"BOI","-","-","Please name all of the ways you could use this object. Keep in mind that one object can have many uses. Separate your responses with a comma.",NA,"y",19609,NA,NA,2218,18574,NA,NA,NA,"Eating, making, preparing, serving, clearing",1
"5878fafb460cb500018407e4","n252caddqp","Affordance Norms_Prolific",1,34,"2023-01-06T20:04:06+00:00",23.141155004501,88,"updated stim.csv","Version88.csv","Version 88","List 88","skirt",NA,2638,6.041666667,2400,0.253802164,2639,"BOI","-","-","Please name all of the ways you could use this object. Keep in mind that one object can have many uses. Separate your responses with a comma.",NA,"y",22405,NA,NA,1916,21261,NA,NA,NA,"Wearing, buying, ironing, washing, cleaning, laundering, pleating, making, ",1
"5878fafb460cb500018407e4","n252caddqp","Affordance Norms_Prolific",1,35,"2023-01-06T20:05:28+00:00",81.800363063812,88,"updated stim.csv","Version88.csv","Version 88","List 88","me",NA,2627,5.708333333,1630,0.946275802,2628,"BOI","-","-","Please name all of the ways you could use this object. Keep in mind that one object can have many uses. Separate your responses with a comma.",NA,"y",81198,NA,NA,15186,78772,NA,NA,NA,"Talking, sleeping, eating, working, listening, playing, performing, socialising, dancing, partying, jumping, riding, bending, stretching, swimming, running, walking, photographing, watching, listening, reading",1
"5878fafb460cb500018407e4","n252caddqp","Affordance Norms_Prolific",1,36,"2023-01-06T20:05:44+00:00",16.431220054626,88,"updated stim.csv","Version88.csv","Version 88","List 88","spout",NA,2623,5,2485,0.577206203,2624,"BOI","-","-","Please name all of the ways you could use this object. Keep in mind that one object can have many uses. Separate your responses with a comma.",NA,"y",15763,NA,NA,3385,14823,NA,NA,NA,"Pouring, cleaning, washing",1
"5878fafb460cb500018407e4","n252caddqp","Affordance Norms_Prolific",1,37,"2023-01-06T20:06:21+00:00",36.462766885757,88,"updated stim.csv","Version88.csv","Version 88","List 88","stenographer",NA,2625,4.625,2521,0.505996283,2626,"BOI","-","-","Please name all of the ways you could use this object. Keep in mind that one object can have many uses. Separate your responses with a comma.",NA,"y",35789,NA,NA,7970,35014,NA,NA,NA,"Paying, talking, writing, transcribing ",0.967
"5878fafb460cb500018407e4","n252caddqp","Affordance Norms_Prolific",1,38,"2023-01-06T20:06:42+00:00",20.651394128799,88,"updated stim.csv","Version88.csv","Version 88","List 88","grandfather",NA,2611,5.833333333,1147,0.072981745,2612,"BOI","-","-","Please name all of the ways you could use this object. Keep in mind that one object can have many uses. Separate your responses with a comma.",NA,"y",19868,NA,NA,3870,18525,NA,NA,NA,"Clock, playing, snoring, eating, sleeping ",1
"5878fafb460cb500018407e4","n252caddqp","Affordance Norms_Prolific",1,39,"2023-01-06T20:07:19+00:00",37.129734992981,88,"updated stim.csv","Version88.csv","Version 88","List 88","supermarket",NA,2612,4.869565217,2590,0.052789154,2613,"BOI","-","-","Please name all of the ways you could use this object. Keep in mind that one object can have many uses. Separate your responses with a comma.",NA,"y",36487,NA,NA,10926,35657,NA,NA,NA,"Buying, attending, going, shopping, paying, trading, parking",1
"5878fafb460cb500018407e4","n252caddqp","Affordance Norms_Prolific",1,40,"2023-01-06T20:07:39+00:00",20.047596931458,88,"updated stim.csv","Version88.csv","Version 88","List 88","uniform",NA,2620,5.666666667,2826,0.141324145,2621,"BOI","-","-","Please name all of the ways you could use this object. Keep in mind that one object can have many uses. Separate your responses with a comma.",NA,"y",19412,NA,NA,1904,16677,NA,NA,NA,"Wearing, washing, buying, ironjng",1
"58d0632c2fc72000011f8c57","3k3nfvlzd6","Affordance Norms_Prolific",1,11,"2023-01-06T21:43:26+00:00",71.547434091568,88,"updated stim.csv","Version88.csv","Version 88","List 88","kumquat",NA,2618,5.619047619,1441,0.215163503,2619,"BOI","-","-","Please name all of the ways you could use this object. Keep in mind that one object can have many uses. Separate your responses with a comma.",NA,"y",70768,NA,NA,6523,67298,NA,NA,NA,"food, juggling ball, throwing game, planting seeds",1
"58d0632c2fc72000011f8c57","3k3nfvlzd6","Affordance Norms_Prolific",1,12,"2023-01-06T21:45:22+00:00",116.51460003853,88,"updated stim.csv","Version88.csv","Version 88","List 88","me",NA,2627,5.708333333,1630,0.946275802,2628,"BOI","-","-","Please name all of the ways you could use this object. Keep in mind that one object can have many uses. Separate your responses with a comma.",NA,"y",115707,NA,NA,9449,113547,NA,NA,NA,"put myself to work, earn money, play sport, be friendly, help other people, sing, play piano",1
"58d0632c2fc72000011f8c57","3k3nfvlzd6","Affordance Norms_Prolific",1,13,"2023-01-06T21:47:14+00:00",111.93646597862,88,"updated stim.csv","Version88.csv","Version 88","List 88","balloonist",NA,2639,4.275862069,131,0.761714768,2640,"BOI","-","-","Please name all of the ways you could use this object. Keep in mind that one object can have many uses. Separate your responses with a comma.",NA,"y",111156,NA,NA,31708,105090,NA,NA,NA,"hitch a ride, learn about balloons, start a business",1
"58d0632c2fc72000011f8c57","3k3nfvlzd6","Affordance Norms_Prolific",1,14,"2023-01-06T21:49:06+00:00",111.26464796066,88,"updated stim.csv","Version88.csv","Version 88","List 88","breakfast",NA,2624,6.173913043,311,0.358706903,2625,"BOI","-","-","Please name all of the ways you could use this object. Keep in mind that one object can have many uses. Separate your responses with a comma.",NA,"y",110449,NA,NA,12730,107711,NA,NA,NA,"fuel for energy, feed someone who is hungry, as a pleasurable experience, put leftovers in compost",1
"58d0632c2fc72000011f8c57","3k3nfvlzd6","Affordance Norms_Prolific",1,15,"2023-01-06T21:50:28+00:00",82.318284034729,88,"updated stim.csv","Version88.csv","Version 88","List 88","scooter",NA,2637,5.913043478,2278,0.01333775,2638,"BOI","-","-","Please name all of the ways you could use this object. Keep in mind that one object can have many uses. Separate your responses with a comma.",NA,"y",81534,NA,NA,3645,76814,NA,NA,NA,"get to work, go shopping, take part in race, run a slalom, carry a load",1
"58d0632c2fc72000011f8c57","3k3nfvlzd6","Affordance Norms_Prolific",1,16,"2023-01-06T21:52:34+00:00",126.41076183319,88,"updated stim.csv","Version88.csv","Version 88","List 88","cornmeal",NA,2619,5.913043478,649,0.10529369,2620,"BOI","-","-","Please name all of the ways you could use this object. Keep in mind that one object can have many uses. Separate your responses with a comma.",NA,"y",125549,NA,NA,5031,123863,NA,NA,NA,"thicken a sauce, use as face powder, a flour bomb, make cornbread, dust for fingerprints",1
"58d0632c2fc72000011f8c57","3k3nfvlzd6","Affordance Norms_Prolific",1,17,"2023-01-06T21:54:04+00:00",89.567249059677,88,"updated stim.csv","Version88.csv","Version 88","List 88","Sailboat",NA,2626,5.266216216,2216,0.378978462,2627,"BOI","-","-","Please name all of the ways you could use this object. Keep in mind that one object can have many uses. Separate your responses with a comma.",NA,"y",88446,NA,NA,15439,86190,NA,NA,NA,"make a journey, live in, sunbathe on, sell, fish from, rent out",1
