"Username","ID","ExperimentName","Session","Trial","Date","TimeDif","Condition.Number","Stimuli.File","Order.File","Condition.Description","Condition.Notes","Stimuli.Cue","Stimuli.Answer","Stimuli.Shuffle","Stimuli.Stimuli.Notes","Stimuli.Value","Stimuli.Rand","Procedure.Item","Procedure.Trial.Type","Procedure.Max.Time","Procedure.Min.Time","Procedure.Text","Procedure.Procedure.Notes","Procedure.Shuffle","Response.RT","Response.Response","Response.Accuracy","Response.RTfirst","Response.RTlast","Response.strictAcc","Response.lenientAcc","Response.focus","Response.JOL","Response.Focus"
"55cf5cc434e9060005e56c39","jjsq5dru78","Affordance Norms_Prolific",1,11,"2023-07-25T14:50:57+00:00",21.854553937912,1,"updated stim.csv","Version1.csv","Version 1","List 1","capacitor",NA,3,5.76,1666,0.330502966,4,"BOI","-","-","Please name all of the ways you could use this object. Keep in mind that one object can have many uses. Separate your responses with a comma.",NA,"y",21600,NA,NA,6183,19758,NA,NA,NA,"use in electrical things,",1
"55cf5cc434e9060005e56c39","jjsq5dru78","Affordance Norms_Prolific",1,12,"2023-07-25T14:51:25+00:00",27.504171133041,1,"updated stim.csv","Version1.csv","Version 1","List 1","juror",NA,17,5.481481481,1600,0.476399064,18,"BOI","-","-","Please name all of the ways you could use this object. Keep in mind that one object can have many uses. Separate your responses with a comma.",NA,"y",25124,NA,NA,5228,15362,NA,NA,NA,"watch trial, give verdict, interview, ",1
"55cf5cc434e9060005e56c39","jjsq5dru78","Affordance Norms_Prolific",1,13,"2023-07-25T14:51:58+00:00",33.361397981644,1,"updated stim.csv","Version1.csv","Version 1","List 1","tar",NA,11,5.92,2708,0.629763414,12,"BOI","-","-","Please name all of the ways you could use this object. Keep in mind that one object can have many uses. Separate your responses with a comma.",NA,"y",33068,NA,NA,4610,31625,NA,NA,NA,"street repair, tar baby, roofing, adhesive, decoration,",1
"55cf5cc434e9060005e56c39","jjsq5dru78","Affordance Norms_Prolific",1,14,"2023-07-25T14:52:18+00:00",19.551363945007,1,"updated stim.csv","Version1.csv","Version 1","List 1","kumquat",NA,1,4.538461538,764,0.261476603,2,"BOI","-","-","Please name all of the ways you could use this object. Keep in mind that one object can have many uses. Separate your responses with a comma.",NA,"y",19236,NA,NA,2268,17474,NA,NA,NA,"eat, grow, display, paint a picture of, photograph,",1
"55cf5cc434e9060005e56c39","jjsq5dru78","Affordance Norms_Prolific",1,15,"2023-07-25T14:52:42+00:00",24.078042984009,1,"updated stim.csv","Version1.csv","Version 1","List 1","hookah",NA,2,6.416666667,2301,0.945985105,3,"BOI","-","-","Please name all of the ways you could use this object. Keep in mind that one object can have many uses. Separate your responses with a comma.",NA,"y",23817,NA,NA,1936,22463,NA,NA,NA,"smoke with, display, photograph it,",1
"55cf5cc434e9060005e56c39","jjsq5dru78","Affordance Norms_Prolific",1,16,"2023-07-25T14:53:23+00:00",40.741868972778,1,"updated stim.csv","Version1.csv","Version 1","List 1","munitions",NA,9,4.875,2448,0.423270691,10,"BOI","-","-","Please name all of the ways you could use this object. Keep in mind that one object can have many uses. Separate your responses with a comma.",NA,"y",40438,NA,NA,8149,39220,NA,NA,NA,"use in war, store, categorize them,",1
"55cf5cc434e9060005e56c39","jjsq5dru78","Affordance Norms_Prolific",1,17,"2023-07-25T14:53:58+00:00",35.783167123795,1,"updated stim.csv","Version1.csv","Version 1","List 1","asshole",NA,29,5.88,1967,0.018459114,30,"BOI","-","-","Please name all of the ways you could use this object. Keep in mind that one object can have many uses. Separate your responses with a comma.",NA,"y",35457,NA,NA,30121,31703,NA,NA,NA,"defecate,",1
"55cf5cc434e9060005e56c39","jjsq5dru78","Affordance Norms_Prolific",1,18,"2023-07-25T14:54:17+00:00",18.373085021973,1,"updated stim.csv","Version1.csv","Version 1","List 1","gasket",NA,4,5.416666667,1464,0.391267155,5,"BOI","-","-","Please name all of the ways you could use this object. Keep in mind that one object can have many uses. Separate your responses with a comma.",NA,"y",18121,NA,NA,4808,16320,NA,NA,NA,"auto repair, mechanical items, ",1
"55cf5cc434e9060005e56c39","jjsq5dru78","Affordance Norms_Prolific",1,19,"2023-07-25T14:54:45+00:00",27.870365858078,1,"updated stim.csv","Version1.csv","Version 1","List 1","fauna",NA,25,4.333333333,252,0.347548191,26,"BOI","-","-","Please name all of the ways you could use this object. Keep in mind that one object can have many uses. Separate your responses with a comma.",NA,"y",25748,NA,NA,5820,24138,NA,NA,NA,"watch, kill, eat, keep as pet, admire, study",1
"55cf5cc434e9060005e56c39","jjsq5dru78","Affordance Norms_Prolific",1,20,"2023-07-25T14:55:10+00:00",25.274444103241,1,"updated stim.csv","Version1.csv","Version 1","List 1","spool",NA,30,5.64,2491,0.148115672,31,"BOI","-","-","Please name all of the ways you could use this object. Keep in mind that one object can have many uses. Separate your responses with a comma.",NA,"y",25017,NA,NA,8258,22768,NA,NA,NA,"store thread, store wire, mechanical object,",1
"55cf5cc434e9060005e56c39","jjsq5dru78","Affordance Norms_Prolific",1,21,"2023-07-25T14:55:27+00:00",17.038568019867,1,"updated stim.csv","Version1.csv","Version 1","List 1","tapioca",NA,18,4.666666667,1815,0.413937663,19,"BOI","-","-","Please name all of the ways you could use this object. Keep in mind that one object can have many uses. Separate your responses with a comma.",NA,"y",16747,NA,NA,1804,14538,NA,NA,NA,"eat, cook, grow, drink,",1
"55cf5cc434e9060005e56c39","jjsq5dru78","Affordance Norms_Prolific",1,22,"2023-07-25T14:55:50+00:00",22.788296937943,1,"updated stim.csv","Version1.csv","Version 1","List 1","jaguar",NA,12,5.777777778,2235,0.168486135,13,"BOI","-","-","Please name all of the ways you could use this object. Keep in mind that one object can have many uses. Separate your responses with a comma.",NA,"y",22530,NA,NA,3313,14072,NA,NA,NA,"watch, study, photograph, kill,",1
"55cf5cc434e9060005e56c39","jjsq5dru78","Affordance Norms_Prolific",1,23,"2023-07-25T14:56:06+00:00",15.930227994919,1,"updated stim.csv","Version1.csv","Version 1","List 1","waistcoat",NA,19,5.227272727,1241,0.629851612,20,"BOI","-","-","Please name all of the ways you could use this object. Keep in mind that one object can have many uses. Separate your responses with a comma.",NA,"y",15624,NA,NA,2287,12806,NA,NA,NA,"wear, sew, store,",1
"55cf5cc434e9060005e56c39","jjsq5dru78","Affordance Norms_Prolific",1,24,"2023-07-25T14:56:23+00:00",16.855998039246,1,"updated stim.csv","Version1.csv","Version 1","List 1","dipstick",NA,22,4.826086957,1618,0.113902737,23,"BOI","-","-","Please name all of the ways you could use this object. Keep in mind that one object can have many uses. Separate your responses with a comma.",NA,"y",16563,NA,NA,6018,14753,NA,NA,NA,"change oil in car, measure liquid,",1
"55cf5cc434e9060005e56c39","jjsq5dru78","Affordance Norms_Prolific",1,25,"2023-07-25T14:56:46+00:00",23.403421878815,1,"updated stim.csv","Version1.csv","Version 1","List 1","gourd",NA,20,5.458333333,2953,0.249710528,21,"BOI","-","-","Please name all of the ways you could use this object. Keep in mind that one object can have many uses. Separate your responses with a comma.",NA,"y",23104,NA,NA,4487,21766,NA,NA,NA,"rattle, food, cup, decoration, doll head,",1
"55cf5cc434e9060005e56c39","jjsq5dru78","Affordance Norms_Prolific",1,26,"2023-07-25T14:57:08+00:00",21.619579076767,1,"updated stim.csv","Version1.csv","Version 1","List 1","crossbar",NA,8,5.454545455,1935,0.125396232,9,"BOI","-","-","Please name all of the ways you could use this object. Keep in mind that one object can have many uses. Separate your responses with a comma.",NA,"y",21322,NA,NA,11139,19361,NA,NA,NA,"make mechanical things, build things,",1
"55cf5cc434e9060005e56c39","jjsq5dru78","Affordance Norms_Prolific",1,27,"2023-07-25T14:57:30+00:00",22.414551973343,1,"updated stim.csv","Version1.csv","Version 1","List 1","decor",NA,24,5.347826087,469,0.48837589,25,"BOI","-","-","Please name all of the ways you could use this object. Keep in mind that one object can have many uses. Separate your responses with a comma.",NA,"y",22109,NA,NA,7677,20611,NA,NA,NA,"create, photograph, display, study,",1
"55cf5cc434e9060005e56c39","jjsq5dru78","Affordance Norms_Prolific",1,28,"2023-07-25T14:57:52+00:00",21.615167140961,1,"updated stim.csv","Version1.csv","Version 1","List 1","musket",NA,14,4.958333333,2722,0.368202979,15,"BOI","-","-","Please name all of the ways you could use this object. Keep in mind that one object can have many uses. Separate your responses with a comma.",NA,"y",21325,NA,NA,2195,19530,NA,NA,NA,"shoot, store, display, take apart, study,",1
"55cf5cc434e9060005e56c39","jjsq5dru78","Affordance Norms_Prolific",1,29,"2023-07-25T14:58:25+00:00",33.319281816483,1,"updated stim.csv","Version1.csv","Version 1","List 1","cashmere",NA,23,4.84,1448,0.448711971,24,"BOI","-","-","Please name all of the ways you could use this object. Keep in mind that one object can have many uses. Separate your responses with a comma.",NA,"y",33040,NA,NA,2495,26853,NA,NA,NA,"wear, weave, blanket, ",1
"55cf5cc434e9060005e56c39","jjsq5dru78","Affordance Norms_Prolific",1,30,"2023-07-25T14:58:46+00:00",20.77729511261,1,"updated stim.csv","Version1.csv","Version 1","List 1","aunt",NA,21,4.4,243,0.879020377,22,"BOI","-","-","Please name all of the ways you could use this object. Keep in mind that one object can have many uses. Separate your responses with a comma.",NA,"y",20510,NA,NA,5357,18940,NA,NA,NA,"interact, respect, visit,",1
"55cf5cc434e9060005e56c39","jjsq5dru78","Affordance Norms_Prolific",1,31,"2023-07-25T14:59:08+00:00",22.76825094223,1,"updated stim.csv","Version1.csv","Version 1","List 1","straightedge",NA,15,4.666666667,1168,0.129741388,16,"BOI","-","-","Please name all of the ways you could use this object. Keep in mind that one object can have many uses. Separate your responses with a comma.",NA,"y",22468,NA,NA,3973,12812,NA,NA,NA,"shave, cut,",1
"55cf5cc434e9060005e56c39","jjsq5dru78","Affordance Norms_Prolific",1,32,"2023-07-25T14:59:37+00:00",28.524276018143,1,"updated stim.csv","Version1.csv","Version 1","List 1","sod",NA,6,4.375,1389,0.172930083,7,"BOI","-","-","Please name all of the ways you could use this object. Keep in mind that one object can have many uses. Separate your responses with a comma.",NA,"y",28232,NA,NA,11448,26006,NA,NA,NA,"lawn, make a sod house,",1
"55cf5cc434e9060005e56c39","jjsq5dru78","Affordance Norms_Prolific",1,33,"2023-07-25T14:59:48+00:00",11.259661912918,1,"updated stim.csv","Version1.csv","Version 1","List 1","medal",NA,13,4.444444444,1011,0.860315666,14,"BOI","-","-","Please name all of the ways you could use this object. Keep in mind that one object can have many uses. Separate your responses with a comma.",NA,"y",10990,NA,NA,1749,9548,NA,NA,NA,"wear, display, study, photograph,",1
"55cf5cc434e9060005e56c39","jjsq5dru78","Affordance Norms_Prolific",1,34,"2023-07-25T14:59:59+00:00",11.226185083389,1,"updated stim.csv","Version1.csv","Version 1","List 1","receptacle",NA,5,5.833333333,1647,0.48521541,6,"BOI","-","-","Please name all of the ways you could use this object. Keep in mind that one object can have many uses. Separate your responses with a comma.",NA,"y",10963,NA,NA,2290,5657,NA,NA,NA,"put things in it, ",1
"55cf5cc434e9060005e56c39","jjsq5dru78","Affordance Norms_Prolific",1,35,"2023-07-25T15:00:19+00:00",19.085222959518,1,"updated stim.csv","Version1.csv","Version 1","List 1","upholstery",NA,28,5.142857143,2618,0.332046282,29,"BOI","-","-","Please name all of the ways you could use this object. Keep in mind that one object can have many uses. Separate your responses with a comma.",NA,"y",18784,NA,NA,9848,16373,NA,NA,NA,"put on furniture, put on walls,",1
"55cf5cc434e9060005e56c39","jjsq5dru78","Affordance Norms_Prolific",1,36,"2023-07-25T15:00:35+00:00",16.682207107544,1,"updated stim.csv","Version1.csv","Version 1","List 1","hailstone",NA,16,5.565217391,1319,0.287274537,17,"BOI","-","-","Please name all of the ways you could use this object. Keep in mind that one object can have many uses. Separate your responses with a comma.",NA,"y",16385,NA,NA,3728,15311,NA,NA,NA,"freeze it, study it, photograph it,",1
"55cf5cc434e9060005e56c39","jjsq5dru78","Affordance Norms_Prolific",1,37,"2023-07-25T15:01:02+00:00",26.741344928741,1,"updated stim.csv","Version1.csv","Version 1","List 1","stirrup",NA,27,5.434782609,1877,0.096670334,28,"BOI","-","-","Please name all of the ways you could use this object. Keep in mind that one object can have many uses. Separate your responses with a comma.",NA,"y",26475,NA,NA,10723,21361,NA,NA,NA,"attach to saddle, photograph it, study it,",1
"55cf5cc434e9060005e56c39","jjsq5dru78","Affordance Norms_Prolific",1,38,"2023-07-25T15:01:20+00:00",17.664736032486,1,"updated stim.csv","Version1.csv","Version 1","List 1","boy",NA,10,6.25,323,0.73335018,11,"BOI","-","-","Please name all of the ways you could use this object. Keep in mind that one object can have many uses. Separate your responses with a comma.",NA,"y",17399,NA,NA,6822,12012,NA,NA,NA,"interact, teach,",1
"55cf5cc434e9060005e56c39","jjsq5dru78","Affordance Norms_Prolific",1,39,"2023-07-25T15:01:38+00:00",18.47513794899,1,"updated stim.csv","Version1.csv","Version 1","List 1","kiln",NA,7,6.230769231,308,0.981109369,8,"BOI","-","-","Please name all of the ways you could use this object. Keep in mind that one object can have many uses. Separate your responses with a comma.",NA,"y",18180,NA,NA,2659,16617,NA,NA,NA,"fire clay, burn things,",1
"55cf5cc434e9060005e56c39","jjsq5dru78","Affordance Norms_Prolific",1,40,"2023-07-25T15:01:58+00:00",19.668446063995,1,"updated stim.csv","Version1.csv","Version 1","List 1","packet",NA,26,4.727272727,2510,0.797812576,27,"BOI","-","-","Please name all of the ways you could use this object. Keep in mind that one object can have many uses. Separate your responses with a comma.",NA,"y",19332,NA,NA,10732,17890,NA,NA,NA,"put things in it, bundle things,",1
"575d94abef120200067e5e5a","f92q0gibct","Affordance Norms_Prolific",1,11,"2023-07-25T14:50:28+00:00",29.107177972794,3,"updated stim.csv","Version3.csv","Version 3","List 3","dye",NA,62,5.821428571,1972,0.647636876,63,"BOI","-","-","Please name all of the ways you could use this object. Keep in mind that one object can have many uses. Separate your responses with a comma.",NA,"y",28730,NA,NA,1501,22589,NA,NA,NA,"colour, new hairstyle, refresh clothes, stain, paint",1
"575d94abef120200067e5e5a","f92q0gibct","Affordance Norms_Prolific",1,12,"2023-07-25T14:51:06+00:00",37.892715930939,3,"updated stim.csv","Version3.csv","Version 3","List 3","plaything",NA,74,4.72,812,0.011096937,75,"BOI","-","-","Please name all of the ways you could use this object. Keep in mind that one object can have many uses. Separate your responses with a comma.",NA,"y",37260,NA,NA,1739,35450,NA,NA,NA,"bounce, use, play, befriend, make, hide, restore, enjoy",1
"575d94abef120200067e5e5a","f92q0gibct","Affordance Norms_Prolific",1,13,"2023-07-25T14:51:46+00:00",40.435358047485,3,"updated stim.csv","Version3.csv","Version 3","List 3","armoire",NA,66,4.36,2503,0.391571319,67,"BOI","-","-","Please name all of the ways you could use this object. Keep in mind that one object can have many uses. Separate your responses with a comma.",NA,"y",40046,NA,NA,18980,38762,NA,NA,NA,"store, hang, rest, hide, decorate, style",1
"575d94abef120200067e5e5a","f92q0gibct","Affordance Norms_Prolific",1,14,"2023-07-25T14:52:13+00:00",27.293204069138,3,"updated stim.csv","Version3.csv","Version 3","List 3","schoolwork",NA,86,5.08,371,0.22831517,87,"BOI","-","-","Please name all of the ways you could use this object. Keep in mind that one object can have many uses. Separate your responses with a comma.",NA,"y",26901,NA,NA,3243,25366,NA,NA,NA,"prepare, write, read, hand in, finish, start, prepare",1
"575d94abef120200067e5e5a","f92q0gibct","Affordance Norms_Prolific",1,15,"2023-07-25T14:52:36+00:00",22.437856912613,3,"updated stim.csv","Version3.csv","Version 3","List 3","rucksack",NA,64,5.2,2045,0.553054431,65,"BOI","-","-","Please name all of the ways you could use this object. Keep in mind that one object can have many uses. Separate your responses with a comma.",NA,"y",22055,NA,NA,2060,20584,NA,NA,NA,"contain, hold, store, transport, carry, travel",1
"575d94abef120200067e5e5a","f92q0gibct","Affordance Norms_Prolific",1,16,"2023-07-25T14:53:02+00:00",25.969442129135,3,"updated stim.csv","Version3.csv","Version 3","List 3","chalet",NA,68,5,2008,0.897588843,69,"BOI","-","-","Please name all of the ways you could use this object. Keep in mind that one object can have many uses. Separate your responses with a comma.",NA,"y",25588,NA,NA,1860,24138,NA,NA,NA,"live, stay, visit, recover, warm up, rest, vacation",1
"575d94abef120200067e5e5a","f92q0gibct","Affordance Norms_Prolific",1,17,"2023-07-25T14:53:33+00:00",30.842928886414,3,"updated stim.csv","Version3.csv","Version 3","List 3","lager",NA,73,4.68,2119,0.859929905,74,"BOI","-","-","Please name all of the ways you could use this object. Keep in mind that one object can have many uses. Separate your responses with a comma.",NA,"y",30450,NA,NA,1459,29207,NA,NA,NA,"drink, spill, enjoy, toast, mix, intoxicate",1
"575d94abef120200067e5e5a","f92q0gibct","Affordance Norms_Prolific",1,18,"2023-07-25T14:53:47+00:00",14.509006977081,3,"updated stim.csv","Version3.csv","Version 3","List 3","tomahawk",NA,75,5.034482759,1526,0.130915448,76,"BOI","-","-","Please name all of the ways you could use this object. Keep in mind that one object can have many uses. Separate your responses with a comma.",NA,"y",14112,NA,NA,1818,13073,NA,NA,NA,"throw, catch, design, hold, threaten ",1
"575d94abef120200067e5e5a","f92q0gibct","Affordance Norms_Prolific",1,19,"2023-07-25T14:54:13+00:00",26.055727958679,3,"updated stim.csv","Version3.csv","Version 3","List 3","committeewoman",NA,81,4.565217391,1515,0.357597243,82,"BOI","-","-","Please name all of the ways you could use this object. Keep in mind that one object can have many uses. Separate your responses with a comma.",NA,"y",25672,NA,NA,3117,24429,NA,NA,NA,"discuss, talk, decide, think, share, present, agree",1
"575d94abef120200067e5e5a","f92q0gibct","Affordance Norms_Prolific",1,20,"2023-07-25T14:54:46+00:00",32.852014064789,3,"updated stim.csv","Version3.csv","Version 3","List 3","stage",NA,90,4.875,1038,0.590943274,91,"BOI","-","-","Please name all of the ways you could use this object. Keep in mind that one object can have many uses. Separate your responses with a comma.",NA,"y",32462,NA,NA,1534,31307,NA,NA,NA,"perform, present, raise, act, debate, stand",1
"575d94abef120200067e5e5a","f92q0gibct","Affordance Norms_Prolific",1,21,"2023-07-25T14:55:10+00:00",23.639943122864,3,"updated stim.csv","Version3.csv","Version 3","List 3","smoothie",NA,89,4.45,714,0.473160418,90,"BOI","-","-","Please name all of the ways you could use this object. Keep in mind that one object can have many uses. Separate your responses with a comma.",NA,"y",23237,NA,NA,2035,16912,NA,NA,NA,"drink, make, prepare, mix, enjoy",1
"575d94abef120200067e5e5a","f92q0gibct","Affordance Norms_Prolific",1,22,"2023-07-25T14:55:45+00:00",35.700439929962,3,"updated stim.csv","Version3.csv","Version 3","List 3","crabgrass",NA,80,5,1508,0.204621036,81,"BOI","-","-","Please name all of the ways you could use this object. Keep in mind that one object can have many uses. Separate your responses with a comma.",NA,"y",34475,NA,NA,15045,33072,NA,NA,NA,"grow, overgrow, creep, cover, threaten",1
"575d94abef120200067e5e5a","f92q0gibct","Affordance Norms_Prolific",1,23,"2023-07-25T14:56:26+00:00",40.306361913681,3,"updated stim.csv","Version3.csv","Version 3","List 3","conch",NA,70,5.4,442,0.978148159,71,"BOI","-","-","Please name all of the ways you could use this object. Keep in mind that one object can have many uses. Separate your responses with a comma.",NA,"y",39657,NA,NA,3219,38189,NA,NA,NA,"listen, admire, decorate, play, blow, draw",1
"575d94abef120200067e5e5a","f92q0gibct","Affordance Norms_Prolific",1,24,"2023-07-25T14:56:54+00:00",28.083532094955,3,"updated stim.csv","Version3.csv","Version 3","List 3","scribbling",NA,88,5.217391304,1557,0.027089463,89,"BOI","-","-","Please name all of the ways you could use this object. Keep in mind that one object can have many uses. Separate your responses with a comma.",NA,"y",27705,NA,NA,1618,26284,NA,NA,NA,"write, draw, sketch, note, draft",1
"575d94abef120200067e5e5a","f92q0gibct","Affordance Norms_Prolific",1,25,"2023-07-25T14:57:15+00:00",21.627410888672,3,"updated stim.csv","Version3.csv","Version 3","List 3","screen",NA,87,4.347826087,768,0.964513541,88,"BOI","-","-","Please name all of the ways you could use this object. Keep in mind that one object can have many uses. Separate your responses with a comma.",NA,"y",21229,NA,NA,3439,19485,NA,NA,NA,"watch, look, inspect, review, share, split",1
"575d94abef120200067e5e5a","f92q0gibct","Affordance Norms_Prolific",1,26,"2023-07-25T14:57:40+00:00",24.753515958786,3,"updated stim.csv","Version3.csv","Version 3","List 3","coat",NA,78,4.96,1926,0.460539621,79,"BOI","-","-","Please name all of the ways you could use this object. Keep in mind that one object can have many uses. Separate your responses with a comma.",NA,"y",24358,NA,NA,2001,23179,NA,NA,NA,"wear, hang, paint, cover, heat, protect",1
"575d94abef120200067e5e5a","f92q0gibct","Affordance Norms_Prolific",1,27,"2023-07-25T14:58:23+00:00",42.436039209366,3,"updated stim.csv","Version3.csv","Version 3","List 3","flaxseed",NA,82,4.347826087,950,0.481228199,83,"BOI","-","-","Please name all of the ways you could use this object. Keep in mind that one object can have many uses. Separate your responses with a comma.",NA,"y",42035,NA,NA,20781,40587,NA,NA,NA,"grind, lubricate, eat, mix, nutrient",1
"575d94abef120200067e5e5a","f92q0gibct","Affordance Norms_Prolific",1,28,"2023-07-25T14:58:55+00:00",32.408377885818,3,"updated stim.csv","Version3.csv","Version 3","List 3","school",NA,85,6.52,1832,0.794942896,86,"BOI","-","-","Please name all of the ways you could use this object. Keep in mind that one object can have many uses. Separate your responses with a comma.",NA,"y",31761,NA,NA,2191,29152,NA,NA,NA,"visit, attend, go, leave, finish, enjoy, learn, listen, teach, develop, play",1
"575d94abef120200067e5e5a","f92q0gibct","Affordance Norms_Prolific",1,29,"2023-07-25T14:59:34+00:00",39.445183992386,3,"updated stim.csv","Version3.csv","Version 3","List 3","pumpernickel",NA,71,4.333333333,2171,0.641556175,72,"BOI","-","-","Please name all of the ways you could use this object. Keep in mind that one object can have many uses. Separate your responses with a comma.",NA,"y",39056,NA,NA,13609,37936,NA,NA,NA,"eat, enjoy, feast, nutrient",1
"575d94abef120200067e5e5a","f92q0gibct","Affordance Norms_Prolific",1,30,"2023-07-25T14:59:53+00:00",19.082616090775,3,"updated stim.csv","Version3.csv","Version 3","List 3","garland",NA,83,4.32,2041,0.504174346,84,"BOI","-","-","Please name all of the ways you could use this object. Keep in mind that one object can have many uses. Separate your responses with a comma.",NA,"y",18680,NA,NA,1776,16948,NA,NA,NA,"display, make, create, design, decorate, celebrate ",1
"575d94abef120200067e5e5a","f92q0gibct","Affordance Norms_Prolific",1,31,"2023-07-25T15:00:20+00:00",26.19088602066,3,"updated stim.csv","Version3.csv","Version 3","List 3","cayenne",NA,77,4.391304348,2574,0.106746219,78,"BOI","-","-","Please name all of the ways you could use this object. Keep in mind that one object can have many uses. Separate your responses with a comma.",NA,"y",25803,NA,NA,2261,12818,NA,NA,NA,"spice, heat, grow, grind",1
"575d94abef120200067e5e5a","f92q0gibct","Affordance Norms_Prolific",1,32,"2023-07-25T15:00:37+00:00",16.901180028915,3,"updated stim.csv","Version3.csv","Version 3","List 3","workshop",NA,65,4.64,113,0.193301397,66,"BOI","-","-","Please name all of the ways you could use this object. Keep in mind that one object can have many uses. Separate your responses with a comma.",NA,"y",16506,NA,NA,2255,9506,NA,NA,NA,"create, fix, mend, make, do",1
"575d94abef120200067e5e5a","f92q0gibct","Affordance Norms_Prolific",1,33,"2023-07-25T15:00:51+00:00",14.837281942368,3,"updated stim.csv","Version3.csv","Version 3","List 3","colt",NA,69,4.32,2484,0.788241169,70,"BOI","-","-","Please name all of the ways you could use this object. Keep in mind that one object can have many uses. Separate your responses with a comma.",NA,"y",14159,NA,NA,2152,12597,NA,NA,NA,"ride, walk, trot, gallop, show, train",1
"575d94abef120200067e5e5a","f92q0gibct","Affordance Norms_Prolific",1,34,"2023-07-25T15:01:14+00:00",22.322079896927,3,"updated stim.csv","Version3.csv","Version 3","List 3","breeches",NA,67,5.875,2545,0.16935575,68,"BOI","-","-","Please name all of the ways you could use this object. Keep in mind that one object can have many uses. Separate your responses with a comma.",NA,"y",21919,NA,NA,1630,15136,NA,NA,NA,"wear, golf, adjust, lower, raise",1
"575d94abef120200067e5e5a","f92q0gibct","Affordance Norms_Prolific",1,35,"2023-07-25T15:01:34+00:00",20.151649951935,3,"updated stim.csv","Version3.csv","Version 3","List 3","goulash",NA,63,5.956521739,2696,0.229279242,64,"BOI","-","-","Please name all of the ways you could use this object. Keep in mind that one object can have many uses. Separate your responses with a comma.",NA,"y",19757,NA,NA,1684,18519,NA,NA,NA,"eat, make, cook, simmer, spice, feast",1
"575d94abef120200067e5e5a","f92q0gibct","Affordance Norms_Prolific",1,36,"2023-07-25T15:02:15+00:00",40.80185008049,3,"updated stim.csv","Version3.csv","Version 3","List 3","dipper",NA,61,5,1995,0.297611551,62,"BOI","-","-","Please name all of the ways you could use this object. Keep in mind that one object can have many uses. Separate your responses with a comma.",NA,"y",40416,NA,NA,14406,33176,NA,NA,NA,"watch, ladle, scoop, taste, fly",1
"575d94abef120200067e5e5a","f92q0gibct","Affordance Norms_Prolific",1,37,"2023-07-25T15:02:30+00:00",15.763262033463,3,"updated stim.csv","Version3.csv","Version 3","List 3","buttonhook",NA,72,4.739130435,2021,0.71377516,73,"BOI","-","-","Please name all of the ways you could use this object. Keep in mind that one object can have many uses. Separate your responses with a comma.",NA,"y",15372,NA,NA,1592,13972,NA,NA,NA,"attach, link, join, secure, close, sseal",1
"575d94abef120200067e5e5a","f92q0gibct","Affordance Norms_Prolific",1,38,"2023-07-25T15:02:45+00:00",14.994050979614,3,"updated stim.csv","Version3.csv","Version 3","List 3","beefsteak",NA,76,4.391304348,2476,0.828123751,77,"BOI","-","-","Please name all of the ways you could use this object. Keep in mind that one object can have many uses. Separate your responses with a comma.",NA,"y",14606,NA,NA,1917,13308,NA,NA,NA,"eat, roast, fry, braise, barbecue, enjoy",1
"575d94abef120200067e5e5a","f92q0gibct","Affordance Norms_Prolific",1,39,"2023-07-25T15:03:05+00:00",19.505649089813,3,"updated stim.csv","Version3.csv","Version 3","List 3","cowhide",NA,79,4.916666667,2244,0.813802173,80,"BOI","-","-","Please name all of the ways you could use this object. Keep in mind that one object can have many uses. Separate your responses with a comma.",NA,"y",19118,NA,NA,2559,16964,NA,NA,NA,"tan, wear, decorate, prepare, design",1
"575d94abef120200067e5e5a","f92q0gibct","Affordance Norms_Prolific",1,40,"2023-07-25T15:03:25+00:00",19.699047803879,3,"updated stim.csv","Version3.csv","Version 3","List 3","photocopier",NA,84,5.875,732,0.795847806,85,"BOI","-","-","Please name all of the ways you could use this object. Keep in mind that one object can have many uses. Separate your responses with a comma.",NA,"y",19290,NA,NA,1967,18216,NA,NA,NA,"duplicate, design, copy, print, multiply",1
"59edc2c816ecc200016ff9cc","4b0ec3qv9m","Affordance Norms_Prolific",1,11,"2023-07-25T15:08:41+00:00",23.832112073898,5,"updated stim.csv","Version5.csv","Version 5","List 5","walrus",NA,145,4.923076923,2055,0.604936304,146,"BOI","-","-","Please name all of the ways you could use this object. Keep in mind that one object can have many uses. Separate your responses with a comma.",NA,"y",22897,NA,NA,3211,21586,NA,NA,NA,"you can pet it, you could cook it, you could feed it, you could study it scientifically, you could taxidermise it",1
"59edc2c816ecc200016ff9cc","4b0ec3qv9m","Affordance Norms_Prolific",1,12,"2023-07-25T15:08:58+00:00",17.193541049957,5,"updated stim.csv","Version5.csv","Version 5","List 5","globe",NA,140,4.68,51,0.461950375,141,"BOI","-","-","Please name all of the ways you could use this object. Keep in mind that one object can have many uses. Separate your responses with a comma.",NA,"y",16396,NA,NA,3254,15261,NA,NA,NA,"you can spin it, you can use it to learn about the world",1
"59edc2c816ecc200016ff9cc","4b0ec3qv9m","Affordance Norms_Prolific",1,13,"2023-07-25T15:09:21+00:00",22.855277776718,5,"updated stim.csv","Version5.csv","Version 5","List 5","teacup",NA,143,4.583333333,470,0.107709949,144,"BOI","-","-","Please name all of the ways you could use this object. Keep in mind that one object can have many uses. Separate your responses with a comma.",NA,"y",21822,NA,NA,1214,16054,NA,NA,NA,"you can drink from it, you could use it as a paper weight",1
"59edc2c816ecc200016ff9cc","4b0ec3qv9m","Affordance Norms_Prolific",1,14,"2023-07-25T15:09:35+00:00",13.318506002426,5,"updated stim.csv","Version5.csv","Version 5","List 5","bankbook",NA,130,NA,3002,0.356895476,131,"BOI","-","-","Please name all of the ways you could use this object. Keep in mind that one object can have many uses. Separate your responses with a comma.",NA,"y",11658,NA,NA,2395,10429,NA,NA,NA,"you could write it in it, you could doodle in it",1
"59edc2c816ecc200016ff9cc","4b0ec3qv9m","Affordance Norms_Prolific",1,15,"2023-07-25T15:09:45+00:00",10.359843015671,5,"updated stim.csv","Version5.csv","Version 5","List 5","barrette",NA,149,5.8,717,0.131827503,150,"BOI","-","-","Please name all of the ways you could use this object. Keep in mind that one object can have many uses. Separate your responses with a comma.",NA,"y",7705,NA,NA,3410,6313,NA,NA,NA,"I don't know what this is!",1
"59edc2c816ecc200016ff9cc","4b0ec3qv9m","Affordance Norms_Prolific",1,16,"2023-07-25T15:10:03+00:00",18.515561103821,5,"updated stim.csv","Version5.csv","Version 5","List 5","nursemaid",NA,133,5.086956522,2971,0.589394286,134,"BOI","-","-","Please name all of the ways you could use this object. Keep in mind that one object can have many uses. Separate your responses with a comma.",NA,"y",17484,NA,NA,3411,16460,NA,NA,NA,"You could talk to her, you could watch a film with her",0.976
"59edc2c816ecc200016ff9cc","4b0ec3qv9m","Affordance Norms_Prolific",1,17,"2023-07-25T15:10:21+00:00",17.910948038101,5,"updated stim.csv","Version5.csv","Version 5","List 5","torso",NA,128,4.782608696,2910,0.65261601,129,"BOI","-","-","Please name all of the ways you could use this object. Keep in mind that one object can have many uses. Separate your responses with a comma.",NA,"y",17018,NA,NA,4073,15464,NA,NA,NA,"You can wear clothes over it, you can exercise it, you can stretch it",1
"59edc2c816ecc200016ff9cc","4b0ec3qv9m","Affordance Norms_Prolific",1,18,"2023-07-25T15:10:37+00:00",15.771539926529,5,"updated stim.csv","Version5.csv","Version 5","List 5","trench",NA,123,4.318181818,2903,0.192088069,124,"BOI","-","-","Please name all of the ways you could use this object. Keep in mind that one object can have many uses. Separate your responses with a comma.",NA,"y",14358,NA,NA,1430,13070,NA,NA,NA,"You can hide in it, you could sleep in it, you could live in it",1
"59edc2c816ecc200016ff9cc","4b0ec3qv9m","Affordance Norms_Prolific",1,19,"2023-07-25T15:10:47+00:00",10.173907995224,5,"updated stim.csv","Version5.csv","Version 5","List 5","wiper",NA,136,5.44,1413,0.406137653,137,"BOI","-","-","Please name all of the ways you could use this object. Keep in mind that one object can have many uses. Separate your responses with a comma.",NA,"y",8811,NA,NA,1627,7756,NA,NA,NA,"You can wipe with it, you can fan yourself with it",1
"59edc2c816ecc200016ff9cc","4b0ec3qv9m","Affordance Norms_Prolific",1,20,"2023-07-25T15:11:02+00:00",14.982028961182,5,"updated stim.csv","Version5.csv","Version 5","List 5","wheat",NA,129,5.041666667,175,0.357199657,130,"BOI","-","-","Please name all of the ways you could use this object. Keep in mind that one object can have many uses. Separate your responses with a comma.",NA,"y",14079,NA,NA,1311,13006,NA,NA,NA,"You can make bread with it, you can make alcohol with it, you can feed animals with it",1
"59edc2c816ecc200016ff9cc","4b0ec3qv9m","Affordance Norms_Prolific",1,21,"2023-07-25T15:11:10+00:00",7.3138091564178,5,"updated stim.csv","Version5.csv","Version 5","List 5","eclair",NA,124,4.833333333,638,0.549670749,125,"BOI","-","-","Please name all of the ways you could use this object. Keep in mind that one object can have many uses. Separate your responses with a comma.",NA,"y",6221,NA,NA,1797,4068,NA,NA,NA,"You can eat it",1
"59edc2c816ecc200016ff9cc","4b0ec3qv9m","Affordance Norms_Prolific",1,22,"2023-07-25T15:11:19+00:00",9.2126579284668,5,"updated stim.csv","Version5.csv","Version 5","List 5","tonic",NA,122,6.28,1637,0.689498349,123,"BOI","-","-","Please name all of the ways you could use this object. Keep in mind that one object can have many uses. Separate your responses with a comma.",NA,"y",8353,NA,NA,2169,8039,NA,NA,NA,"You can mix it with other drinks",1
"59edc2c816ecc200016ff9cc","4b0ec3qv9m","Affordance Norms_Prolific",1,23,"2023-07-25T15:11:35+00:00",15.966449022293,5,"updated stim.csv","Version5.csv","Version 5","List 5","teakwood",NA,127,4.607142857,2761,0.821162254,128,"BOI","-","-","Please name all of the ways you could use this object. Keep in mind that one object can have many uses. Separate your responses with a comma.",NA,"y",15189,NA,NA,2597,14050,NA,NA,NA,"You can make furniture with it, you can make a house with it, you could grow it",1
"59edc2c816ecc200016ff9cc","4b0ec3qv9m","Affordance Norms_Prolific",1,24,"2023-07-25T15:11:48+00:00",13.598159074783,5,"updated stim.csv","Version5.csv","Version 5","List 5","urn",NA,135,4.411764706,1467,0.485337296,136,"BOI","-","-","Please name all of the ways you could use this object. Keep in mind that one object can have many uses. Separate your responses with a comma.",NA,"y",12305,NA,NA,1977,11386,NA,NA,NA,"You can fill it with ashes, you can fill it with a liquid",1
"59edc2c816ecc200016ff9cc","4b0ec3qv9m","Affordance Norms_Prolific",1,25,"2023-07-25T15:11:56+00:00",8.0243089199066,5,"updated stim.csv","Version5.csv","Version 5","List 5","trainer",NA,144,5.428571429,2984,0.95091675,145,"BOI","-","-","Please name all of the ways you could use this object. Keep in mind that one object can have many uses. Separate your responses with a comma.",NA,"y",6952,NA,NA,1744,4680,NA,NA,NA,"You can wear it",1
"59edc2c816ecc200016ff9cc","4b0ec3qv9m","Affordance Norms_Prolific",1,26,"2023-07-25T15:12:02+00:00",5.5248830318451,5,"updated stim.csv","Version5.csv","Version 5","List 5","ballot",NA,148,6.434782609,814,0.883086008,149,"BOI","-","-","Please name all of the ways you could use this object. Keep in mind that one object can have many uses. Separate your responses with a comma.",NA,"y",4660,NA,NA,1789,3829,NA,NA,NA,"You can use it to vote",1
"59edc2c816ecc200016ff9cc","4b0ec3qv9m","Affordance Norms_Prolific",1,27,"2023-07-25T15:12:17+00:00",14.692399978638,5,"updated stim.csv","Version5.csv","Version 5","List 5","fawn",NA,138,5.12,2966,0.663344397,139,"BOI","-","-","Please name all of the ways you could use this object. Keep in mind that one object can have many uses. Separate your responses with a comma.",NA,"y",13395,NA,NA,1932,12363,NA,NA,NA,"You could pet one, you could study it scientifically it",1
"59edc2c816ecc200016ff9cc","4b0ec3qv9m","Affordance Norms_Prolific",1,28,"2023-07-25T15:12:30+00:00",13.642637014389,5,"updated stim.csv","Version5.csv","Version 5","List 5","workroom",NA,146,4.64,2078,0.373078665,147,"BOI","-","-","Please name all of the ways you could use this object. Keep in mind that one object can have many uses. Separate your responses with a comma.",NA,"y",12387,NA,NA,1678,11651,NA,NA,NA,"You can work in there, you can study in there, you can sit in there",1
"59edc2c816ecc200016ff9cc","4b0ec3qv9m","Affordance Norms_Prolific",1,29,"2023-07-25T15:12:39+00:00",8.6255729198456,5,"updated stim.csv","Version5.csv","Version 5","List 5","bodice",NA,131,5.36,2003,0.404603014,132,"BOI","-","-","Please name all of the ways you could use this object. Keep in mind that one object can have many uses. Separate your responses with a comma.",NA,"y",7376,NA,NA,3544,6136,NA,NA,NA,"You could wear it",0.931
"59edc2c816ecc200016ff9cc","4b0ec3qv9m","Affordance Norms_Prolific",1,30,"2023-07-25T15:12:53+00:00",14.628577947617,5,"updated stim.csv","Version5.csv","Version 5","List 5","worksheet",NA,147,4.428571429,1867,0.923363889,148,"BOI","-","-","Please name all of the ways you could use this object. Keep in mind that one object can have many uses. Separate your responses with a comma.",NA,"y",13467,NA,NA,5964,12628,NA,NA,NA,"write on it, doodle on it, do calculations on it",1
"59edc2c816ecc200016ff9cc","4b0ec3qv9m","Affordance Norms_Prolific",1,31,"2023-07-25T15:13:05+00:00",11.567708015442,5,"updated stim.csv","Version5.csv","Version 5","List 5","frankfurter",NA,139,5.391304348,2026,0.369576509,140,"BOI","-","-","Please name all of the ways you could use this object. Keep in mind that one object can have many uses. Separate your responses with a comma.",NA,"y",10553,NA,NA,1535,8130,NA,NA,NA,"You can put it in a hotdog, you can eat it",1
"59edc2c816ecc200016ff9cc","4b0ec3qv9m","Affordance Norms_Prolific",1,32,"2023-07-25T15:13:21+00:00",15.592307090759,5,"updated stim.csv","Version5.csv","Version 5","List 5","applicator",NA,137,4.928571429,2330,0.621252368,138,"BOI","-","-","Please name all of the ways you could use this object. Keep in mind that one object can have many uses. Separate your responses with a comma.",NA,"y",14347,NA,NA,10276,13747,NA,NA,NA,"I'm not sure how you'd use this",1
"59edc2c816ecc200016ff9cc","4b0ec3qv9m","Affordance Norms_Prolific",1,33,"2023-07-25T15:13:35+00:00",14.501177072525,5,"updated stim.csv","Version5.csv","Version 5","List 5","ore",NA,126,4.52,2234,0.16035416,127,"BOI","-","-","Please name all of the ways you could use this object. Keep in mind that one object can have many uses. Separate your responses with a comma.",NA,"y",13498,NA,NA,1404,12418,NA,NA,NA,"You can mine it, you can use it to make various things",1
"59edc2c816ecc200016ff9cc","4b0ec3qv9m","Affordance Norms_Prolific",1,34,"2023-07-25T15:13:44+00:00",8.59215092659,5,"updated stim.csv","Version5.csv","Version 5","List 5","horseman",NA,132,5.608695652,386,0.325095127,133,"BOI","-","-","Please name all of the ways you could use this object. Keep in mind that one object can have many uses. Separate your responses with a comma.",NA,"y",7362,NA,NA,3706,6641,NA,NA,NA,"I'm not sure",0.943
"59edc2c816ecc200016ff9cc","4b0ec3qv9m","Affordance Norms_Prolific",1,35,"2023-07-25T15:13:51+00:00",7.619528055191,5,"updated stim.csv","Version5.csv","Version 5","List 5","parchment",NA,141,4.375,2495,0.024282326,142,"BOI","-","-","Please name all of the ways you could use this object. Keep in mind that one object can have many uses. Separate your responses with a comma.",NA,"y",6150,NA,NA,1414,5262,NA,NA,NA,"Write on it",1
"59edc2c816ecc200016ff9cc","4b0ec3qv9m","Affordance Norms_Prolific",1,36,"2023-07-25T15:13:58+00:00",6.2664499282837,5,"updated stim.csv","Version5.csv","Version 5","List 5","tablecloth",NA,142,4.913043478,2044,0.01460871,143,"BOI","-","-","Please name all of the ways you could use this object. Keep in mind that one object can have many uses. Separate your responses with a comma.",NA,"y",4929,NA,NA,1444,3941,NA,NA,NA,"You can put it on a table",1
"59edc2c816ecc200016ff9cc","4b0ec3qv9m","Affordance Norms_Prolific",1,37,"2023-07-25T15:14:06+00:00",8.8682420253754,5,"updated stim.csv","Version5.csv","Version 5","List 5","optician",NA,125,5.04,1900,0.012619648,126,"BOI","-","-","Please name all of the ways you could use this object. Keep in mind that one object can have many uses. Separate your responses with a comma.",NA,"y",7612,NA,NA,1466,6988,NA,NA,NA,"You can go to them to get your eyes tested",0.974
"59edc2c816ecc200016ff9cc","4b0ec3qv9m","Affordance Norms_Prolific",1,38,"2023-07-25T15:14:27+00:00",20.558856010437,5,"updated stim.csv","Version5.csv","Version 5","List 5","building",NA,150,5.8,937,0.594546173,151,"BOI","-","-","Please name all of the ways you could use this object. Keep in mind that one object can have many uses. Separate your responses with a comma.",NA,"y",19175,NA,NA,2239,18183,NA,NA,NA,"You can work in it, live in it, eat in it, sleep in it, study in it",1
"59edc2c816ecc200016ff9cc","4b0ec3qv9m","Affordance Norms_Prolific",1,39,"2023-07-25T15:14:35+00:00",8.4348828792572,5,"updated stim.csv","Version5.csv","Version 5","List 5","thumbnail",NA,134,5.296296296,1310,0.74583685,135,"BOI","-","-","Please name all of the ways you could use this object. Keep in mind that one object can have many uses. Separate your responses with a comma.",NA,"y",7017,NA,NA,1746,6178,NA,NA,NA,"You can use it to pin things on the wall",1
"59edc2c816ecc200016ff9cc","4b0ec3qv9m","Affordance Norms_Prolific",1,40,"2023-07-25T15:14:53+00:00",17.943034172058,5,"updated stim.csv","Version5.csv","Version 5","List 5","piss",NA,121,5.791666667,973,0.03998685,122,"BOI","-","-","Please name all of the ways you could use this object. Keep in mind that one object can have many uses. Separate your responses with a comma.",NA,"y",16355,NA,NA,1108,15472,NA,NA,NA,"You could flush it down the toilet, you can use it to take someone's medical history",1
"5a11b458ab721b0001ef8884","9j9lx14egd","Affordance Norms_Prolific",1,11,"2023-07-25T15:08:43+00:00",33.885997056961,8,"updated stim.csv","Version8.csv","Version 8","List 8","ant",NA,239,4.52,691,0.967555981,240,"BOI","-","-","Please name all of the ways you could use this object. Keep in mind that one object can have many uses. Separate your responses with a comma.",NA,"y",33508,NA,NA,3850,4484,NA,NA,NA,"food, ",0.975
"5a11b458ab721b0001ef8884","9j9lx14egd","Affordance Norms_Prolific",1,12,"2023-07-25T15:09:09+00:00",25.534275054932,8,"updated stim.csv","Version8.csv","Version 8","List 8","lick",NA,224,4.409090909,925,0.140617165,225,"BOI","-","-","Please name all of the ways you could use this object. Keep in mind that one object can have many uses. Separate your responses with a comma.",NA,"y",25147,NA,NA,10463,23945,NA,NA,NA,"paint, lips, punch",1
"5a11b458ab721b0001ef8884","9j9lx14egd","Affordance Norms_Prolific",1,13,"2023-07-25T15:09:35+00:00",26.479716062546,8,"updated stim.csv","Version8.csv","Version 8","List 8","sandpaper",NA,236,5.269230769,2335,0.866817871,237,"BOI","-","-","Please name all of the ways you could use this object. Keep in mind that one object can have many uses. Separate your responses with a comma.",NA,"y",26114,NA,NA,6886,17245,NA,NA,NA,"smooth, design, ",0.984
"5a11b458ab721b0001ef8884","9j9lx14egd","Affordance Norms_Prolific",1,14,"2023-07-25T15:09:42+00:00",6.4160280227661,8,"updated stim.csv","Version8.csv","Version 8","List 8","rye",NA,235,4.4,1625,0.181387363,236,"BOI","-","-","Please name all of the ways you could use this object. Keep in mind that one object can have many uses. Separate your responses with a comma.",NA,"y",6039,NA,NA,1389,4665,NA,NA,NA,"drink, eat, produce",1
"5a11b458ab721b0001ef8884","9j9lx14egd","Affordance Norms_Prolific",1,15,"2023-07-25T15:10:21+00:00",39.077441930771,8,"updated stim.csv","Version8.csv","Version 8","List 8","workbench",NA,219,4.64,2738,0.501435614,220,"BOI","-","-","Please name all of the ways you could use this object. Keep in mind that one object can have many uses. Separate your responses with a comma.",NA,"y",38689,NA,NA,16598,35644,NA,NA,NA,"create, nail, file, bang, work, ",0.926
"5a11b458ab721b0001ef8884","9j9lx14egd","Affordance Norms_Prolific",1,16,"2023-07-25T15:10:42+00:00",20.898588895798,8,"updated stim.csv","Version8.csv","Version 8","List 8","thong",NA,227,5.826086957,5,0.076040939,228,"BOI","-","-","Please name all of the ways you could use this object. Keep in mind that one object can have many uses. Separate your responses with a comma.",NA,"y",20490,NA,NA,3099,15655,NA,NA,NA,"wear, underwear, sandals, ",1
"5a11b458ab721b0001ef8884","9j9lx14egd","Affordance Norms_Prolific",1,17,"2023-07-25T15:10:53+00:00",11.028172016144,8,"updated stim.csv","Version8.csv","Version 8","List 8","azalea",NA,222,4.333333333,1183,0.64899298,223,"BOI","-","-","Please name all of the ways you could use this object. Keep in mind that one object can have many uses. Separate your responses with a comma.",NA,"y",10668,NA,NA,8757,9035,NA,NA,NA,"grow",0.897
"5a11b458ab721b0001ef8884","9j9lx14egd","Affordance Norms_Prolific",1,18,"2023-07-25T15:11:05+00:00",12.269023180008,8,"updated stim.csv","Version8.csv","Version 8","List 8","sledge",NA,238,5.62962963,2010,0.625895758,239,"BOI","-","-","Please name all of the ways you could use this object. Keep in mind that one object can have many uses. Separate your responses with a comma.",NA,"y",11883,NA,NA,1498,11263,NA,NA,NA,"ride, push, pull, abuse",1
"5a11b458ab721b0001ef8884","9j9lx14egd","Affordance Norms_Prolific",1,19,"2023-07-25T15:11:14+00:00",9.1818339824677,8,"updated stim.csv","Version8.csv","Version 8","List 8","suds",NA,226,4.35,1937,0.497580512,227,"BOI","-","-","Please name all of the ways you could use this object. Keep in mind that one object can have many uses. Separate your responses with a comma.",NA,"y",8800,NA,NA,4454,7493,NA,NA,NA,"play, wash, clean",1
"5a11b458ab721b0001ef8884","9j9lx14egd","Affordance Norms_Prolific",1,20,"2023-07-25T15:11:28+00:00",14.06472992897,8,"updated stim.csv","Version8.csv","Version 8","List 8","loaf",NA,221,4.48,1689,0.151002659,222,"BOI","-","-","Please name all of the ways you could use this object. Keep in mind that one object can have many uses. Separate your responses with a comma.",NA,"y",13524,NA,NA,1139,12912,NA,NA,NA,"eat, cut, store, wrap",1
"5a11b458ab721b0001ef8884","9j9lx14egd","Affordance Norms_Prolific",1,21,"2023-07-25T15:11:41+00:00",12.33336687088,8,"updated stim.csv","Version8.csv","Version 8","List 8","paintbrush",NA,214,4.84,2302,0.90340916,215,"BOI","-","-","Please name all of the ways you could use this object. Keep in mind that one object can have many uses. Separate your responses with a comma.",NA,"y",11935,NA,NA,1343,10324,NA,NA,NA,"paint, clean, wash, design, restore",1
"5a11b458ab721b0001ef8884","9j9lx14egd","Affordance Norms_Prolific",1,22,"2023-07-25T15:11:47+00:00",6.0912761688232,8,"updated stim.csv","Version8.csv","Version 8","List 8","proprietor",NA,234,6.038461538,260,0.738290174,235,"BOI","-","-","Please name all of the ways you could use this object. Keep in mind that one object can have many uses. Separate your responses with a comma.",NA,"y",5726,NA,NA,2775,4396,NA,NA,NA,"buy, sell",1
"5a11b458ab721b0001ef8884","9j9lx14egd","Affordance Norms_Prolific",1,23,"2023-07-25T15:12:10+00:00",23.011173963547,8,"updated stim.csv","Version8.csv","Version 8","List 8","lanyard",NA,233,5.545454545,1294,0.814565241,234,"BOI","-","-","Please name all of the ways you could use this object. Keep in mind that one object can have many uses. Separate your responses with a comma.",NA,"y",22634,NA,NA,1344,19228,NA,NA,NA,"wear, attach, collect, display, throw",1
"5a11b458ab721b0001ef8884","9j9lx14egd","Affordance Norms_Prolific",1,24,"2023-07-25T15:12:18+00:00",8.4603459835052,8,"updated stim.csv","Version8.csv","Version 8","List 8","smooch",NA,217,5.714285714,189,0.160382134,218,"BOI","-","-","Please name all of the ways you could use this object. Keep in mind that one object can have many uses. Separate your responses with a comma.",NA,"y",8086,NA,NA,1385,5174,NA,NA,NA,"kiss",1
"5a11b458ab721b0001ef8884","9j9lx14egd","Affordance Norms_Prolific",1,25,"2023-07-25T15:12:32+00:00",13.571480035782,8,"updated stim.csv","Version8.csv","Version 8","List 8","cuttlefish",NA,240,5.47826087,2624,0.573904042,241,"BOI","-","-","Please name all of the ways you could use this object. Keep in mind that one object can have many uses. Separate your responses with a comma.",NA,"y",13173,NA,NA,1501,10925,NA,NA,NA,"eat, catch, keep, freeze",1
"5a11b458ab721b0001ef8884","9j9lx14egd","Affordance Norms_Prolific",1,26,"2023-07-25T15:12:42+00:00",9.7645869255066,8,"updated stim.csv","Version8.csv","Version 8","List 8","physiologist",NA,215,4.62962963,1519,0.262823842,216,"BOI","-","-","Please name all of the ways you could use this object. Keep in mind that one object can have many uses. Separate your responses with a comma.",NA,"y",9367,NA,NA,4124,6479,NA,NA,NA,"study, listen",1
"5a11b458ab721b0001ef8884","9j9lx14egd","Affordance Norms_Prolific",1,27,"2023-07-25T15:12:56+00:00",14.57496714592,8,"updated stim.csv","Version8.csv","Version 8","List 8","fork",NA,211,5.375,852,0.400751294,212,"BOI","-","-","Please name all of the ways you could use this object. Keep in mind that one object can have many uses. Separate your responses with a comma.",NA,"y",14191,NA,NA,1718,8806,NA,NA,NA,"eat, stab, cook, ",1
"5a11b458ab721b0001ef8884","9j9lx14egd","Affordance Norms_Prolific",1,28,"2023-07-25T15:13:23+00:00",26.461902856827,8,"updated stim.csv","Version8.csv","Version 8","List 8","bowling",NA,228,6.16,2535,0.473992945,229,"BOI","-","-","Please name all of the ways you could use this object. Keep in mind that one object can have many uses. Separate your responses with a comma.",NA,"y",26084,NA,NA,15249,20121,NA,NA,NA,"game, throw, pickup, lift, ",0.891
"5a11b458ab721b0001ef8884","9j9lx14egd","Affordance Norms_Prolific",1,29,"2023-07-25T15:13:34+00:00",11.881983995438,8,"updated stim.csv","Version8.csv","Version 8","List 8","crotch",NA,223,4.454545455,2571,0.678876617,224,"BOI","-","-","Please name all of the ways you could use this object. Keep in mind that one object can have many uses. Separate your responses with a comma.",NA,"y",11279,NA,NA,3941,6538,NA,NA,NA,"thrust",0.962
"5a11b458ab721b0001ef8884","9j9lx14egd","Affordance Norms_Prolific",1,30,"2023-07-25T15:13:47+00:00",12.633167982101,8,"updated stim.csv","Version8.csv","Version 8","List 8","pail",NA,213,4.92,76,0.32863745,214,"BOI","-","-","Please name all of the ways you could use this object. Keep in mind that one object can have many uses. Separate your responses with a comma.",NA,"y",12274,NA,NA,9107,11020,NA,NA,NA,"collect, fill",0.884
"5a11b458ab721b0001ef8884","9j9lx14egd","Affordance Norms_Prolific",1,31,"2023-07-25T15:14:01+00:00",13.972808122635,8,"updated stim.csv","Version8.csv","Version 8","List 8","quill",NA,216,5.260869565,1860,0.771460967,217,"BOI","-","-","Please name all of the ways you could use this object. Keep in mind that one object can have many uses. Separate your responses with a comma.",NA,"y",13605,NA,NA,1625,10484,NA,NA,NA,"write, design, dip, ",1
"5a11b458ab721b0001ef8884","9j9lx14egd","Affordance Norms_Prolific",1,32,"2023-07-25T15:14:14+00:00",13.372948884964,8,"updated stim.csv","Version8.csv","Version 8","List 8","hostel",NA,212,4.44,2187,0.118404242,213,"BOI","-","-","Please name all of the ways you could use this object. Keep in mind that one object can have many uses. Separate your responses with a comma.",NA,"y",12979,NA,NA,3189,6017,NA,NA,NA,"stay, business, ",1
"5a11b458ab721b0001ef8884","9j9lx14egd","Affordance Norms_Prolific",1,33,"2023-07-25T15:14:21+00:00",7.0110621452332,8,"updated stim.csv","Version8.csv","Version 8","List 8","walnut",NA,218,5.090909091,1863,0.914778388,219,"BOI","-","-","Please name all of the ways you could use this object. Keep in mind that one object can have many uses. Separate your responses with a comma.",NA,"y",6655,NA,NA,1664,5452,NA,NA,NA,"eat, crack, break, share,",1
"5a11b458ab721b0001ef8884","9j9lx14egd","Affordance Norms_Prolific",1,34,"2023-07-25T15:14:43+00:00",21.690621852875,8,"updated stim.csv","Version8.csv","Version 8","List 8","bloomers",NA,230,6,1060,0.931705867,231,"BOI","-","-","Please name all of the ways you could use this object. Keep in mind that one object can have many uses. Separate your responses with a comma.",NA,"y",21291,NA,NA,10678,19380,NA,NA,NA,"wear, wash, pack, iron",0.896
"5a11b458ab721b0001ef8884","9j9lx14egd","Affordance Norms_Prolific",1,35,"2023-07-25T15:14:50+00:00",7.2269580364227,8,"updated stim.csv","Version8.csv","Version 8","List 8","shipman",NA,237,4.571428571,82,0.707229995,238,"BOI","-","-","Please name all of the ways you could use this object. Keep in mind that one object can have many uses. Separate your responses with a comma.",NA,"y",6855,NA,NA,-1,-1,NA,NA,NA,"",1
"5a11b458ab721b0001ef8884","9j9lx14egd","Affordance Norms_Prolific",1,36,"2023-07-25T15:14:55+00:00",5.0114281177521,8,"updated stim.csv","Version8.csv","Version 8","List 8","wreath",NA,220,6.24137931,103,0.11835624,221,"BOI","-","-","Please name all of the ways you could use this object. Keep in mind that one object can have many uses. Separate your responses with a comma.",NA,"y",4594,NA,NA,1402,2646,NA,NA,NA,"lay",1
"5a11b458ab721b0001ef8884","9j9lx14egd","Affordance Norms_Prolific",1,37,"2023-07-25T15:15:08+00:00",12.909825801849,8,"updated stim.csv","Version8.csv","Version 8","List 8","fir",NA,231,4.545454545,558,0.033017559,232,"BOI","-","-","Please name all of the ways you could use this object. Keep in mind that one object can have many uses. Separate your responses with a comma.",NA,"y",12514,NA,NA,7665,10777,NA,NA,NA,"grow, trim, plant",0.943
"5a11b458ab721b0001ef8884","9j9lx14egd","Affordance Norms_Prolific",1,38,"2023-07-25T15:15:25+00:00",16.282986164093,8,"updated stim.csv","Version8.csv","Version 8","List 8","polyester",NA,225,5.807692308,894,0.26688468,226,"BOI","-","-","Please name all of the ways you could use this object. Keep in mind that one object can have many uses. Separate your responses with a comma.",NA,"y",15913,NA,NA,4530,13277,NA,NA,NA,"wash, wear, sell,",1
"5a11b458ab721b0001ef8884","9j9lx14egd","Affordance Norms_Prolific",1,39,"2023-07-25T15:15:48+00:00",23.475569009781,8,"updated stim.csv","Version8.csv","Version 8","List 8","goalpost",NA,232,4.272727273,445,0.110016369,233,"BOI","-","-","Please name all of the ways you could use this object. Keep in mind that one object can have many uses. Separate your responses with a comma.",NA,"y",23110,NA,NA,5414,8382,NA,NA,NA,"strike, game, ",1
"5a11b458ab721b0001ef8884","9j9lx14egd","Affordance Norms_Prolific",1,40,"2023-07-25T15:15:54+00:00",5.8423409461975,8,"updated stim.csv","Version8.csv","Version 8","List 8","ballplayer",NA,229,4.48,1351,0.733873145,230,"BOI","-","-","Please name all of the ways you could use this object. Keep in mind that one object can have many uses. Separate your responses with a comma.",NA,"y",5473,NA,NA,4097,4495,NA,NA,NA,"play",1
"5a50e16cf6c5170001947461","um0xam0hdo","Affordance Norms_Prolific",1,11,"2023-07-25T14:47:59+00:00",23.288635015488,21,"updated stim.csv","Version21.csv","Version 21","List 21","handcart",NA,609,5.391304348,500,0.472581554,610,"BOI","-","-","Please name all of the ways you could use this object. Keep in mind that one object can have many uses. Separate your responses with a comma.",NA,"y",20052,NA,NA,3545,18168,NA,NA,NA,"travel,storing,useful",1
"5a50e16cf6c5170001947461","um0xam0hdo","Affordance Norms_Prolific",1,13,"2023-07-25T14:48:41+00:00",18.921640872955,21,"updated stim.csv","Version21.csv","Version 21","List 21","eyewash",NA,603,5.32,34,0.622457557,604,"BOI","-","-","Please name all of the ways you could use this object. Keep in mind that one object can have many uses. Separate your responses with a comma.",NA,"y",17939,NA,NA,5578,15818,NA,NA,NA,"helpful,medical",1
"5a50e16cf6c5170001947461","um0xam0hdo","Affordance Norms_Prolific",1,14,"2023-07-25T14:48:50+00:00",9.3582079410553,21,"updated stim.csv","Version21.csv","Version 21","List 21","punchbowl",NA,629,4.28,1984,0.391387386,630,"BOI","-","-","Please name all of the ways you could use this object. Keep in mind that one object can have many uses. Separate your responses with a comma.",NA,"y",8336,NA,NA,3104,5622,NA,NA,NA,"useful",1
"5a50e16cf6c5170001947461","um0xam0hdo","Affordance Norms_Prolific",1,15,"2023-07-25T14:49:05+00:00",15.110726118088,21,"updated stim.csv","Version21.csv","Version 21","List 21","glider",NA,605,5.541666667,2436,0.966183453,606,"BOI","-","-","Please name all of the ways you could use this object. Keep in mind that one object can have many uses. Separate your responses with a comma.",NA,"y",14131,NA,NA,11335,12758,NA,NA,NA,"sport",1
"5a50e16cf6c5170001947461","um0xam0hdo","Affordance Norms_Prolific",1,16,"2023-07-25T14:49:20+00:00",15.078042030334,21,"updated stim.csv","Version21.csv","Version 21","List 21","hair",NA,607,5.913043478,738,0.205029454,608,"BOI","-","-","Please name all of the ways you could use this object. Keep in mind that one object can have many uses. Separate your responses with a comma.",NA,"y",14361,NA,NA,2993,10983,NA,NA,NA,"growth,fearure",1
"5a50e16cf6c5170001947461","um0xam0hdo","Affordance Norms_Prolific",1,17,"2023-07-25T14:49:34+00:00",13.625602006912,21,"updated stim.csv","Version21.csv","Version 21","List 21","meal",NA,613,4.565217391,2115,0.894304697,614,"BOI","-","-","Please name all of the ways you could use this object. Keep in mind that one object can have many uses. Separate your responses with a comma.",NA,"y",12612,NA,NA,2763,7503,NA,NA,NA,"healthy, fuel",1
"5a50e16cf6c5170001947461","um0xam0hdo","Affordance Norms_Prolific",1,18,"2023-07-25T14:49:44+00:00",9.5396430492401,21,"updated stim.csv","Version21.csv","Version 21","List 21","pike",NA,624,6.130434783,2170,0.00520631,625,"BOI","-","-","Please name all of the ways you could use this object. Keep in mind that one object can have many uses. Separate your responses with a comma.",NA,"y",7736,NA,NA,2958,5514,NA,NA,NA,"fish",1
"5a50e16cf6c5170001947461","um0xam0hdo","Affordance Norms_Prolific",1,19,"2023-07-25T14:49:57+00:00",13.859389781952,21,"updated stim.csv","Version21.csv","Version 21","List 21","paw",NA,622,4.541666667,348,0.410731421,623,"BOI","-","-","Please name all of the ways you could use this object. Keep in mind that one object can have many uses. Separate your responses with a comma.",NA,"y",12801,NA,NA,8878,10501,NA,NA,NA,"animal",1
"5a50e16cf6c5170001947461","um0xam0hdo","Affordance Norms_Prolific",1,20,"2023-07-25T14:50:18+00:00",20.539927005768,21,"updated stim.csv","Version21.csv","Version 21","List 21","pamphlet",NA,619,4.88,408,0.104956358,620,"BOI","-","-","Please name all of the ways you could use this object. Keep in mind that one object can have many uses. Separate your responses with a comma.",NA,"y",19830,NA,NA,2356,18678,NA,NA,NA,"information, helpful, reading, paper, ink",1
"5a50e16cf6c5170001947461","um0xam0hdo","Affordance Norms_Prolific",1,21,"2023-07-25T14:50:31+00:00",13.185314178467,21,"updated stim.csv","Version21.csv","Version 21","List 21","doorframe",NA,601,4.36,1072,0.054989468,602,"BOI","-","-","Please name all of the ways you could use this object. Keep in mind that one object can have many uses. Separate your responses with a comma.",NA,"y",12236,NA,NA,3943,7344,NA,NA,NA,"open, shut",1
"5a50e16cf6c5170001947461","um0xam0hdo","Affordance Norms_Prolific",1,22,"2023-07-25T14:50:45+00:00",14.205124855042,21,"updated stim.csv","Version21.csv","Version 21","List 21","leotard",NA,612,5.291666667,2272,0.759838801,613,"BOI","-","-","Please name all of the ways you could use this object. Keep in mind that one object can have many uses. Separate your responses with a comma.",NA,"y",12519,NA,NA,3944,8950,NA,NA,NA,"clothing,",1
"5a50e16cf6c5170001947461","um0xam0hdo","Affordance Norms_Prolific",1,23,"2023-07-25T14:50:51+00:00",5.981605052948,21,"updated stim.csv","Version21.csv","Version 21","List 21","pimento",NA,625,5.037037037,2901,0.496721159,626,"BOI","-","-","Please name all of the ways you could use this object. Keep in mind that one object can have many uses. Separate your responses with a comma.",NA,"y",5015,NA,NA,-1,-1,NA,NA,NA,"",1
"5a50e16cf6c5170001947461","um0xam0hdo","Affordance Norms_Prolific",1,24,"2023-07-25T14:51:04+00:00",12.396275043488,21,"updated stim.csv","Version21.csv","Version 21","List 21","memorabilia",NA,614,5.76,196,0.555805327,615,"BOI","-","-","Please name all of the ways you could use this object. Keep in mind that one object can have many uses. Separate your responses with a comma.",NA,"y",11744,NA,NA,4494,10215,NA,NA,NA,"memories,keepsake",1
"5a50e16cf6c5170001947461","um0xam0hdo","Affordance Norms_Prolific",1,25,"2023-07-25T14:51:17+00:00",13.693940877914,21,"updated stim.csv","Version21.csv","Version 21","List 21","icebox",NA,610,4.458333333,2304,0.605127755,611,"BOI","-","-","Please name all of the ways you could use this object. Keep in mind that one object can have many uses. Separate your responses with a comma.",NA,"y",12650,NA,NA,2976,9046,NA,NA,NA,"ice,storage",1
"5a50e16cf6c5170001947461","um0xam0hdo","Affordance Norms_Prolific",1,26,"2023-07-25T14:51:31+00:00",13.304949045181,21,"updated stim.csv","Version21.csv","Version 21","List 21","forearm",NA,604,5.125,1058,0.312710997,605,"BOI","-","-","Please name all of the ways you could use this object. Keep in mind that one object can have many uses. Separate your responses with a comma.",NA,"y",12274,NA,NA,2218,10310,NA,NA,NA,"body,limb,movement",1
"5a50e16cf6c5170001947461","um0xam0hdo","Affordance Norms_Prolific",1,27,"2023-07-25T14:51:40+00:00",8.8334250450134,21,"updated stim.csv","Version21.csv","Version 21","List 21","mountainside",NA,615,5.333333333,2587,0.961970071,616,"BOI","-","-","Please name all of the ways you could use this object. Keep in mind that one object can have many uses. Separate your responses with a comma.",NA,"y",7838,NA,NA,-1,-1,NA,NA,NA,"",1
"5a50e16cf6c5170001947461","um0xam0hdo","Affordance Norms_Prolific",1,28,"2023-07-25T14:51:57+00:00",17.474677085876,21,"updated stim.csv","Version21.csv","Version 21","List 21","pistol",NA,627,4.913043478,1189,0.51706315,628,"BOI","-","-","Please name all of the ways you could use this object. Keep in mind that one object can have many uses. Separate your responses with a comma.",NA,"y",16638,NA,NA,2704,15119,NA,NA,NA,"shoot,harm,hunt,weapon",1
"5a50e16cf6c5170001947461","um0xam0hdo","Affordance Norms_Prolific",1,29,"2023-07-25T14:52:17+00:00",19.597966909409,21,"updated stim.csv","Version21.csv","Version 21","List 21","mug",NA,617,5.166666667,1350,0.213044893,618,"BOI","-","-","Please name all of the ways you could use this object. Keep in mind that one object can have many uses. Separate your responses with a comma.",NA,"y",18737,NA,NA,4491,10173,NA,NA,NA,"useful,",1
"5a50e16cf6c5170001947461","um0xam0hdo","Affordance Norms_Prolific",1,30,"2023-07-25T14:52:26+00:00",9.5992879867554,21,"updated stim.csv","Version21.csv","Version 21","List 21","moustache",NA,616,4.75,1712,0.151193811,617,"BOI","-","-","Please name all of the ways you could use this object. Keep in mind that one object can have many uses. Separate your responses with a comma.",NA,"y",8619,NA,NA,3501,5835,NA,NA,NA,"hair",1
"5a50e16cf6c5170001947461","um0xam0hdo","Affordance Norms_Prolific",1,31,"2023-07-25T14:52:42+00:00",15.582346916199,21,"updated stim.csv","Version21.csv","Version 21","List 21","handball",NA,608,4.782608696,2933,0.200273959,609,"BOI","-","-","Please name all of the ways you could use this object. Keep in mind that one object can have many uses. Separate your responses with a comma.",NA,"y",14554,NA,NA,3930,13027,NA,NA,NA,"round,throw,sports",1
"5a50e16cf6c5170001947461","um0xam0hdo","Affordance Norms_Prolific",1,32,"2023-07-25T14:53:00+00:00",18.068179130554,21,"updated stim.csv","Version21.csv","Version 21","List 21","parsley",NA,621,5.12,395,0.211302837,622,"BOI","-","-","Please name all of the ways you could use this object. Keep in mind that one object can have many uses. Separate your responses with a comma.",NA,"y",17224,NA,NA,2892,15738,NA,NA,NA,"grow,fresh,herb,cooking,flavour",1
"5a50e16cf6c5170001947461","um0xam0hdo","Affordance Norms_Prolific",1,33,"2023-07-25T14:53:11+00:00",10.782971858978,21,"updated stim.csv","Version21.csv","Version 21","List 21","pelvis",NA,623,4.52,2532,0.748126488,624,"BOI","-","-","Please name all of the ways you could use this object. Keep in mind that one object can have many uses. Separate your responses with a comma.",NA,"y",9808,NA,NA,3571,8136,NA,NA,NA,"body,bones,",1
"5a50e16cf6c5170001947461","um0xam0hdo","Affordance Norms_Prolific",1,34,"2023-07-25T14:53:32+00:00",21.07622218132,21,"updated stim.csv","Version21.csv","Version 21","List 21","pinball",NA,626,4.96,2474,0.316902867,627,"BOI","-","-","Please name all of the ways you could use this object. Keep in mind that one object can have many uses. Separate your responses with a comma.",NA,"y",20177,NA,NA,3281,18608,NA,NA,NA,"games,machine,play",1
"5a50e16cf6c5170001947461","um0xam0hdo","Affordance Norms_Prolific",1,35,"2023-07-25T14:53:35+00:00",3.6408610343933,21,"updated stim.csv","Version21.csv","Version 21","List 21","ophthalmologist",NA,618,4.958333333,2477,0.375782064,619,"BOI","-","-","Please name all of the ways you could use this object. Keep in mind that one object can have many uses. Separate your responses with a comma.",NA,"y",2716,NA,NA,-1,-1,NA,NA,NA,"",1
"5a50e16cf6c5170001947461","um0xam0hdo","Affordance Norms_Prolific",1,36,"2023-07-25T14:53:49+00:00",13.754678964615,21,"updated stim.csv","Version21.csv","Version 21","List 21","lawn",NA,611,5.185185185,1820,0.477300305,612,"BOI","-","-","Please name all of the ways you could use this object. Keep in mind that one object can have many uses. Separate your responses with a comma.",NA,"y",12914,NA,NA,5169,9559,NA,NA,NA,"fresh,green",1
"5a50e16cf6c5170001947461","um0xam0hdo","Affordance Norms_Prolific",1,37,"2023-07-25T14:54:00+00:00",11.143844842911,21,"updated stim.csv","Version21.csv","Version 21","List 21","paperweight",NA,620,4.678571429,623,0.282304847,621,"BOI","-","-","Please name all of the ways you could use this object. Keep in mind that one object can have many uses. Separate your responses with a comma.",NA,"y",10206,NA,NA,2681,4432,NA,NA,NA,"heavy",1
"5a50e16cf6c5170001947461","um0xam0hdo","Affordance Norms_Prolific",1,38,"2023-07-25T14:54:04+00:00",3.7719349861145,21,"updated stim.csv","Version21.csv","Version 21","List 21","dumbwaiter",NA,602,5.222222222,2720,0.520201344,603,"BOI","-","-","Please name all of the ways you could use this object. Keep in mind that one object can have many uses. Separate your responses with a comma.",NA,"y",2785,NA,NA,-1,-1,NA,NA,NA,"",1
"5a50e16cf6c5170001947461","um0xam0hdo","Affordance Norms_Prolific",1,39,"2023-07-25T14:54:16+00:00",12.299052000046,21,"updated stim.csv","Version21.csv","Version 21","List 21","grape",NA,606,4.925925926,1529,0.691592618,607,"BOI","-","-","Please name all of the ways you could use this object. Keep in mind that one object can have many uses. Separate your responses with a comma.",NA,"y",11596,NA,NA,2242,10268,NA,NA,NA,"fresh,fruit food",1
"5a50e16cf6c5170001947461","um0xam0hdo","Affordance Norms_Prolific",1,40,"2023-07-25T14:54:32+00:00",15.514922142029,21,"updated stim.csv","Version21.csv","Version 21","List 21","plank",NA,628,5.875,1197,0.232209206,629,"BOI","-","-","Please name all of the ways you could use this object. Keep in mind that one object can have many uses. Separate your responses with a comma.",NA,"y",14717,NA,NA,3234,13235,NA,NA,NA,"wood,beam,building ",1
"5aeb5c9f0f8859000190a19b","cmdp04fq4w","Affordance Norms_Prolific",1,11,"2023-07-25T15:31:08+00:00",15.581435918808,12,"updated stim.csv","Version12.csv","Version 12","List 12","companion",NA,342,5.523809524,1628,0.940541237,343,"BOI","-","-","Please name all of the ways you could use this object. Keep in mind that one object can have many uses. Separate your responses with a comma.",NA,"y",15155,NA,NA,-1,-1,NA,NA,NA,"Friend, company, partner",1
"5aeb5c9f0f8859000190a19b","cmdp04fq4w","Affordance Norms_Prolific",1,12,"2023-07-25T15:31:22+00:00",14.361607074738,12,"updated stim.csv","Version12.csv","Version 12","List 12","chocolate",NA,337,4.37037037,164,0.261790448,338,"BOI","-","-","Please name all of the ways you could use this object. Keep in mind that one object can have many uses. Separate your responses with a comma.",NA,"y",13950,NA,NA,-1,-1,NA,NA,NA,"Food, ingredient, treat, gift, celebration",1
"5aeb5c9f0f8859000190a19b","cmdp04fq4w","Affordance Norms_Prolific",1,13,"2023-07-25T15:31:37+00:00",15.199806928635,12,"updated stim.csv","Version12.csv","Version 12","List 12","doughnut",NA,347,5.76,620,0.735373904,348,"BOI","-","-","Please name all of the ways you could use this object. Keep in mind that one object can have many uses. Separate your responses with a comma.",NA,"y",14770,NA,NA,-1,-1,NA,NA,NA,"Food, treat, sweet, gift, surprise",1
"5aeb5c9f0f8859000190a19b","cmdp04fq4w","Affordance Norms_Prolific",1,14,"2023-07-25T15:31:56+00:00",18.993698120117,12,"updated stim.csv","Version12.csv","Version 12","List 12","gin",NA,351,5.958333333,865,0.537684107,352,"BOI","-","-","Please name all of the ways you could use this object. Keep in mind that one object can have many uses. Separate your responses with a comma.",NA,"y",18586,NA,NA,-1,-1,NA,NA,NA,"Drink, gift, cocktails",1
"5aeb5c9f0f8859000190a19b","cmdp04fq4w","Affordance Norms_Prolific",1,15,"2023-07-25T15:32:09+00:00",12.167754888535,12,"updated stim.csv","Version12.csv","Version 12","List 12","choreographer",NA,338,5.821428571,1741,0.573731001,339,"BOI","-","-","Please name all of the ways you could use this object. Keep in mind that one object can have many uses. Separate your responses with a comma.",NA,"y",11738,NA,NA,-1,-1,NA,NA,NA,"Dance, improvement, teamwork",1
"5aeb5c9f0f8859000190a19b","cmdp04fq4w","Affordance Norms_Prolific",1,16,"2023-07-25T15:32:16+00:00",7.6583070755005,12,"updated stim.csv","Version12.csv","Version 12","List 12","classmate",NA,341,5.086956522,1291,0.796894413,342,"BOI","-","-","Please name all of the ways you could use this object. Keep in mind that one object can have many uses. Separate your responses with a comma.",NA,"y",7251,NA,NA,-1,-1,NA,NA,NA,"Friend, study",1
"5aeb5c9f0f8859000190a19b","cmdp04fq4w","Affordance Norms_Prolific",1,17,"2023-07-25T15:32:41+00:00",24.603434085846,12,"updated stim.csv","Version12.csv","Version 12","List 12","cigar",NA,340,4.36,1582,0.724230565,341,"BOI","-","-","Please name all of the ways you could use this object. Keep in mind that one object can have many uses. Separate your responses with a comma.",NA,"y",24179,NA,NA,-1,-1,NA,NA,NA,"Smoke, celebration, gift, lighter",1
"5aeb5c9f0f8859000190a19b","cmdp04fq4w","Affordance Norms_Prolific",1,18,"2023-07-25T15:33:19+00:00",37.718077898026,12,"updated stim.csv","Version12.csv","Version 12","List 12","guillotine",NA,354,4.583333333,1325,0.78313885,355,"BOI","-","-","Please name all of the ways you could use this object. Keep in mind that one object can have many uses. Separate your responses with a comma.",NA,"y",37322,NA,NA,-1,-1,NA,NA,NA,"Murder, excecution",1
"5aeb5c9f0f8859000190a19b","cmdp04fq4w","Affordance Norms_Prolific",1,19,"2023-07-25T15:33:26+00:00",7.1049070358276,12,"updated stim.csv","Version12.csv","Version 12","List 12","hibiscus",NA,357,4.625,2450,0.34986421,358,"BOI","-","-","Please name all of the ways you could use this object. Keep in mind that one object can have many uses. Separate your responses with a comma.",NA,"y",6712,NA,NA,-1,-1,NA,NA,NA,"Tea, food",1
"5aeb5c9f0f8859000190a19b","cmdp04fq4w","Affordance Norms_Prolific",1,20,"2023-07-25T15:33:35+00:00",9.17307305336,12,"updated stim.csv","Version12.csv","Version 12","List 12","coupon",NA,344,5.84,2542,0.41824356,345,"BOI","-","-","Please name all of the ways you could use this object. Keep in mind that one object can have many uses. Separate your responses with a comma.",NA,"y",8747,NA,NA,-1,-1,NA,NA,NA,"Savings, gifts, surprises",1
"5aeb5c9f0f8859000190a19b","cmdp04fq4w","Affordance Norms_Prolific",1,21,"2023-07-25T15:33:53+00:00",17.918071985245,12,"updated stim.csv","Version12.csv","Version 12","List 12","grandfather",NA,352,5.346153846,1586,0.963710737,353,"BOI","-","-","Please name all of the ways you could use this object. Keep in mind that one object can have many uses. Separate your responses with a comma.",NA,"y",17489,NA,NA,-1,-1,NA,NA,NA,"Family, childcare, father figure",1
"5aeb5c9f0f8859000190a19b","cmdp04fq4w","Affordance Norms_Prolific",1,22,"2023-07-25T15:33:58+00:00",5.7584719657898,12,"updated stim.csv","Version12.csv","Version 12","List 12","cornmeal",NA,343,5.916666667,1015,0.960657599,344,"BOI","-","-","Please name all of the ways you could use this object. Keep in mind that one object can have many uses. Separate your responses with a comma.",NA,"y",5362,NA,NA,-1,-1,NA,NA,NA,"Food, ingredient",1
"5aeb5c9f0f8859000190a19b","cmdp04fq4w","Affordance Norms_Prolific",1,23,"2023-07-25T15:34:16+00:00",17.803111076355,12,"updated stim.csv","Version12.csv","Version 12","List 12","buck",NA,332,4.76,2202,0.999381206,333,"BOI","-","-","Please name all of the ways you could use this object. Keep in mind that one object can have many uses. Separate your responses with a comma.",NA,"y",17390,NA,NA,-1,-1,NA,NA,NA,"Food, money, gift, ornamnet",1
"5aeb5c9f0f8859000190a19b","cmdp04fq4w","Affordance Norms_Prolific",1,24,"2023-07-25T15:35:17+00:00",60.681150913239,12,"updated stim.csv","Version12.csv","Version 12","List 12","donkey",NA,345,5.32,193,0.704074452,346,"BOI","-","-","Please name all of the ways you could use this object. Keep in mind that one object can have many uses. Separate your responses with a comma.",NA,"y",60272,NA,NA,-1,-1,NA,NA,NA,"Carriage, ride, help",0.89
"5aeb5c9f0f8859000190a19b","cmdp04fq4w","Affordance Norms_Prolific",1,25,"2023-07-25T15:35:27+00:00",10.273147106171,12,"updated stim.csv","Version12.csv","Version 12","List 12","carp",NA,334,5.626180837,2568,0.200879423,335,"BOI","-","-","Please name all of the ways you could use this object. Keep in mind that one object can have many uses. Separate your responses with a comma.",NA,"y",9873,NA,NA,-1,-1,NA,NA,NA,"Food, bait, pest control",1
"5aeb5c9f0f8859000190a19b","cmdp04fq4w","Affordance Norms_Prolific",1,26,"2023-07-25T15:35:41+00:00",14.225651025772,12,"updated stim.csv","Version12.csv","Version 12","List 12","cheek",NA,335,4.28,750,0.234031096,336,"BOI","-","-","Please name all of the ways you could use this object. Keep in mind that one object can have many uses. Separate your responses with a comma.",NA,"y",13801,NA,NA,-1,-1,NA,NA,NA,"Food, DNA, eating, drinking",1
"5aeb5c9f0f8859000190a19b","cmdp04fq4w","Affordance Norms_Prolific",1,27,"2023-07-25T15:35:53+00:00",11.69771194458,12,"updated stim.csv","Version12.csv","Version 12","List 12","gravestone",NA,353,4.64,156,0.909538497,354,"BOI","-","-","Please name all of the ways you could use this object. Keep in mind that one object can have many uses. Separate your responses with a comma.",NA,"y",11283,NA,NA,-1,-1,NA,NA,NA,"Death, marker, landmark, remeberence",1
"5aeb5c9f0f8859000190a19b","cmdp04fq4w","Affordance Norms_Prolific",1,28,"2023-07-25T15:36:00+00:00",7.301383972168,12,"updated stim.csv","Version12.csv","Version 12","List 12","cantaloupe",NA,333,5.583333333,493,0.717474064,334,"BOI","-","-","Please name all of the ways you could use this object. Keep in mind that one object can have many uses. Separate your responses with a comma.",NA,"y",6886,NA,NA,-1,-1,NA,NA,NA,"Food",1
"5aeb5c9f0f8859000190a19b","cmdp04fq4w","Affordance Norms_Prolific",1,29,"2023-07-25T15:36:40+00:00",39.983170986176,12,"updated stim.csv","Version12.csv","Version 12","List 12","chip",NA,336,4.541666667,808,0.423772685,337,"BOI","-","-","Please name all of the ways you could use this object. Keep in mind that one object can have many uses. Separate your responses with a comma.",NA,"y",39556,NA,NA,-1,-1,NA,NA,NA,"Food, poker, money, tips",1
"5aeb5c9f0f8859000190a19b","cmdp04fq4w","Affordance Norms_Prolific",1,30,"2023-07-25T15:36:50+00:00",9.6206419467926,12,"updated stim.csv","Version12.csv","Version 12","List 12","keg",NA,359,4.916666667,584,0.98810054,360,"BOI","-","-","Please name all of the ways you could use this object. Keep in mind that one object can have many uses. Separate your responses with a comma.",NA,"y",9184,NA,NA,-1,-1,NA,NA,NA,"Party, drinks, storage",1
"5aeb5c9f0f8859000190a19b","cmdp04fq4w","Affordance Norms_Prolific",1,31,"2023-07-25T15:36:58+00:00",7.5537431240082,12,"updated stim.csv","Version12.csv","Version 12","List 12","chronograph",NA,339,4.703703704,1714,0.382484128,340,"BOI","-","-","Please name all of the ways you could use this object. Keep in mind that one object can have many uses. Separate your responses with a comma.",NA,"y",7117,NA,NA,-1,-1,NA,NA,NA,"I am not sure what this is",1
"5aeb5c9f0f8859000190a19b","cmdp04fq4w","Affordance Norms_Prolific",1,32,"2023-07-25T15:37:15+00:00",17.311272859573,12,"updated stim.csv","Version12.csv","Version 12","List 12","hairstylist",NA,356,4.392857143,2360,0.644561162,357,"BOI","-","-","Please name all of the ways you could use this object. Keep in mind that one object can have many uses. Separate your responses with a comma.",NA,"y",16895,NA,NA,-1,-1,NA,NA,NA,"Style, maintenance, self-care",1
"5aeb5c9f0f8859000190a19b","cmdp04fq4w","Affordance Norms_Prolific",1,33,"2023-07-25T15:37:29+00:00",14.112529039383,12,"updated stim.csv","Version12.csv","Version 12","List 12","junk",NA,358,5.041666667,482,0.737715679,359,"BOI","-","-","Please name all of the ways you could use this object. Keep in mind that one object can have many uses. Separate your responses with a comma.",NA,"y",13699,NA,NA,-1,-1,NA,NA,NA,"Waste, recycling",1
"5aeb5c9f0f8859000190a19b","cmdp04fq4w","Affordance Norms_Prolific",1,34,"2023-07-25T15:37:43+00:00",13.908128023148,12,"updated stim.csv","Version12.csv","Version 12","List 12","garment",NA,350,4.782608696,2378,0.890528918,351,"BOI","-","-","Please name all of the ways you could use this object. Keep in mind that one object can have many uses. Separate your responses with a comma.",NA,"y",13455,NA,NA,-1,-1,NA,NA,NA,"Wear, donate, recycle, reuse, party,sleep",1
"5aeb5c9f0f8859000190a19b","cmdp04fq4w","Affordance Norms_Prolific",1,35,"2023-07-25T15:37:54+00:00",11.022671937943,12,"updated stim.csv","Version12.csv","Version 12","List 12","brow",NA,331,4.791666667,384,0.176677262,332,"BOI","-","-","Please name all of the ways you could use this object. Keep in mind that one object can have many uses. Separate your responses with a comma.",NA,"y",10596,NA,NA,-1,-1,NA,NA,NA,"Not sure on how to use a brow",1
"5aeb5c9f0f8859000190a19b","cmdp04fq4w","Affordance Norms_Prolific",1,36,"2023-07-25T15:38:12+00:00",18.257899045944,12,"updated stim.csv","Version12.csv","Version 12","List 12","lamp",NA,360,5.041666667,2365,0.714334081,361,"BOI","-","-","Please name all of the ways you could use this object. Keep in mind that one object can have many uses. Separate your responses with a comma.",NA,"y",17050,NA,NA,-1,-1,NA,NA,NA,"Light, impromptu weapon, reading",1
"5aeb5c9f0f8859000190a19b","cmdp04fq4w","Affordance Norms_Prolific",1,37,"2023-07-25T15:38:29+00:00",16.683471918106,12,"updated stim.csv","Version12.csv","Version 12","List 12","doornail",NA,346,4.32,1064,0.562088746,347,"BOI","-","-","Please name all of the ways you could use this object. Keep in mind that one object can have many uses. Separate your responses with a comma.",NA,"y",13836,NA,NA,-1,-1,NA,NA,NA,"Fastening, securing",1
"5aeb5c9f0f8859000190a19b","cmdp04fq4w","Affordance Norms_Prolific",1,38,"2023-07-25T15:38:49+00:00",20.377921104431,12,"updated stim.csv","Version12.csv","Version 12","List 12","forefinger",NA,349,5.875,2714,0.989271668,350,"BOI","-","-","Please name all of the ways you could use this object. Keep in mind that one object can have many uses. Separate your responses with a comma.",NA,"y",18756,NA,NA,-1,-1,NA,NA,NA,"Pointing, selecting, scratching, indexing, scanning, tracking",1
"5aeb5c9f0f8859000190a19b","cmdp04fq4w","Affordance Norms_Prolific",1,39,"2023-07-25T15:39:06+00:00",16.684521913528,12,"updated stim.csv","Version12.csv","Version 12","List 12","gumdrop",NA,355,5.260869565,1974,0.365615857,356,"BOI","-","-","Please name all of the ways you could use this object. Keep in mind that one object can have many uses. Separate your responses with a comma.",NA,"y",15316,NA,NA,-1,-1,NA,NA,NA,"Eating, food, decoration, ",1
"5aeb5c9f0f8859000190a19b","cmdp04fq4w","Affordance Norms_Prolific",1,40,"2023-07-25T15:39:18+00:00",11.955950021744,12,"updated stim.csv","Version12.csv","Version 12","List 12","earmuff",NA,348,4.962962963,567,0.361293617,349,"BOI","-","-","Please name all of the ways you could use this object. Keep in mind that one object can have many uses. Separate your responses with a comma.",NA,"y",10635,NA,NA,-1,-1,NA,NA,NA,"Warmth, wear,style, winter clothes",1
"5ba4d89abf3b9d000152023c","aivdo3zvp5","Affordance Norms_Prolific",1,11,"2023-07-25T18:26:50+00:00",72.344865083694,21,"updated stim.csv","Version21.csv","Version 21","List 21","parsley",NA,621,5.12,395,0.211302837,622,"BOI","-","-","Please name all of the ways you could use this object. Keep in mind that one object can have many uses. Separate your responses with a comma.",NA,"y",71517,NA,NA,5482,69618,NA,NA,NA,"eat, throw, step on, jump on, jump over, extra vitamins in diet, pet food, ",1
"5ba4d89abf3b9d000152023c","aivdo3zvp5","Affordance Norms_Prolific",1,12,"2023-07-25T18:27:39+00:00",48.555755853653,21,"updated stim.csv","Version21.csv","Version 21","List 21","paperweight",NA,620,4.678571429,623,0.282304847,621,"BOI","-","-","Please name all of the ways you could use this object. Keep in mind that one object can have many uses. Separate your responses with a comma.",NA,"y",48178,NA,NA,5202,45884,NA,NA,NA,"put on paper, throw, step on, jump on, jump over, stand on to reach, give, get, weigh, decoration",1
"5ba4d89abf3b9d000152023c","aivdo3zvp5","Affordance Norms_Prolific",1,13,"2023-07-25T18:28:26+00:00",46.576862096786,21,"updated stim.csv","Version21.csv","Version 21","List 21","forearm",NA,604,5.125,1058,0.312710997,605,"BOI","-","-","Please name all of the ways you could use this object. Keep in mind that one object can have many uses. Separate your responses with a comma.",NA,"y",46165,NA,NA,9248,45628,NA,NA,NA,"push, hit, rest, exercise, impress, tattoo",1
"5ba4d89abf3b9d000152023c","aivdo3zvp5","Affordance Norms_Prolific",1,14,"2023-07-25T18:29:06+00:00",40.041749954224,21,"updated stim.csv","Version21.csv","Version 21","List 21","paw",NA,622,4.541666667,348,0.410731421,623,"BOI","-","-","Please name all of the ways you could use this object. Keep in mind that one object can have many uses. Separate your responses with a comma.",NA,"y",39669,NA,NA,5473,38536,NA,NA,NA,"hold, pat, ask for, stroke, immobilize, tickle",1
"5ba4d89abf3b9d000152023c","aivdo3zvp5","Affordance Norms_Prolific",1,15,"2023-07-25T18:29:41+00:00",35.006839036942,21,"updated stim.csv","Version21.csv","Version 21","List 21","memorabilia",NA,614,5.76,196,0.555805327,615,"BOI","-","-","Please name all of the ways you could use this object. Keep in mind that one object can have many uses. Separate your responses with a comma.",NA,"y",34645,NA,NA,4320,33352,NA,NA,NA,"look at, organize, discuss, show, nostalgia, gift, recieve ",1
"5ba4d89abf3b9d000152023c","aivdo3zvp5","Affordance Norms_Prolific",1,16,"2023-07-25T18:30:19+00:00",38.380854845047,21,"updated stim.csv","Version21.csv","Version 21","List 21","pistol",NA,627,4.913043478,1189,0.51706315,628,"BOI","-","-","Please name all of the ways you could use this object. Keep in mind that one object can have many uses. Separate your responses with a comma.",NA,"y",38007,NA,NA,5144,37057,NA,NA,NA,"throw, step on, jump on, jump over, shoot, clean, examine, hit, fire, scare, protect, poke, threaten",1
"5ba4d89abf3b9d000152023c","aivdo3zvp5","Affordance Norms_Prolific",1,17,"2023-07-25T18:31:04+00:00",44.530124187469,21,"updated stim.csv","Version21.csv","Version 21","List 21","ophthalmologist",NA,618,4.958333333,2477,0.375782064,619,"BOI","-","-","Please name all of the ways you could use this object. Keep in mind that one object can have many uses. Separate your responses with a comma.",NA,"y",44118,NA,NA,3265,33543,NA,NA,NA,"meet, pay, examine, visit, hug, kiss, pay, appointment, ",1
"5ba4d89abf3b9d000152023c","aivdo3zvp5","Affordance Norms_Prolific",1,18,"2023-07-25T18:31:32+00:00",28.318724870682,21,"updated stim.csv","Version21.csv","Version 21","List 21","leotard",NA,612,5.291666667,2272,0.759838801,613,"BOI","-","-","Please name all of the ways you could use this object. Keep in mind that one object can have many uses. Separate your responses with a comma.",NA,"y",27908,NA,NA,3632,26092,NA,NA,NA,"look, wear, fit, wash, clean, launder, throw, step on, jump on, jump over, stretch, cover",1
"5ba4d89abf3b9d000152023c","aivdo3zvp5","Affordance Norms_Prolific",1,19,"2023-07-25T18:32:20+00:00",48.313030958176,21,"updated stim.csv","Version21.csv","Version 21","List 21","plank",NA,628,5.875,1197,0.232209206,629,"BOI","-","-","Please name all of the ways you could use this object. Keep in mind that one object can have many uses. Separate your responses with a comma.",NA,"y",47902,NA,NA,6711,45898,NA,NA,NA,"throw, step on, jump on, jump over, floor, roof, walls, build, polish, varnish, walkway",1
"5ba4d89abf3b9d000152023c","aivdo3zvp5","Affordance Norms_Prolific",1,20,"2023-07-25T18:32:59+00:00",38.646381139755,21,"updated stim.csv","Version21.csv","Version 21","List 21","pike",NA,624,6.130434783,2170,0.00520631,625,"BOI","-","-","Please name all of the ways you could use this object. Keep in mind that one object can have many uses. Separate your responses with a comma.",NA,"y",37473,NA,NA,2430,36022,NA,NA,NA,"stab, move, throw, step on, jump on, jump over, gift, threaten, clean, rub, endanger, hunt",1
"5ba4d89abf3b9d000152023c","aivdo3zvp5","Affordance Norms_Prolific",1,21,"2023-07-25T18:33:44+00:00",45.283042907715,21,"updated stim.csv","Version21.csv","Version 21","List 21","hair",NA,607,5.913043478,738,0.205029454,608,"BOI","-","-","Please name all of the ways you could use this object. Keep in mind that one object can have many uses. Separate your responses with a comma.",NA,"y",44904,NA,NA,4672,42965,NA,NA,NA,"brush, wash, clean, throw, step on, jump on, jump over, shampoo, condition, strain soup, make clothes",1
"5ba4d89abf3b9d000152023c","aivdo3zvp5","Affordance Norms_Prolific",1,22,"2023-07-25T18:34:38+00:00",54.008877038956,21,"updated stim.csv","Version21.csv","Version 21","List 21","dumbwaiter",NA,602,5.222222222,2720,0.520201344,603,"BOI","-","-","Please name all of the ways you could use this object. Keep in mind that one object can have many uses. Separate your responses with a comma.",NA,"y",53634,NA,NA,12482,52415,NA,NA,NA,"put in, carry food, retrieve dishes, hide in, bang, polish, store things",1
"5ba4d89abf3b9d000152023c","aivdo3zvp5","Affordance Norms_Prolific",1,23,"2023-07-25T18:34:58+00:00",20.308799982071,21,"updated stim.csv","Version21.csv","Version 21","List 21","pinball",NA,626,4.96,2474,0.316902867,627,"BOI","-","-","Please name all of the ways you could use this object. Keep in mind that one object can have many uses. Separate your responses with a comma.",NA,"y",19936,NA,NA,1811,17128,NA,NA,NA,"play, bang, nidge, watch, fix, repair, enjoy, ",1
"5ba4d89abf3b9d000152023c","aivdo3zvp5","Affordance Norms_Prolific",1,24,"2023-07-25T18:35:34+00:00",35.920078039169,21,"updated stim.csv","Version21.csv","Version 21","List 21","punchbowl",NA,629,4.28,1984,0.391387386,630,"BOI","-","-","Please name all of the ways you could use this object. Keep in mind that one object can have many uses. Separate your responses with a comma.",NA,"y",35478,NA,NA,3372,33809,NA,NA,NA,"fill, drink from, hat, throw, step on, jump on, jump over, paperweight, look at, knock for a ting sound",1
"5ba4d89abf3b9d000152023c","aivdo3zvp5","Affordance Norms_Prolific",1,25,"2023-07-25T18:36:23+00:00",48.318469047546,21,"updated stim.csv","Version21.csv","Version 21","List 21","pimento",NA,625,5.037037037,2901,0.496721159,626,"BOI","-","-","Please name all of the ways you could use this object. Keep in mind that one object can have many uses. Separate your responses with a comma.",NA,"y",47909,NA,NA,22574,46693,NA,NA,NA,"throw, step on, jump on, jump over, eat, throw, cook with, point at, skin treatment",0.91
"5ba4d89abf3b9d000152023c","aivdo3zvp5","Affordance Norms_Prolific",1,26,"2023-07-25T18:37:10+00:00",47.787341833115,21,"updated stim.csv","Version21.csv","Version 21","List 21","icebox",NA,610,4.458333333,2304,0.605127755,611,"BOI","-","-","Please name all of the ways you could use this object. Keep in mind that one object can have many uses. Separate your responses with a comma.",NA,"y",47270,NA,NA,3367,44221,NA,NA,NA,"store, cool, warm, make ice cubes, thaw, power",1
"5ba4d89abf3b9d000152023c","aivdo3zvp5","Affordance Norms_Prolific",1,27,"2023-07-25T18:37:42+00:00",31.386173009872,21,"updated stim.csv","Version21.csv","Version 21","List 21","handball",NA,608,4.782608696,2933,0.200273959,609,"BOI","-","-","Please name all of the ways you could use this object. Keep in mind that one object can have many uses. Separate your responses with a comma.",NA,"y",30971,NA,NA,5147,30119,NA,NA,NA,"throw, step on, jump on, jump over, juggle, throw, catch, weapon, puncture, fix, exercise",1
"5ba4d89abf3b9d000152023c","aivdo3zvp5","Affordance Norms_Prolific",1,28,"2023-07-25T18:38:22+00:00",40.642847061157,21,"updated stim.csv","Version21.csv","Version 21","List 21","mountainside",NA,615,5.333333333,2587,0.961970071,616,"BOI","-","-","Please name all of the ways you could use this object. Keep in mind that one object can have many uses. Separate your responses with a comma.",NA,"y",40274,NA,NA,1853,39267,NA,NA,NA,"run, jump, climb, hike, exercise, see view, copulate, investigate, etc",1
"5ba4d89abf3b9d000152023c","aivdo3zvp5","Affordance Norms_Prolific",1,29,"2023-07-25T18:39:06+00:00",43.324261903763,21,"updated stim.csv","Version21.csv","Version 21","List 21","pamphlet",NA,619,4.88,408,0.104956358,620,"BOI","-","-","Please name all of the ways you could use this object. Keep in mind that one object can have many uses. Separate your responses with a comma.",NA,"y",42914,NA,NA,4508,40055,NA,NA,NA,"read, write on, spare paper, blow nose, wipe bum, wipe anything, origami, throw, step on, jump on, jump over",1
"5ba4d89abf3b9d000152023c","aivdo3zvp5","Affordance Norms_Prolific",1,30,"2023-07-25T18:39:53+00:00",47.524322032928,21,"updated stim.csv","Version21.csv","Version 21","List 21","grape",NA,606,4.925925926,1529,0.691592618,607,"BOI","-","-","Please name all of the ways you could use this object. Keep in mind that one object can have many uses. Separate your responses with a comma.",NA,"y",47118,NA,NA,1994,46209,NA,NA,NA,"eat, grow, wine, taste, throw, catch, juice, hybrid gardening, fake nose",1
"5ba4d89abf3b9d000152023c","aivdo3zvp5","Affordance Norms_Prolific",1,31,"2023-07-25T18:40:40+00:00",46.69305896759,21,"updated stim.csv","Version21.csv","Version 21","List 21","pelvis",NA,623,4.52,2532,0.748126488,624,"BOI","-","-","Please name all of the ways you could use this object. Keep in mind that one object can have many uses. Separate your responses with a comma.",NA,"y",46288,NA,NA,1927,44901,NA,NA,NA,"thrust, push, give birth, receive pleasure, hold up jeans, form part of body",1
"5ba4d89abf3b9d000152023c","aivdo3zvp5","Affordance Norms_Prolific",1,32,"2023-07-25T18:40:50+00:00",10.221915006638,21,"updated stim.csv","Version21.csv","Version 21","List 21","mug",NA,617,5.166666667,1350,0.213044893,618,"BOI","-","-","Please name all of the ways you could use this object. Keep in mind that one object can have many uses. Separate your responses with a comma.",NA,"y",9855,NA,NA,-1,-1,NA,NA,NA,"throw, step on, jump on, jump over",0.892
"5ba4d89abf3b9d000152023c","aivdo3zvp5","Affordance Norms_Prolific",1,33,"2023-07-25T18:41:01+00:00",10.450257062912,21,"updated stim.csv","Version21.csv","Version 21","List 21","eyewash",NA,603,5.32,34,0.622457557,604,"BOI","-","-","Please name all of the ways you could use this object. Keep in mind that one object can have many uses. Separate your responses with a comma.",NA,"y",10042,NA,NA,-1,-1,NA,NA,NA,"throw, step on, jump on, jump over",1
"5ba4d89abf3b9d000152023c","aivdo3zvp5","Affordance Norms_Prolific",1,35,"2023-07-25T18:41:19+00:00",6.2149889469147,21,"updated stim.csv","Version21.csv","Version 21","List 21","lawn",NA,611,5.185185185,1820,0.477300305,612,"BOI","-","-","Please name all of the ways you could use this object. Keep in mind that one object can have many uses. Separate your responses with a comma.",NA,"y",5523,NA,NA,1931,3852,NA,NA,NA,"mow, throw, step on, jump on, jump over",1
"5ba4d89abf3b9d000152023c","aivdo3zvp5","Affordance Norms_Prolific",1,36,"2023-07-25T18:41:27+00:00",7.7809920310974,21,"updated stim.csv","Version21.csv","Version 21","List 21","meal",NA,613,4.565217391,2115,0.894304697,614,"BOI","-","-","Please name all of the ways you could use this object. Keep in mind that one object can have many uses. Separate your responses with a comma.",NA,"y",7246,NA,NA,1459,6109,NA,NA,NA,"eat, cook, enjoy",1
"5ba4d89abf3b9d000152023c","aivdo3zvp5","Affordance Norms_Prolific",1,37,"2023-07-25T18:41:35+00:00",8.2665529251099,21,"updated stim.csv","Version21.csv","Version 21","List 21","doorframe",NA,601,4.36,1072,0.054989468,602,"BOI","-","-","Please name all of the ways you could use this object. Keep in mind that one object can have many uses. Separate your responses with a comma.",NA,"y",7846,NA,NA,2318,6937,NA,NA,NA,"walk through, hold door",1
"5ba4d89abf3b9d000152023c","aivdo3zvp5","Affordance Norms_Prolific",1,38,"2023-07-25T18:41:42+00:00",6.6263470649719,21,"updated stim.csv","Version21.csv","Version 21","List 21","glider",NA,605,5.541666667,2436,0.966183453,606,"BOI","-","-","Please name all of the ways you could use this object. Keep in mind that one object can have many uses. Separate your responses with a comma.",NA,"y",6208,NA,NA,2108,5219,NA,NA,NA,"fly, glide, crash",1
"5ba4d89abf3b9d000152023c","aivdo3zvp5","Affordance Norms_Prolific",1,39,"2023-07-25T18:41:50+00:00",8.3651180267334,21,"updated stim.csv","Version21.csv","Version 21","List 21","handcart",NA,609,5.391304348,500,0.472581554,610,"BOI","-","-","Please name all of the ways you could use this object. Keep in mind that one object can have many uses. Separate your responses with a comma.",NA,"y",7948,NA,NA,1443,6658,NA,NA,NA,"push, roll, transport",1
"5ba4d89abf3b9d000152023c","aivdo3zvp5","Affordance Norms_Prolific",1,40,"2023-07-25T18:42:06+00:00",15.520303964615,21,"updated stim.csv","Version21.csv","Version 21","List 21","moustache",NA,616,4.75,1712,0.151193811,617,"BOI","-","-","Please name all of the ways you could use this object. Keep in mind that one object can have many uses. Separate your responses with a comma.",NA,"y",15101,NA,NA,5803,14073,NA,NA,NA,"dignify, wear, shave",1
"5c3b70640eaa0100018ea877","qcx4wh3toh","Affordance Norms_Prolific",1,11,"2023-07-25T18:24:13+00:00",20.029458045959,20,"updated stim.csv","Version20.csv","Version 20","List 20","ventilator",NA,584,4.909090909,1257,0.234929947,585,"BOI","-","-","Please name all of the ways you could use this object. Keep in mind that one object can have many uses. Separate your responses with a comma.",NA,"y",19670,NA,NA,6813,18428,NA,NA,NA,"keep somebody alive, block a doorway",1
"5c3b70640eaa0100018ea877","qcx4wh3toh","Affordance Norms_Prolific",1,12,"2023-07-25T18:24:40+00:00",26.765263795853,20,"updated stim.csv","Version20.csv","Version 20","List 20","booze",NA,593,5.72,987,0.915415576,594,"BOI","-","-","Please name all of the ways you could use this object. Keep in mind that one object can have many uses. Separate your responses with a comma.",NA,"y",26399,NA,NA,3174,24510,NA,NA,NA,"drink it, burn it, flush a toilet",0.926
"5c3b70640eaa0100018ea877","qcx4wh3toh","Affordance Norms_Prolific",1,13,"2023-07-25T18:24:50+00:00",10.674217224121,20,"updated stim.csv","Version20.csv","Version 20","List 20","diagram",NA,600,5.125,1803,0.545634211,601,"BOI","-","-","Please name all of the ways you could use this object. Keep in mind that one object can have many uses. Separate your responses with a comma.",NA,"y",9602,NA,NA,5474,7609,NA,NA,NA,"study it, burn it",1
"5c3b70640eaa0100018ea877","qcx4wh3toh","Affordance Norms_Prolific",1,14,"2023-07-25T18:25:00+00:00",10.119354963303,20,"updated stim.csv","Version20.csv","Version 20","List 20","bookseller",NA,591,5.041666667,2186,0.950545873,592,"BOI","-","-","Please name all of the ways you could use this object. Keep in mind that one object can have many uses. Separate your responses with a comma.",NA,"y",9750,NA,NA,2934,9086,NA,NA,NA,"buy books, sell books, talk about books",1
"5c3b70640eaa0100018ea877","qcx4wh3toh","Affordance Norms_Prolific",1,15,"2023-07-25T18:25:07+00:00",6.1261370182037,20,"updated stim.csv","Version20.csv","Version 20","List 20","balloonist",NA,587,4.538461538,47,0.730388709,588,"BOI","-","-","Please name all of the ways you could use this object. Keep in mind that one object can have many uses. Separate your responses with a comma.",NA,"y",5770,NA,NA,1561,4800,NA,NA,NA,"take a ride, shoot him down",1
"5c3b70640eaa0100018ea877","qcx4wh3toh","Affordance Norms_Prolific",1,16,"2023-07-25T18:25:18+00:00",11.201183795929,20,"updated stim.csv","Version20.csv","Version 20","List 20","canoe",NA,595,4.384615385,1753,0.636652588,596,"BOI","-","-","Please name all of the ways you could use this object. Keep in mind that one object can have many uses. Separate your responses with a comma.",NA,"y",10844,NA,NA,1891,9890,NA,NA,NA,"go for a ride, drown your signficant other",1
"5c3b70640eaa0100018ea877","qcx4wh3toh","Affordance Norms_Prolific",1,17,"2023-07-25T18:25:34+00:00",16.516560077667,20,"updated stim.csv","Version20.csv","Version 20","List 20","stroller",NA,581,5,2673,0.209563183,582,"BOI","-","-","Please name all of the ways you could use this object. Keep in mind that one object can have many uses. Separate your responses with a comma.",NA,"y",16156,NA,NA,1947,14778,NA,NA,NA,"take baby for a walk, take your pampered Pom for a walk",1
"5c3b70640eaa0100018ea877","qcx4wh3toh","Affordance Norms_Prolific",1,18,"2023-07-25T18:25:53+00:00",18.671351909637,20,"updated stim.csv","Version20.csv","Version 20","List 20","shellfish",NA,576,5.347826087,2018,0.660986177,577,"BOI","-","-","Please name all of the ways you could use this object. Keep in mind that one object can have many uses. Separate your responses with a comma.",NA,"y",18305,NA,NA,2304,16942,NA,NA,NA,"eat them, throw them, make lime for fertilizer, make buttons",1
"5c3b70640eaa0100018ea877","qcx4wh3toh","Affordance Norms_Prolific",1,19,"2023-07-25T18:26:08+00:00",15.451177120209,20,"updated stim.csv","Version20.csv","Version 20","List 20","anchovy",NA,586,5.565217391,2306,0.20374677,587,"BOI","-","-","Please name all of the ways you could use this object. Keep in mind that one object can have many uses. Separate your responses with a comma.",NA,"y",13631,NA,NA,1254,12693,NA,NA,NA,"eat them, use as fertilizer, make cat food",1
