"Username","ID","ExperimentName","Session","Trial","Date","TimeDif","Condition.Number","Stimuli.File","Order.File","Condition.Description","Condition.Notes","Stimuli.Cue","Stimuli.Answer","Stimuli.Shuffle","Stimuli.Stimuli.Notes","Stimuli.Value","Stimuli.Rand","Procedure.Item","Procedure.Trial.Type","Procedure.Max.Time","Procedure.Min.Time","Procedure.Text","Procedure.Procedure.Notes","Procedure.Shuffle","Response.RT","Response.Response","Response.Accuracy","Response.RTfirst","Response.RTlast","Response.strictAcc","Response.lenientAcc","Response.focus","Response.JOL","Response.Focus"
"M20248065JAO","3svfj5enpi","Affordance Norms_MSU_TEX",1,11,"2023-03-11T21:14:49+00:00",53.374360084534,100,"updated stim.csv","Version100.csv","Version 100","List 100","deck",NA,2988,5.541666667,763,0.401643692,2989,"BOI","-","-","Please name all of the ways you could use this object. Keep in mind that one object can have many uses. Separate your responses with a comma.",NA,"y",52878,NA,NA,8021,51107,NA,NA,NA,"Play,arrange,distribute,lay,",1
"M20248065JAO","3svfj5enpi","Affordance Norms_MSU_TEX",1,12,"2023-03-11T21:15:23+00:00",33.732774019241,100,"updated stim.csv","Version100.csv","Version 100","List 100","wallboard",NA,2978,4.64,2887,0.494540405,2979,"BOI","-","-","Please name all of the ways you could use this object. Keep in mind that one object can have many uses. Separate your responses with a comma.",NA,"y",33202,NA,NA,2617,31129,NA,NA,NA,"Climb,strengthen,build,break",1
"M20248065JAO","3svfj5enpi","Affordance Norms_MSU_TEX",1,13,"2023-03-11T21:16:29+00:00",66.11119890213,100,"updated stim.csv","Version100.csv","Version 100","List 100","knickers",NA,2977,5.5,1435,0.06671173,2978,"BOI","-","-","Please name all of the ways you could use this object. Keep in mind that one object can have many uses. Separate your responses with a comma.",NA,"y",65614,NA,NA,3310,63333,NA,NA,NA,"Eat,make,open,throw,",1
"M20248065JAO","3svfj5enpi","Affordance Norms_MSU_TEX",1,14,"2023-03-11T21:16:55+00:00",26.184621095657,100,"updated stim.csv","Version100.csv","Version 100","List 100","guardrail",NA,2991,4.36,1186,0.020980927,2992,"BOI","-","-","Please name all of the ways you could use this object. Keep in mind that one object can have many uses. Separate your responses with a comma.",NA,"y",25662,NA,NA,4714,24586,NA,NA,NA,"Balance,destroy,sit,hold",1
"M20248065JAO","3svfj5enpi","Affordance Norms_MSU_TEX",1,15,"2023-03-11T21:17:47+00:00",51.026490926743,100,"updated stim.csv","Version100.csv","Version 100","List 100","centipede",NA,2986,5.25,478,0.361563673,2987,"BOI","-","-","Please name all of the ways you could use this object. Keep in mind that one object can have many uses. Separate your responses with a comma.",NA,"y",50518,NA,NA,4859,22314,NA,NA,NA,"Touch,play,step on,",1
"M20248065JAO","3svfj5enpi","Affordance Norms_MSU_TEX",1,16,"2023-03-11T21:18:54+00:00",67.303041934967,100,"updated stim.csv","Version100.csv","Version 100","List 100","greenhouse",NA,2975,5.260869565,1171,0.395588172,2976,"BOI","-","-","Please name all of the ways you could use this object. Keep in mind that one object can have many uses. Separate your responses with a comma.",NA,"y",66790,NA,NA,40051,56394,NA,NA,NA,"Build,farm,",1
"M20248065JAO","3svfj5enpi","Affordance Norms_MSU_TEX",1,17,"2023-03-11T21:20:42+00:00",108.13721013069,100,"updated stim.csv","Version100.csv","Version 100","List 100","topaz",NA,2992,4.642857143,2735,0.997478424,2993,"BOI","-","-","Please name all of the ways you could use this object. Keep in mind that one object can have many uses. Separate your responses with a comma.",NA,"y",107606,NA,NA,5007,106359,NA,NA,NA,"Paint,color,wear,design",1
"M20248065JAO","3svfj5enpi","Affordance Norms_MSU_TEX",1,19,"2023-03-11T21:21:53+00:00",38.659220933914,100,"updated stim.csv","Version100.csv","Version 100","List 100","earplugs",NA,2996,6.541666667,880,0.170981049,2997,"BOI","-","-","Please name all of the ways you could use this object. Keep in mind that one object can have many uses. Separate your responses with a comma.",NA,"y",38197,NA,NA,4728,36505,NA,NA,NA,"Remove,wear,buy,distribute,fit,",1
"M20248065JAO","3svfj5enpi","Affordance Norms_MSU_TEX",1,20,"2023-03-11T21:22:18+00:00",25.075157165527,100,"updated stim.csv","Version100.csv","Version 100","List 100","pulley",NA,2973,5.208333333,2092,0.333814216,2974,"BOI","-","-","Please name all of the ways you could use this object. Keep in mind that one object can have many uses. Separate your responses with a comma.",NA,"y",24562,NA,NA,5009,12244,NA,NA,NA,"Buy,push,connect,",1
"M20248065JAO","3svfj5enpi","Affordance Norms_MSU_TEX",1,21,"2023-03-11T21:22:41+00:00",23.157101869583,100,"updated stim.csv","Version100.csv","Version 100","List 100","waffle",NA,2983,6.173913043,2878,0.966588305,2984,"BOI","-","-","Please name all of the ways you could use this object. Keep in mind that one object can have many uses. Separate your responses with a comma.",NA,"y",22685,NA,NA,2873,20329,NA,NA,NA,"Prepare,buy,throw,eat,",1
"M20248065JAO","3svfj5enpi","Affordance Norms_MSU_TEX",1,22,"2023-03-11T21:23:16+00:00",35.491849184036,100,"updated stim.csv","Version100.csv","Version 100","List 100","bowling",NA,2980,5,293,0.377094601,2981,"BOI","-","-","Please name all of the ways you could use this object. Keep in mind that one object can have many uses. Separate your responses with a comma.",NA,"y",35019,NA,NA,13309,33471,NA,NA,NA,"Organize,plan,go",1
"M20248065JAO","3svfj5enpi","Affordance Norms_MSU_TEX",1,23,"2023-03-11T21:29:55+00:00",398.86210989952,100,"updated stim.csv","Version100.csv","Version 100","List 100","tee",NA,2984,5.347826087,2656,0.439440456,2985,"BOI","-","-","Please name all of the ways you could use this object. Keep in mind that one object can have many uses. Separate your responses with a comma.",NA,"y",398273,NA,NA,4026,17903,NA,NA,NA,"Wear,design,purchase,",1
"M20248065JAO","3svfj5enpi","Affordance Norms_MSU_TEX",1,24,"2023-03-11T21:36:23+00:00",388.16149401665,100,"updated stim.csv","Version100.csv","Version 100","List 100","fieldstone",NA,2990,4.761904762,971,0.517837285,2991,"BOI","-","-","Please name all of the ways you could use this object. Keep in mind that one object can have many uses. Separate your responses with a comma.",NA,"y",387628,NA,NA,4553,12753,NA,NA,NA,"Rub,throw,collect,",1
"M20248065JAO","3svfj5enpi","Affordance Norms_MSU_TEX",1,25,"2023-03-11T21:36:38+00:00",14.468132019043,100,"updated stim.csv","Version100.csv","Version 100","List 100","Fern",NA,2976,5.005471956,964,0.19837687,2977,"BOI","-","-","Please name all of the ways you could use this object. Keep in mind that one object can have many uses. Separate your responses with a comma.",NA,"y",14009,NA,NA,3675,12770,NA,NA,NA,"Prop,plant,decorate,",1
"M20248065JAO","3svfj5enpi","Affordance Norms_MSU_TEX",1,26,"2023-03-11T21:37:00+00:00",22.089588880539,100,"updated stim.csv","Version100.csv","Version 100","List 100","hound",NA,2974,4.962962963,1324,0.921503251,2975,"BOI","-","-","Please name all of the ways you could use this object. Keep in mind that one object can have many uses. Separate your responses with a comma.",NA,"y",21618,NA,NA,10797,16953,NA,NA,NA,"Hunt,pet,",1
"M20248065JAO","3svfj5enpi","Affordance Norms_MSU_TEX",1,27,"2023-03-11T21:37:26+00:00",26.553739070892,100,"updated stim.csv","Version100.csv","Version 100","List 100","breadboard",NA,2987,5.44,310,0.496866856,2988,"BOI","-","-","Please name all of the ways you could use this object. Keep in mind that one object can have many uses. Separate your responses with a comma.",NA,"y",26086,NA,NA,5677,23704,NA,NA,NA,"Clean,build,buy,",1
"M20248065JAO","3svfj5enpi","Affordance Norms_MSU_TEX",1,28,"2023-03-11T21:39:12+00:00",105.12309503555,100,"updated stim.csv","Version100.csv","Version 100","List 100","marketeer",NA,2989,4.5,1608,0.440459181,2990,"BOI","-","-","Please name all of the ways you could use this object. Keep in mind that one object can have many uses. Separate your responses with a comma.",NA,"y",104553,NA,NA,4855,102672,NA,NA,NA,"Listen,question,hire",1
"M20248065JAO","3svfj5enpi","Affordance Norms_MSU_TEX",1,29,"2023-03-11T21:44:46+00:00",334.92068195343,100,"updated stim.csv","Version100.csv","Version 100","List 100","wrist",NA,2993,6.291666667,2982,0.064872608,2994,"BOI","-","-","Please name all of the ways you could use this object. Keep in mind that one object can have many uses. Separate your responses with a comma.",NA,"y",334375,NA,NA,142244,149821,NA,NA,NA,"Break,twist,",1
"M20248065JAO","3svfj5enpi","Affordance Norms_MSU_TEX",1,30,"2023-03-11T21:50:51+00:00",364.38315010071,100,"updated stim.csv","Version100.csv","Version 100","List 100","respirator",NA,2995,4.923076923,2158,0.490217612,2996,"BOI","-","-","Please name all of the ways you could use this object. Keep in mind that one object can have many uses. Separate your responses with a comma.",NA,"y",363875,NA,NA,285011,290486,NA,NA,NA,"Breathe,connect,",1
"M20248065JAO","3svfj5enpi","Affordance Norms_MSU_TEX",1,31,"2023-03-11T21:57:36+00:00",404.73810386658,100,"updated stim.csv","Version100.csv","Version 100","List 100","brow",NA,2998,4.416666667,336,0.275656791,2999,"BOI","-","-","Please name all of the ways you could use this object. Keep in mind that one object can have many uses. Separate your responses with a comma.",NA,"y",404200,NA,NA,3863,42014,NA,NA,NA,"Shape,color,design,",1
"M20248065JAO","3svfj5enpi","Affordance Norms_MSU_TEX",1,32,"2023-03-11T21:58:38+00:00",62.514559984207,100,"updated stim.csv","Version100.csv","Version 100","List 100","badminton",NA,2999,4.92,120,0.95175255,3000,"BOI","-","-","Please name all of the ways you could use this object. Keep in mind that one object can have many uses. Separate your responses with a comma.",NA,"y",61905,NA,NA,7210,20152,NA,NA,NA,"Play,purchase,",1
"M20248065JAO","3svfj5enpi","Affordance Norms_MSU_TEX",1,33,"2023-03-11T21:58:57+00:00",18.565261125565,100,"updated stim.csv","Version100.csv","Version 100","List 100","debris",NA,2971,4.75,762,0.012673773,2972,"BOI","-","-","Please name all of the ways you could use this object. Keep in mind that one object can have many uses. Separate your responses with a comma.",NA,"y",18031,NA,NA,3162,16718,NA,NA,NA,"Dust,shake,wipe off",1
"M20248065JAO","3svfj5enpi","Affordance Norms_MSU_TEX",1,34,"2023-03-11T21:59:14+00:00",17.292882919312,100,"updated stim.csv","Version100.csv","Version 100","List 100","dish",NA,2981,5.8,802,0.35675411,2982,"BOI","-","-","Please name all of the ways you could use this object. Keep in mind that one object can have many uses. Separate your responses with a comma.",NA,"y",16789,NA,NA,5151,15095,NA,NA,NA,"Wash,dry,eat from,",1
"M20248065JAO","3svfj5enpi","Affordance Norms_MSU_TEX",1,35,"2023-03-11T21:59:50+00:00",35.818926095963,100,"updated stim.csv","Version100.csv","Version 100","List 100","waist",NA,2997,6.458333333,1117,0.193631458,2998,"BOI","-","-","Please name all of the ways you could use this object. Keep in mind that one object can have many uses. Separate your responses with a comma.",NA,"y",35329,NA,NA,9046,34296,NA,NA,NA,"Cinch,construct,draw,repair",1
"M20248065JAO","3svfj5enpi","Affordance Norms_MSU_TEX",1,36,"2023-03-11T21:59:53+00:00",3.2414329051971,100,"updated stim.csv","Version100.csv","Version 100","List 100","blowgun",NA,2985,4.625,246,0.815635977,2986,"BOI","-","-","Please name all of the ways you could use this object. Keep in mind that one object can have many uses. Separate your responses with a comma.",NA,"y",2989,NA,NA,-1,-1,NA,NA,NA,"",1
"M20248065JAO","3svfj5enpi","Affordance Norms_MSU_TEX",1,37,"2023-03-11T22:03:50+00:00",237.22091698647,100,"updated stim.csv","Version100.csv","Version 100","List 100","dye",NA,2972,4.52173913,873,0.952729296,2973,"BOI","-","-","Please name all of the ways you could use this object. Keep in mind that one object can have many uses. Separate your responses with a comma.",NA,"y",236730,NA,NA,217181,235105,NA,NA,NA,"Paint,mix,prepare",1
"M20248065JAO","3svfj5enpi","Affordance Norms_MSU_TEX",1,38,"2023-03-11T22:04:01+00:00",10.939496994019,100,"updated stim.csv","Version100.csv","Version 100","List 100","trampoline",NA,2994,5.88,2759,0.660595549,2995,"BOI","-","-","Please name all of the ways you could use this object. Keep in mind that one object can have many uses. Separate your responses with a comma.",NA,"y",10459,NA,NA,2934,9076,NA,NA,NA,"Jump,fix,",1
"M20248065JAO","3svfj5enpi","Affordance Norms_MSU_TEX",1,39,"2023-03-11T22:04:05+00:00",3.3683040142059,100,"updated stim.csv","Version100.csv","Version 100","List 100","school",NA,2979,5.16,2269,0.316817228,2980,"BOI","-","-","Please name all of the ways you could use this object. Keep in mind that one object can have many uses. Separate your responses with a comma.",NA,"y",3103,NA,NA,-1,-1,NA,NA,NA,"",1
"M20248065JAO","3svfj5enpi","Affordance Norms_MSU_TEX",1,40,"2023-03-11T22:04:19+00:00",14.776072025299,100,"updated stim.csv","Version100.csv","Version 100","List 100","limb",NA,2982,5.703703704,1511,0.461627008,2983,"BOI","-","-","Please name all of the ways you could use this object. Keep in mind that one object can have many uses. Separate your responses with a comma.",NA,"y",14337,NA,NA,4935,9628,NA,NA,NA,"Stretch,flex,",1
"M20263954AL","d0zm6gxht0","Affordance Norms_MSU_TEX",1,11,"2023-03-19T21:42:18+00:00",21.759199142456,2,"updated stim.csv","Version2.csv","Version 2","List 2","blower",NA,53,4.48,245,0.100535723,54,"BOI","-","-","Please name all of the ways you could use this object. Keep in mind that one object can have many uses. Separate your responses with a comma.",NA,"y",21555,NA,NA,4909,16325,NA,NA,NA,"throw, clean",1
"M20263954AL","d0zm6gxht0","Affordance Norms_MSU_TEX",1,12,"2023-03-19T21:42:56+00:00",37.890079021454,2,"updated stim.csv","Version2.csv","Version 2","List 2","turban",NA,40,5.148148148,2799,0.680797852,41,"BOI","-","-","Please name all of the ways you could use this object. Keep in mind that one object can have many uses. Separate your responses with a comma.",NA,"y",37593,NA,NA,5616,35506,NA,NA,NA,"wear it, sit on, throw, kick",1
"M20263954AL","d0zm6gxht0","Affordance Norms_MSU_TEX",1,13,"2023-03-19T21:43:15+00:00",19.278479814529,2,"updated stim.csv","Version2.csv","Version 2","List 2","courtyard",NA,31,4.392857143,668,0.714936931,32,"BOI","-","-","Please name all of the ways you could use this object. Keep in mind that one object can have many uses. Separate your responses with a comma.",NA,"y",19115,NA,NA,8776,17272,NA,NA,NA,"sit in, walk, ",1
"M20263954AL","d0zm6gxht0","Affordance Norms_MSU_TEX",1,14,"2023-03-19T21:44:03+00:00",48.09753704071,2,"updated stim.csv","Version2.csv","Version 2","List 2","tripe",NA,56,4.7,2778,0.883826576,57,"BOI","-","-","Please name all of the ways you could use this object. Keep in mind that one object can have many uses. Separate your responses with a comma.",NA,"y",47829,NA,NA,17988,35706,NA,NA,NA,"eat, throw, kick,cook",1
"M20263954AL","d0zm6gxht0","Affordance Norms_MSU_TEX",1,15,"2023-03-19T21:44:41+00:00",38.255043983459,2,"updated stim.csv","Version2.csv","Version 2","List 2","gondola",NA,52,4.916666667,1137,0.75699281,53,"BOI","-","-","Please name all of the ways you could use this object. Keep in mind that one object can have many uses. Separate your responses with a comma.",NA,"y",38088,NA,NA,12450,33165,NA,NA,NA,"sit in, wash, travel, step on, ",1
"M20263954AL","d0zm6gxht0","Affordance Norms_MSU_TEX",1,16,"2023-03-19T21:45:10+00:00",28.319674015045,2,"updated stim.csv","Version2.csv","Version 2","List 2","boot",NA,41,6.555555556,281,0.153320127,42,"BOI","-","-","Please name all of the ways you could use this object. Keep in mind that one object can have many uses. Separate your responses with a comma.",NA,"y",28176,NA,NA,1857,27152,NA,NA,NA,"wear, throw, kick, sit on",1
"M20263954AL","d0zm6gxht0","Affordance Norms_MSU_TEX",1,17,"2023-03-19T21:45:50+00:00",40.845942020416,2,"updated stim.csv","Version2.csv","Version 2","List 2","barman",NA,39,4.818181818,150,0.478634366,40,"BOI","-","-","Please name all of the ways you could use this object. Keep in mind that one object can have many uses. Separate your responses with a comma.",NA,"y",40690,NA,NA,21194,37841,NA,NA,NA,"serve, talk to, laugh ",1
"M20263954AL","d0zm6gxht0","Affordance Norms_MSU_TEX",1,18,"2023-03-19T21:46:14+00:00",23.12295293808,2,"updated stim.csv","Version2.csv","Version 2","List 2","hotplate",NA,45,5.230769231,1323,0.512471955,46,"BOI","-","-","Please name all of the ways you could use this object. Keep in mind that one object can have many uses. Separate your responses with a comma.",NA,"y",22951,NA,NA,7541,16017,NA,NA,NA,"heat up food, throw it, ",1
"M20263954AL","d0zm6gxht0","Affordance Norms_MSU_TEX",1,19,"2023-03-19T21:47:01+00:00",47.355301141739,2,"updated stim.csv","Version2.csv","Version 2","List 2","godmother",NA,46,5.19047619,1128,0.679960661,47,"BOI","-","-","Please name all of the ways you could use this object. Keep in mind that one object can have many uses. Separate your responses with a comma.",NA,"y",47141,NA,NA,6799,46011,NA,NA,NA,"hug, talk to, laugh with, protect, compassionate",1
"M20263954AL","d0zm6gxht0","Affordance Norms_MSU_TEX",1,20,"2023-03-19T21:47:17+00:00",15.849822044373,2,"updated stim.csv","Version2.csv","Version 2","List 2","trap",NA,57,4.695652174,2762,0.942630662,58,"BOI","-","-","Please name all of the ways you could use this object. Keep in mind that one object can have many uses. Separate your responses with a comma.",NA,"y",15587,NA,NA,5786,12379,NA,NA,NA,"step on, throw, kick ",1
"M20263954AL","d0zm6gxht0","Affordance Norms_MSU_TEX",1,21,"2023-03-19T21:47:46+00:00",29.364969015121,2,"updated stim.csv","Version2.csv","Version 2","List 2","bottle",NA,35,5.464285714,287,0.648959205,36,"BOI","-","-","Please name all of the ways you could use this object. Keep in mind that one object can have many uses. Separate your responses with a comma.",NA,"y",29200,NA,NA,6425,22557,NA,NA,NA,"brake, build, hydrate, cut ",1
"M20263954AL","d0zm6gxht0","Affordance Norms_MSU_TEX",1,22,"2023-03-19T21:48:04+00:00",18.010023832321,2,"updated stim.csv","Version2.csv","Version 2","List 2","rainwater",NA,60,5.407407407,2133,0.78433646,61,"BOI","-","-","Please name all of the ways you could use this object. Keep in mind that one object can have many uses. Separate your responses with a comma.",NA,"y",17855,NA,NA,2545,11227,NA,NA,NA,"drink, throw, step in, ",1
"M20263954AL","d0zm6gxht0","Affordance Norms_MSU_TEX",1,23,"2023-03-19T21:48:45+00:00",40.537181138992,2,"updated stim.csv","Version2.csv","Version 2","List 2","gunpowder",NA,54,4.96,1201,0.163221051,55,"BOI","-","-","Please name all of the ways you could use this object. Keep in mind that one object can have many uses. Separate your responses with a comma.",NA,"y",40372,NA,NA,4487,21386,NA,NA,NA,"throw,",1
"M20263954AL","d0zm6gxht0","Affordance Norms_MSU_TEX",1,24,"2023-03-19T21:50:54+00:00",129.48773193359,2,"updated stim.csv","Version2.csv","Version 2","List 2","newscaster",NA,32,4.347826087,1757,0.595175497,33,"BOI","-","-","Please name all of the ways you could use this object. Keep in mind that one object can have many uses. Separate your responses with a comma.",NA,"y",129263,NA,NA,4085,128366,NA,NA,NA,"share information, dangerous situations",1
"M20263954AL","d0zm6gxht0","Affordance Norms_MSU_TEX",1,25,"2023-03-19T21:51:22+00:00",28.126528978348,2,"updated stim.csv","Version2.csv","Version 2","List 2","yogurt",NA,49,6.347826087,2994,0.675214554,50,"BOI","-","-","Please name all of the ways you could use this object. Keep in mind that one object can have many uses. Separate your responses with a comma.",NA,"y",27930,NA,NA,1807,22975,NA,NA,NA,"eat, throw, sit in, kick",1
"M20263954AL","d0zm6gxht0","Affordance Norms_MSU_TEX",1,26,"2023-03-19T21:51:42+00:00",20.240638017654,2,"updated stim.csv","Version2.csv","Version 2","List 2","choreographer",NA,44,4.826086957,535,0.955772762,45,"BOI","-","-","Please name all of the ways you could use this object. Keep in mind that one object can have many uses. Separate your responses with a comma.",NA,"y",19983,NA,NA,3835,13192,NA,NA,NA,"dance, plan, organize ",1
"M20263954AL","d0zm6gxht0","Affordance Norms_MSU_TEX",1,27,"2023-03-19T21:52:53+00:00",70.440495967865,2,"updated stim.csv","Version2.csv","Version 2","List 2","coverall",NA,50,4.739130435,670,0.633267106,51,"BOI","-","-","Please name all of the ways you could use this object. Keep in mind that one object can have many uses. Separate your responses with a comma.",NA,"y",70173,NA,NA,20892,69220,NA,NA,NA,"wear, protect oneself, throw, sit on",1
"M20263954AL","d0zm6gxht0","Affordance Norms_MSU_TEX",1,28,"2023-03-19T21:53:20+00:00",27.030239105225,2,"updated stim.csv","Version2.csv","Version 2","List 2","lettuce",NA,33,6.083333333,1497,0.692615167,34,"BOI","-","-","Please name all of the ways you could use this object. Keep in mind that one object can have many uses. Separate your responses with a comma.",NA,"y",26748,NA,NA,3104,20850,NA,NA,NA,"eat, disregard (throw away), ",1
"M20263954AL","d0zm6gxht0","Affordance Norms_MSU_TEX",1,29,"2023-03-19T21:53:39+00:00",19.48997592926,2,"updated stim.csv","Version2.csv","Version 2","List 2","undergarment",NA,58,6.074074074,2822,0.498329355,59,"BOI","-","-","Please name all of the ways you could use this object. Keep in mind that one object can have many uses. Separate your responses with a comma.",NA,"y",19304,NA,NA,2864,16582,NA,NA,NA,"wear, burn it, throw",1
"M20263954AL","d0zm6gxht0","Affordance Norms_MSU_TEX",1,30,"2023-03-19T21:53:51+00:00",11.323256969452,2,"updated stim.csv","Version2.csv","Version 2","List 2","toy",NA,43,6.08,2750,0.595966616,44,"BOI","-","-","Please name all of the ways you could use this object. Keep in mind that one object can have many uses. Separate your responses with a comma.",NA,"y",11142,NA,NA,2850,9963,NA,NA,NA,"play with, kick, step on",1
"M20263954AL","d0zm6gxht0","Affordance Norms_MSU_TEX",1,31,"2023-03-19T21:54:17+00:00",26.242660045624,2,"updated stim.csv","Version2.csv","Version 2","List 2","satchel",NA,36,5.583333333,2245,0.682973727,37,"BOI","-","-","Please name all of the ways you could use this object. Keep in mind that one object can have many uses. Separate your responses with a comma.",NA,"y",26067,NA,NA,15224,25181,NA,NA,NA,"wear, throw, carry, kick",1
"M20263954AL","d0zm6gxht0","Affordance Norms_MSU_TEX",1,32,"2023-03-19T21:54:30+00:00",13.35608291626,2,"updated stim.csv","Version2.csv","Version 2","List 2","mice",NA,47,5,1653,0.813855277,48,"BOI","-","-","Please name all of the ways you could use this object. Keep in mind that one object can have many uses. Separate your responses with a comma.",NA,"y",13186,NA,NA,4266,12194,NA,NA,NA,"step on, kill, kick",1
"M20263954AL","d0zm6gxht0","Affordance Norms_MSU_TEX",1,33,"2023-03-19T21:54:39+00:00",8.9162390232086,2,"updated stim.csv","Version2.csv","Version 2","List 2","antibiotics",NA,55,4.956521739,48,0.731549393,56,"BOI","-","-","Please name all of the ways you could use this object. Keep in mind that one object can have many uses. Separate your responses with a comma.",NA,"y",8758,NA,NA,2210,5214,NA,NA,NA,"consume, ",1
"M20263954AL","d0zm6gxht0","Affordance Norms_MSU_TEX",1,34,"2023-03-19T21:55:18+00:00",39.202149152756,2,"updated stim.csv","Version2.csv","Version 2","List 2","prankster",NA,51,4.642857143,2058,0.516126599,52,"BOI","-","-","Please name all of the ways you could use this object. Keep in mind that one object can have many uses. Separate your responses with a comma.",NA,"y",39050,NA,NA,14107,37974,NA,NA,NA,"surprise someone, improve someones mood, make someone angry",1
"M20263954AL","d0zm6gxht0","Affordance Norms_MSU_TEX",1,35,"2023-03-19T21:55:38+00:00",19.993851900101,2,"updated stim.csv","Version2.csv","Version 2","List 2","goalpost",NA,37,4.84,1121,0.199203882,38,"BOI","-","-","Please name all of the ways you could use this object. Keep in mind that one object can have many uses. Separate your responses with a comma.",NA,"y",19823,NA,NA,6418,17370,NA,NA,NA,"keep ball out",1
"M20263954AL","d0zm6gxht0","Affordance Norms_MSU_TEX",1,36,"2023-03-19T21:56:50+00:00",71.099528074265,2,"updated stim.csv","Version2.csv","Version 2","List 2","assemblyman",NA,59,4.72,89,0.034188339,60,"BOI","-","-","Please name all of the ways you could use this object. Keep in mind that one object can have many uses. Separate your responses with a comma.",NA,"y",70840,NA,NA,26720,69749,NA,NA,NA,"legislative organization",1
"M20263954AL","d0zm6gxht0","Affordance Norms_MSU_TEX",1,37,"2023-03-19T21:57:04+00:00",14.713485002518,2,"updated stim.csv","Version2.csv","Version 2","List 2","dolphin",NA,48,4.52,817,0.223119321,49,"BOI","-","-","Please name all of the ways you could use this object. Keep in mind that one object can have many uses. Separate your responses with a comma.",NA,"y",14538,NA,NA,1970,12321,NA,NA,NA,"swim, flip,talk ",1
"M20263954AL","d0zm6gxht0","Affordance Norms_MSU_TEX",1,38,"2023-03-19T21:57:49+00:00",44.42329287529,2,"updated stim.csv","Version2.csv","Version 2","List 2","yourself",NA,34,5.583333333,2998,0.504476823,35,"BOI","-","-","Please name all of the ways you could use this object. Keep in mind that one object can have many uses. Separate your responses with a comma.",NA,"y",44256,NA,NA,19042,41669,NA,NA,NA,"nothing, talk, laugh",1
"M20263954AL","d0zm6gxht0","Affordance Norms_MSU_TEX",1,39,"2023-03-19T21:58:07+00:00",18.274373054504,2,"updated stim.csv","Version2.csv","Version 2","List 2","skittles",NA,38,5.24,2402,0.06527123,39,"BOI","-","-","Please name all of the ways you could use this object. Keep in mind that one object can have many uses. Separate your responses with a comma.",NA,"y",17994,NA,NA,2469,10641,NA,NA,NA,"eat, share, buy",1
"M20263954AL","d0zm6gxht0","Affordance Norms_MSU_TEX",1,40,"2023-03-19T21:58:30+00:00",23.353209972382,2,"updated stim.csv","Version2.csv","Version 2","List 2","teabag",NA,42,6.32,2642,0.384323611,43,"BOI","-","-","Please name all of the ways you could use this object. Keep in mind that one object can have many uses. Separate your responses with a comma.",NA,"y",23173,NA,NA,2407,22413,NA,NA,NA,"consume, heat up, cup, smells good or bad",1
"M20294769","y9s4p29glf","Affordance Norms_MSU_TEX",1,11,"2023-03-09T17:03:13+00:00",24.655528783798,98,"updated stim.csv","Version98.csv","Version 98","List 98","magnet",NA,2940,5.615384615,1572,0.02160949,2941,"BOI","-","-","Please name all of the ways you could use this object. Keep in mind that one object can have many uses. Separate your responses with a comma.",NA,"y",23992,NA,NA,3617,22968,NA,NA,NA,"pull things, attaching stuff",1
"M20294769","y9s4p29glf","Affordance Norms_MSU_TEX",1,12,"2023-03-09T17:03:28+00:00",15.5487241745,98,"updated stim.csv","Version98.csv","Version 98","List 98","lens",NA,2917,5.115384615,1491,0.892237614,2918,"BOI","-","-","Please name all of the ways you could use this object. Keep in mind that one object can have many uses. Separate your responses with a comma.",NA,"y",14938,NA,NA,3137,13959,NA,NA,NA,"seeing,glasses, tools",1
"M20294769","y9s4p29glf","Affordance Norms_MSU_TEX",1,13,"2023-03-09T17:03:49+00:00",20.795410871506,98,"updated stim.csv","Version98.csv","Version 98","List 98","hiker",NA,2927,5.260869565,1287,0.92806903,2928,"BOI","-","-","Please name all of the ways you could use this object. Keep in mind that one object can have many uses. Separate your responses with a comma.",NA,"y",20041,NA,NA,8794,18541,NA,NA,NA,"outside, nature, weather ",1
"M20294769","y9s4p29glf","Affordance Norms_MSU_TEX",1,14,"2023-03-09T17:03:53+00:00",4.1324069499969,98,"updated stim.csv","Version98.csv","Version 98","List 98","gynecologist",NA,2911,4.833333333,1206,0.619827361,2912,"BOI","-","-","Please name all of the ways you could use this object. Keep in mind that one object can have many uses. Separate your responses with a comma.",NA,"y",3469,NA,NA,2193,2441,NA,NA,NA,"idk",1
"M20294769","y9s4p29glf","Affordance Norms_MSU_TEX",1,15,"2023-03-09T17:04:04+00:00",10.863102197647,98,"updated stim.csv","Version98.csv","Version 98","List 98","quarterback",NA,2938,4.346153846,2111,0.92141009,2939,"BOI","-","-","Please name all of the ways you could use this object. Keep in mind that one object can have many uses. Separate your responses with a comma.",NA,"y",10153,NA,NA,1292,9173,NA,NA,NA,"football, athlete, big, fast",1
"M20294769","y9s4p29glf","Affordance Norms_MSU_TEX",1,16,"2023-03-09T17:04:09+00:00",4.9514718055725,98,"updated stim.csv","Version98.csv","Version 98","List 98","fender",NA,2926,4.791666667,963,0.828326282,2927,"BOI","-","-","Please name all of the ways you could use this object. Keep in mind that one object can have many uses. Separate your responses with a comma.",NA,"y",4150,NA,NA,2305,2802,NA,NA,NA,"car",1
"M20294769","y9s4p29glf","Affordance Norms_MSU_TEX",1,17,"2023-03-09T17:04:20+00:00",11.126217126846,98,"updated stim.csv","Version98.csv","Version 98","List 98","buttercup",NA,2933,5.48,376,0.021029908,2934,"BOI","-","-","Please name all of the ways you could use this object. Keep in mind that one object can have many uses. Separate your responses with a comma.",NA,"y",10434,NA,NA,3549,9538,NA,NA,NA,"saying, candy ",1
"M20294769","y9s4p29glf","Affordance Norms_MSU_TEX",1,18,"2023-03-09T17:04:42+00:00",21.888612031937,98,"updated stim.csv","Version98.csv","Version 98","List 98","pinball",NA,2925,5.782608696,1968,0.714828883,2926,"BOI","-","-","Please name all of the ways you could use this object. Keep in mind that one object can have many uses. Separate your responses with a comma.",NA,"y",21412,NA,NA,1487,20523,NA,NA,NA,"game, old games ",1
"M20294769","y9s4p29glf","Affordance Norms_MSU_TEX",1,19,"2023-03-09T17:04:53+00:00",10.80106306076,98,"updated stim.csv","Version98.csv","Version 98","List 98","document",NA,2915,4.818181818,810,0.333726906,2916,"BOI","-","-","Please name all of the ways you could use this object. Keep in mind that one object can have many uses. Separate your responses with a comma.",NA,"y",10025,NA,NA,2063,8899,NA,NA,NA,"assignment, government ",1
"M20294769","y9s4p29glf","Affordance Norms_MSU_TEX",1,20,"2023-03-09T17:06:36+00:00",102.81841278076,98,"updated stim.csv","Version98.csv","Version 98","List 98","tutu",NA,2932,5.413793103,2808,0.812200993,2933,"BOI","-","-","Please name all of the ways you could use this object. Keep in mind that one object can have many uses. Separate your responses with a comma.",NA,"y",101814,NA,NA,1720,100851,NA,NA,NA,"wear it, pink, sport ",1
"M20294769","y9s4p29glf","Affordance Norms_MSU_TEX",1,21,"2023-03-09T17:06:45+00:00",9.9141252040863,98,"updated stim.csv","Version98.csv","Version 98","List 98","sand",NA,2937,5.956521739,2231,0.220118467,2938,"BOI","-","-","Please name all of the ways you could use this object. Keep in mind that one object can have many uses. Separate your responses with a comma.",NA,"y",9257,NA,NA,1388,8235,NA,NA,NA,"beach, lake, hot, summer",1
"M20294769","y9s4p29glf","Affordance Norms_MSU_TEX",1,22,"2023-03-09T17:06:51+00:00",5.3136169910431,98,"updated stim.csv","Version98.csv","Version 98","List 98","companion",NA,2936,5.739130435,611,0.366189046,2937,"BOI","-","-","Please name all of the ways you could use this object. Keep in mind that one object can have many uses. Separate your responses with a comma.",NA,"y",4711,NA,NA,2729,3878,NA,NA,NA,"partner",1
"M20294769","y9s4p29glf","Affordance Norms_MSU_TEX",1,23,"2023-03-09T17:07:01+00:00",10.150218963623,98,"updated stim.csv","Version98.csv","Version 98","List 98","aluminum",NA,2930,5.083333333,32,0.365405735,2931,"BOI","-","-","Please name all of the ways you could use this object. Keep in mind that one object can have many uses. Separate your responses with a comma.",NA,"y",9097,NA,NA,3116,8188,NA,NA,NA,"used to cover stuff",1
"M20294769","y9s4p29glf","Affordance Norms_MSU_TEX",1,24,"2023-03-09T17:07:11+00:00",10.487738847733,98,"updated stim.csv","Version98.csv","Version 98","List 98","townspeople",NA,2928,4.909090909,2749,0.45854506,2929,"BOI","-","-","Please name all of the ways you could use this object. Keep in mind that one object can have many uses. Separate your responses with a comma.",NA,"y",9930,NA,NA,1939,8819,NA,NA,NA,"people, city ",1
"M20294769","y9s4p29glf","Affordance Norms_MSU_TEX",1,25,"2023-03-09T17:08:09+00:00",57.944545030594,98,"updated stim.csv","Version98.csv","Version 98","List 98","harness",NA,2913,4.4,1252,0.31028418,2914,"BOI","-","-","Please name all of the ways you could use this object. Keep in mind that one object can have many uses. Separate your responses with a comma.",NA,"y",57474,NA,NA,4910,56694,NA,NA,NA,"animals, restriction ",1
"M20294769","y9s4p29glf","Affordance Norms_MSU_TEX",1,26,"2023-03-09T17:08:19+00:00",9.2848980426788,98,"updated stim.csv","Version98.csv","Version 98","List 98","hostel",NA,2924,4.708333333,1320,0.131291702,2925,"BOI","-","-","Please name all of the ways you could use this object. Keep in mind that one object can have many uses. Separate your responses with a comma.",NA,"y",8668,NA,NA,3097,7897,NA,NA,NA,"captured",1
"M20294769","y9s4p29glf","Affordance Norms_MSU_TEX",1,27,"2023-03-09T17:08:50+00:00",30.996110916138,98,"updated stim.csv","Version98.csv","Version 98","List 98","busman",NA,2931,4.68,372,0.326679348,2932,"BOI","-","-","Please name all of the ways you could use this object. Keep in mind that one object can have many uses. Separate your responses with a comma.",NA,"y",30466,NA,NA,1937,29275,NA,NA,NA,"driver, school bus",1
"M20294769","y9s4p29glf","Affordance Norms_MSU_TEX",1,28,"2023-03-09T17:09:21+00:00",31.625811100006,98,"updated stim.csv","Version98.csv","Version 98","List 98","cowhide",NA,2922,4.6,672,0.757206935,2923,"BOI","-","-","Please name all of the ways you could use this object. Keep in mind that one object can have many uses. Separate your responses with a comma.",NA,"y",31083,NA,NA,23404,29802,NA,NA,NA,"off a animal, cow rug ",1
"M20294769","y9s4p29glf","Affordance Norms_MSU_TEX",1,29,"2023-03-09T17:09:35+00:00",13.989753961563,98,"updated stim.csv","Version98.csv","Version 98","List 98","meteorologist",NA,2935,4.875,1652,0.069900815,2936,"BOI","-","-","Please name all of the ways you could use this object. Keep in mind that one object can have many uses. Separate your responses with a comma.",NA,"y",13406,NA,NA,6238,12037,NA,NA,NA,"weather man, read weather ",1
"M20294769","y9s4p29glf","Affordance Norms_MSU_TEX",1,30,"2023-03-09T17:09:42+00:00",7.2155900001526,98,"updated stim.csv","Version98.csv","Version 98","List 98","noose",NA,2929,4.708333333,1778,0.255189322,2930,"BOI","-","-","Please name all of the ways you could use this object. Keep in mind that one object can have many uses. Separate your responses with a comma.",NA,"y",6569,NA,NA,1883,5626,NA,NA,NA,"idk ",1
"M20294769","y9s4p29glf","Affordance Norms_MSU_TEX",1,31,"2023-03-09T17:09:55+00:00",12.198426961899,98,"updated stim.csv","Version98.csv","Version 98","List 98","astronaut",NA,2919,4.357142857,91,0.893971995,2920,"BOI","-","-","Please name all of the ways you could use this object. Keep in mind that one object can have many uses. Separate your responses with a comma.",NA,"y",11374,NA,NA,2092,10336,NA,NA,NA,"outter space, rocket ship",1
"M20294769","y9s4p29glf","Affordance Norms_MSU_TEX",1,32,"2023-03-09T17:10:03+00:00",8.30260014534,98,"updated stim.csv","Version98.csv","Version 98","List 98","scallop",NA,2921,5.48,2261,0.651086409,2922,"BOI","-","-","Please name all of the ways you could use this object. Keep in mind that one object can have many uses. Separate your responses with a comma.",NA,"y",7617,NA,NA,2309,6761,NA,NA,NA,"im not sure ",1
"M20294769","y9s4p29glf","Affordance Norms_MSU_TEX",1,33,"2023-03-09T17:10:22+00:00",18.870144844055,98,"updated stim.csv","Version98.csv","Version 98","List 98","nipple",NA,2934,5.625,1775,0.831899049,2935,"BOI","-","-","Please name all of the ways you could use this object. Keep in mind that one object can have many uses. Separate your responses with a comma.",NA,"y",18335,NA,NA,6030,16996,NA,NA,NA,"part of persons body , animals body ",1
"M20294769","y9s4p29glf","Affordance Norms_MSU_TEX",1,34,"2023-03-09T17:10:45+00:00",22.801490068436,98,"updated stim.csv","Version98.csv","Version 98","List 98","schoolwork",NA,2918,4.5,2273,0.112705622,2919,"BOI","-","-","Please name all of the ways you could use this object. Keep in mind that one object can have many uses. Separate your responses with a comma.",NA,"y",21147,NA,NA,9585,19965,NA,NA,NA,"homework, work in class ",1
"M20294769","y9s4p29glf","Affordance Norms_MSU_TEX",1,35,"2023-03-09T17:10:52+00:00",7.1079640388489,98,"updated stim.csv","Version98.csv","Version 98","List 98","clothes",NA,2939,6.08,569,0.103271373,2940,"BOI","-","-","Please name all of the ways you could use this object. Keep in mind that one object can have many uses. Separate your responses with a comma.",NA,"y",6442,NA,NA,1992,5647,NA,NA,NA,"what we wear ",1
"M20294769","y9s4p29glf","Affordance Norms_MSU_TEX",1,36,"2023-03-09T17:10:59+00:00",7.2447390556335,98,"updated stim.csv","Version98.csv","Version 98","List 98","kale",NA,2912,5.652173913,1399,0.821322935,2913,"BOI","-","-","Please name all of the ways you could use this object. Keep in mind that one object can have many uses. Separate your responses with a comma.",NA,"y",6636,NA,NA,1511,5577,NA,NA,NA,"food, healthy, green ",1
"M20294769","y9s4p29glf","Affordance Norms_MSU_TEX",1,37,"2023-03-09T17:11:08+00:00",8.5869879722595,98,"updated stim.csv","Version98.csv","Version 98","List 98","knot",NA,2916,5.76,1438,0.1654516,2917,"BOI","-","-","Please name all of the ways you could use this object. Keep in mind that one object can have many uses. Separate your responses with a comma.",NA,"y",8005,NA,NA,2966,7031,NA,NA,NA,"shoe knot, tie knots ",1
"M20294769","y9s4p29glf","Affordance Norms_MSU_TEX",1,38,"2023-03-09T17:11:21+00:00",13.784836053848,98,"updated stim.csv","Version98.csv","Version 98","List 98","gun",NA,2923,6.12,1198,0.920800727,2924,"BOI","-","-","Please name all of the ways you could use this object. Keep in mind that one object can have many uses. Separate your responses with a comma.",NA,"y",13211,NA,NA,2546,12312,NA,NA,NA,"shooting, gun show, police ",1
"M20294769","y9s4p29glf","Affordance Norms_MSU_TEX",1,39,"2023-03-09T17:11:31+00:00",9.2596518993378,98,"updated stim.csv","Version98.csv","Version 98","List 98","wrestler",NA,2920,4.96,2981,0.7759085,2921,"BOI","-","-","Please name all of the ways you could use this object. Keep in mind that one object can have many uses. Separate your responses with a comma.",NA,"y",8621,NA,NA,1980,7613,NA,NA,NA,"sport, athlete, big ",1
"M20294769","y9s4p29glf","Affordance Norms_MSU_TEX",1,40,"2023-03-09T17:11:35+00:00",4.6289279460907,98,"updated stim.csv","Version98.csv","Version 98","List 98","plaque",NA,2914,4.52,1992,0.48570991,2915,"BOI","-","-","Please name all of the ways you could use this object. Keep in mind that one object can have many uses. Separate your responses with a comma.",NA,"y",4076,NA,NA,1703,2005,NA,NA,NA,"idk",1
"M20295725","ifgedj7cmn","Affordance Norms_MSU_TEX",1,11,"2023-03-29T12:23:59+00:00",5.4128069877625,9,"updated stim.csv","Version9.csv","Version 9","List 9","clay",NA,263,5.52,551,0.620791367,264,"BOI","-","-","Please name all of the ways you could use this object. Keep in mind that one object can have many uses. Separate your responses with a comma.",NA,"y",5228,NA,NA,1260,4170,NA,NA,NA,"play, mold, make",1
"M20295725","ifgedj7cmn","Affordance Norms_MSU_TEX",1,12,"2023-03-29T12:24:07+00:00",8.0026741027832,9,"updated stim.csv","Version9.csv","Version 9","List 9","asparagus",NA,251,5.56,85,0.630185252,252,"BOI","-","-","Please name all of the ways you could use this object. Keep in mind that one object can have many uses. Separate your responses with a comma.",NA,"y",7820,NA,NA,1128,6869,NA,NA,NA,"eat, serve, love",1
"M20295725","ifgedj7cmn","Affordance Norms_MSU_TEX",1,13,"2023-03-29T12:24:14+00:00",7.0525538921356,9,"updated stim.csv","Version9.csv","Version 9","List 9","purse",NA,265,6.291666667,2105,0.327813639,266,"BOI","-","-","Please name all of the ways you could use this object. Keep in mind that one object can have many uses. Separate your responses with a comma.",NA,"y",6915,NA,NA,1197,5781,NA,NA,NA,"use, carry, hold",1
"M20295725","ifgedj7cmn","Affordance Norms_MSU_TEX",1,14,"2023-03-29T12:24:20+00:00",6.0316660404205,9,"updated stim.csv","Version9.csv","Version 9","List 9","block",NA,244,5.413793103,239,0.767968501,245,"BOI","-","-","Please name all of the ways you could use this object. Keep in mind that one object can have many uses. Separate your responses with a comma.",NA,"y",5856,NA,NA,1999,5123,NA,NA,NA,"play, kid",1
"M20295725","ifgedj7cmn","Affordance Norms_MSU_TEX",1,15,"2023-03-29T12:24:24+00:00",3.4864711761475,9,"updated stim.csv","Version9.csv","Version 9","List 9","coleslaw",NA,254,4.72,599,0.022418683,255,"BOI","-","-","Please name all of the ways you could use this object. Keep in mind that one object can have many uses. Separate your responses with a comma.",NA,"y",3327,NA,NA,1010,2718,NA,NA,NA,"eat, serve",1
"M20295725","ifgedj7cmn","Affordance Norms_MSU_TEX",1,16,"2023-03-29T12:24:40+00:00",16.317245006561,9,"updated stim.csv","Version9.csv","Version 9","List 9","shell",NA,261,5.291666667,2333,0.088519981,262,"BOI","-","-","Please name all of the ways you could use this object. Keep in mind that one object can have many uses. Separate your responses with a comma.",NA,"y",16137,NA,NA,2207,14881,NA,NA,NA,"gas, eat, send",0.84
"M20295725","ifgedj7cmn","Affordance Norms_MSU_TEX",1,17,"2023-03-29T12:24:44+00:00",3.5595088005066,9,"updated stim.csv","Version9.csv","Version 9","List 9","veal",NA,260,4.5,2840,0.767300611,261,"BOI","-","-","Please name all of the ways you could use this object. Keep in mind that one object can have many uses. Separate your responses with a comma.",NA,"y",3413,NA,NA,2336,2336,NA,NA,NA,"?",1
"M20295725","ifgedj7cmn","Affordance Norms_MSU_TEX",1,18,"2023-03-29T12:24:49+00:00",5.3244681358337,9,"updated stim.csv","Version9.csv","Version 9","List 9","saleslady",NA,264,4.28,2221,0.151974823,265,"BOI","-","-","Please name all of the ways you could use this object. Keep in mind that one object can have many uses. Separate your responses with a comma.",NA,"y",5154,NA,NA,2900,4030,NA,NA,NA,"listen",1
"M20295725","ifgedj7cmn","Affordance Norms_MSU_TEX",1,19,"2023-03-29T12:24:53+00:00",4.2134618759155,9,"updated stim.csv","Version9.csv","Version 9","List 9","tyke",NA,245,5.05,2813,0.492849182,246,"BOI","-","-","Please name all of the ways you could use this object. Keep in mind that one object can have many uses. Separate your responses with a comma.",NA,"y",4035,NA,NA,2407,2916,NA,NA,NA,"send",1
"M20295725","ifgedj7cmn","Affordance Norms_MSU_TEX",1,20,"2023-03-29T12:24:56+00:00",2.9228820800781,9,"updated stim.csv","Version9.csv","Version 9","List 9","elbow",NA,258,6.458333333,896,0.003681913,259,"BOI","-","-","Please name all of the ways you could use this object. Keep in mind that one object can have many uses. Separate your responses with a comma.",NA,"y",2744,NA,NA,1325,1715,NA,NA,NA,"use",1
"M20295725","ifgedj7cmn","Affordance Norms_MSU_TEX",1,21,"2023-03-29T12:24:59+00:00",2.7171919345856,9,"updated stim.csv","Version9.csv","Version 9","List 9","bench",NA,242,6.166666667,203,0.96821643,243,"BOI","-","-","Please name all of the ways you could use this object. Keep in mind that one object can have many uses. Separate your responses with a comma.",NA,"y",2559,NA,NA,1077,1373,NA,NA,NA,"sit",1
"M20295725","ifgedj7cmn","Affordance Norms_MSU_TEX",1,22,"2023-03-29T12:25:02+00:00",3.3218750953674,9,"updated stim.csv","Version9.csv","Version 9","List 9","orchard",NA,270,4.333333333,1816,0.055847864,271,"BOI","-","-","Please name all of the ways you could use this object. Keep in mind that one object can have many uses. Separate your responses with a comma.",NA,"y",3178,NA,NA,1435,1962,NA,NA,NA,"eat",1
"M20295725","ifgedj7cmn","Affordance Norms_MSU_TEX",1,23,"2023-03-29T12:25:05+00:00",2.9813859462738,9,"updated stim.csv","Version9.csv","Version 9","List 9","wrapper",NA,266,5.791666667,2978,0.869670923,267,"BOI","-","-","Please name all of the ways you could use this object. Keep in mind that one object can have many uses. Separate your responses with a comma.",NA,"y",2779,NA,NA,1444,1739,NA,NA,NA,"use",1
"M20295725","ifgedj7cmn","Affordance Norms_MSU_TEX",1,24,"2023-03-29T12:25:08+00:00",3.0631880760193,9,"updated stim.csv","Version9.csv","Version 9","List 9","duck",NA,246,5.041666667,859,0.394435726,247,"BOI","-","-","Please name all of the ways you could use this object. Keep in mind that one object can have many uses. Separate your responses with a comma.",NA,"y",2873,NA,NA,1386,1744,NA,NA,NA,"walk",1
"M20295725","ifgedj7cmn","Affordance Norms_MSU_TEX",1,25,"2023-03-29T12:25:12+00:00",3.8449919223785,9,"updated stim.csv","Version9.csv","Version 9","List 9","vessel",NA,248,4.925925926,2852,0.127753764,249,"BOI","-","-","Please name all of the ways you could use this object. Keep in mind that one object can have many uses. Separate your responses with a comma.",NA,"y",3659,NA,NA,2895,3239,NA,NA,NA,"work",1
"M20295725","ifgedj7cmn","Affordance Norms_MSU_TEX",1,26,"2023-03-29T12:25:14+00:00",2.2025649547577,9,"updated stim.csv","Version9.csv","Version 9","List 9","tube",NA,247,4.916666667,2791,0.621648514,248,"BOI","-","-","Please name all of the ways you could use this object. Keep in mind that one object can have many uses. Separate your responses with a comma.",NA,"y",2025,NA,NA,1458,1785,NA,NA,NA,"use",1
"M20295725","ifgedj7cmn","Affordance Norms_MSU_TEX",1,27,"2023-03-29T12:25:16+00:00",1.9423201084137,9,"updated stim.csv","Version9.csv","Version 9","List 9","strainer",NA,253,4.875,2557,0.13601316,254,"BOI","-","-","Please name all of the ways you could use this object. Keep in mind that one object can have many uses. Separate your responses with a comma.",NA,"y",1786,NA,NA,1228,1542,NA,NA,NA,"use",1
"M20295725","ifgedj7cmn","Affordance Norms_MSU_TEX",1,28,"2023-03-29T12:25:20+00:00",3.4333138465881,9,"updated stim.csv","Version9.csv","Version 9","List 9","mayor",NA,241,4.28,1629,0.300205289,242,"BOI","-","-","Please name all of the ways you could use this object. Keep in mind that one object can have many uses. Separate your responses with a comma.",NA,"y",3278,NA,NA,1997,3078,NA,NA,NA,"leader",1
"M20295725","ifgedj7cmn","Affordance Norms_MSU_TEX",1,29,"2023-03-29T12:25:22+00:00",2.6774430274963,9,"updated stim.csv","Version9.csv","Version 9","List 9","token",NA,255,5.2,2721,0.805795808,256,"BOI","-","-","Please name all of the ways you could use this object. Keep in mind that one object can have many uses. Separate your responses with a comma.",NA,"y",2501,NA,NA,1685,2216,NA,NA,NA,"game",1
"M20295725","ifgedj7cmn","Affordance Norms_MSU_TEX",1,30,"2023-03-29T12:25:26+00:00",3.5976011753082,9,"updated stim.csv","Version9.csv","Version 9","List 9","chemicals",NA,259,5.04,510,0.869697856,260,"BOI","-","-","Please name all of the ways you could use this object. Keep in mind that one object can have many uses. Separate your responses with a comma.",NA,"y",3440,NA,NA,1154,2139,NA,NA,NA,"science",1
"M20295725","ifgedj7cmn","Affordance Norms_MSU_TEX",1,31,"2023-03-29T12:25:29+00:00",3.3962638378143,9,"updated stim.csv","Version9.csv","Version 9","List 9","wound",NA,256,4.583333333,2976,0.28598123,257,"BOI","-","-","Please name all of the ways you could use this object. Keep in mind that one object can have many uses. Separate your responses with a comma.",NA,"y",3232,NA,NA,2506,2961,NA,NA,NA,"hurt",1
"M20295725","ifgedj7cmn","Affordance Norms_MSU_TEX",1,32,"2023-03-29T12:25:32+00:00",2.6211659908295,9,"updated stim.csv","Version9.csv","Version 9","List 9","altarpiece",NA,269,4.80952381,31,0.560695239,270,"BOI","-","-","Please name all of the ways you could use this object. Keep in mind that one object can have many uses. Separate your responses with a comma.",NA,"y",2443,NA,NA,1943,1943,NA,NA,NA,"?",1
"M20295725","ifgedj7cmn","Affordance Norms_MSU_TEX",1,33,"2023-03-29T12:25:36+00:00",3.7453601360321,9,"updated stim.csv","Version9.csv","Version 9","List 9","platter",NA,268,5.75,1998,0.769402376,269,"BOI","-","-","Please name all of the ways you could use this object. Keep in mind that one object can have many uses. Separate your responses with a comma.",NA,"y",3581,NA,NA,2149,3255,NA,NA,NA,"serve",1
"M20295725","ifgedj7cmn","Affordance Norms_MSU_TEX",1,34,"2023-03-29T12:25:39+00:00",2.7918548583984,9,"updated stim.csv","Version9.csv","Version 9","List 9","belly",NA,250,5.846153846,200,0.99406305,251,"BOI","-","-","Please name all of the ways you could use this object. Keep in mind that one object can have many uses. Separate your responses with a comma.",NA,"y",2606,NA,NA,1490,2127,NA,NA,NA,"button",1
"M20295725","ifgedj7cmn","Affordance Norms_MSU_TEX",1,35,"2023-03-29T12:25:42+00:00",3.5620350837708,9,"updated stim.csv","Version9.csv","Version 9","List 9","suit",NA,249,6.52173913,2582,0.02685761,250,"BOI","-","-","Please name all of the ways you could use this object. Keep in mind that one object can have many uses. Separate your responses with a comma.",NA,"y",3397,NA,NA,1130,3183,NA,NA,NA,"tie, wear",1
"M20295725","ifgedj7cmn","Affordance Norms_MSU_TEX",1,36,"2023-03-29T12:25:46+00:00",3.5982429981232,9,"updated stim.csv","Version9.csv","Version 9","List 9","cane",NA,257,6.068965517,413,0.55347765,258,"BOI","-","-","Please name all of the ways you could use this object. Keep in mind that one object can have many uses. Separate your responses with a comma.",NA,"y",3386,NA,NA,2412,2976,NA,NA,NA,"candy",1
"M20295725","ifgedj7cmn","Affordance Norms_MSU_TEX",1,37,"2023-03-29T12:25:49+00:00",3.302845954895,9,"updated stim.csv","Version9.csv","Version 9","List 9","rancher",NA,243,4.68,2137,0.77966363,244,"BOI","-","-","Please name all of the ways you could use this object. Keep in mind that one object can have many uses. Separate your responses with a comma.",NA,"y",3138,NA,NA,2127,2687,NA,NA,NA,"barn",1
"M20295725","ifgedj7cmn","Affordance Norms_MSU_TEX",1,38,"2023-03-29T12:25:52+00:00",2.7994339466095,9,"updated stim.csv","Version9.csv","Version 9","List 9","goblet",NA,262,5.826086957,1125,0.285427589,263,"BOI","-","-","Please name all of the ways you could use this object. Keep in mind that one object can have many uses. Separate your responses with a comma.",NA,"y",2647,NA,NA,1526,2417,NA,NA,NA,"scared",1
"M20295725","ifgedj7cmn","Affordance Norms_MSU_TEX",1,39,"2023-03-29T12:25:55+00:00",2.6567821502686,9,"updated stim.csv","Version9.csv","Version 9","List 9","landscape",NA,252,4.384615385,1462,0.792855773,253,"BOI","-","-","Please name all of the ways you could use this object. Keep in mind that one object can have many uses. Separate your responses with a comma.",NA,"y",2493,NA,NA,1579,2224,NA,NA,NA,"worker",1
"M20295725","ifgedj7cmn","Affordance Norms_MSU_TEX",1,40,"2023-03-29T12:25:58+00:00",3.4902989864349,9,"updated stim.csv","Version9.csv","Version 9","List 9","hardware",NA,267,5.52,1249,0.839198693,268,"BOI","-","-","Please name all of the ways you could use this object. Keep in mind that one object can have many uses. Separate your responses with a comma.",NA,"y",3332,NA,NA,2234,3097,NA,NA,NA,"lowes",1
"M20301552_caf","v0xjemdvmn","Affordance Norms_MSU_TEX",1,11,"2023-03-09T21:50:07+00:00",21.851509094238,99,"updated stim.csv","Version99.csv","Version 99","List 99","plant",NA,2963,5.652173913,1989,0.989671933,2964,"BOI","-","-","Please name all of the ways you could use this object. Keep in mind that one object can have many uses. Separate your responses with a comma.",NA,"y",20864,NA,NA,2686,20252,NA,NA,NA,"Plant, harvest, trim, cut, view",1
"M20301552_caf","v0xjemdvmn","Affordance Norms_MSU_TEX",1,12,"2023-03-09T21:50:45+00:00",38.004120826721,99,"updated stim.csv","Version99.csv","Version 99","List 99","building",NA,2968,5.208333333,350,0.964957786,2969,"BOI","-","-","Please name all of the ways you could use this object. Keep in mind that one object can have many uses. Separate your responses with a comma.",NA,"y",37287,NA,NA,8343,35925,NA,NA,NA,"Offices, entertainment, organizations, communities, gatherings",1
"M20301552_caf","v0xjemdvmn","Affordance Norms_MSU_TEX",1,13,"2023-03-09T21:51:11+00:00",26.518721103668,99,"updated stim.csv","Version99.csv","Version 99","List 99","forefinger",NA,2965,5.16,1044,0.498173651,2966,"BOI","-","-","Please name all of the ways you could use this object. Keep in mind that one object can have many uses. Separate your responses with a comma.",NA,"y",25848,NA,NA,2638,19741,NA,NA,NA,"Touch, flick, point, scrape, scratch, hold an item",1
"M20301552_caf","v0xjemdvmn","Affordance Norms_MSU_TEX",1,14,"2023-03-09T21:51:44+00:00",33.123857021332,99,"updated stim.csv","Version99.csv","Version 99","List 99","river",NA,2947,4.64,2172,0.373876547,2948,"BOI","-","-","Please name all of the ways you could use this object. Keep in mind that one object can have many uses. Separate your responses with a comma.",NA,"y",32039,NA,NA,2349,23771,NA,NA,NA,"Flow, use for power, water to drink, water to wash, water to fish",1
"M20301552_caf","v0xjemdvmn","Affordance Norms_MSU_TEX",1,15,"2023-03-09T21:51:58+00:00",13.693165063858,99,"updated stim.csv","Version99.csv","Version 99","List 99","flour",NA,2946,5.875,1014,0.326059496,2947,"BOI","-","-","Please name all of the ways you could use this object. Keep in mind that one object can have many uses. Separate your responses with a comma.",NA,"y",13186,NA,NA,3722,8521,NA,NA,NA,"Use for cooking",1
"M20301552_caf","v0xjemdvmn","Affordance Norms_MSU_TEX",1,16,"2023-03-09T21:52:23+00:00",25.253807783127,99,"updated stim.csv","Version99.csv","Version 99","List 99","employer",NA,2944,5.291666667,904,0.445797606,2945,"BOI","-","-","Please name all of the ways you could use this object. Keep in mind that one object can have many uses. Separate your responses with a comma.",NA,"y",24676,NA,NA,2905,23281,NA,NA,NA,"Work, boss others, pay employees, run business",1
"M20301552_caf","v0xjemdvmn","Affordance Norms_MSU_TEX",1,17,"2023-03-09T21:52:44+00:00",20.105892181396,99,"updated stim.csv","Version99.csv","Version 99","List 99","mitt",NA,2959,6.08,1670,0.150421439,2960,"BOI","-","-","Please name all of the ways you could use this object. Keep in mind that one object can have many uses. Separate your responses with a comma.",NA,"y",19555,NA,NA,1943,14132,NA,NA,NA,"Catch, remove things from oven",1
"M20301552_caf","v0xjemdvmn","Affordance Norms_MSU_TEX",1,18,"2023-03-09T21:53:05+00:00",21.822853803635,99,"updated stim.csv","Version99.csv","Version 99","List 99","calender",NA,2945,5.84,401,0.007963655,2946,"BOI","-","-","Please name all of the ways you could use this object. Keep in mind that one object can have many uses. Separate your responses with a comma.",NA,"y",21329,NA,NA,3870,20727,NA,NA,NA,"Mark dates, know the date, schedule events",1
"M20301552_caf","v0xjemdvmn","Affordance Norms_MSU_TEX",1,19,"2023-03-09T21:53:23+00:00",17.758472204208,99,"updated stim.csv","Version99.csv","Version 99","List 99","toast",NA,2953,6.2,2709,0.040447256,2954,"BOI","-","-","Please name all of the ways you could use this object. Keep in mind that one object can have many uses. Separate your responses with a comma.",NA,"y",17245,NA,NA,2672,11665,NA,NA,NA,"Eat, propose at a gathering",1
"M20301552_caf","v0xjemdvmn","Affordance Norms_MSU_TEX",1,20,"2023-03-09T21:54:11+00:00",48.223078966141,99,"updated stim.csv","Version99.csv","Version 99","List 99","builder",NA,2954,4.826086957,349,0.147528476,2955,"BOI","-","-","Please name all of the ways you could use this object. Keep in mind that one object can have many uses. Separate your responses with a comma.",NA,"y",47744,NA,NA,3022,12542,NA,NA,NA,"Construct something",1
"M20301552_caf","v0xjemdvmn","Affordance Norms_MSU_TEX",1,21,"2023-03-09T21:54:36+00:00",24.723883867264,99,"updated stim.csv","Version99.csv","Version 99","List 99","concert",NA,2949,4.714285714,617,0.731468268,2950,"BOI","-","-","Please name all of the ways you could use this object. Keep in mind that one object can have many uses. Separate your responses with a comma.",NA,"y",23940,NA,NA,3170,23194,NA,NA,NA,"Play music, listen to music, hangout with friends/family, drink",1
"M20301552_caf","v0xjemdvmn","Affordance Norms_MSU_TEX",1,22,"2023-03-09T21:54:43+00:00",6.6223101615906,99,"updated stim.csv","Version99.csv","Version 99","List 99","horseradish",NA,2942,5.24,1315,0.715399722,2943,"BOI","-","-","Please name all of the ways you could use this object. Keep in mind that one object can have many uses. Separate your responses with a comma.",NA,"y",5868,NA,NA,3214,5372,NA,NA,NA,"Eat, cook",1
"M20301552_caf","v0xjemdvmn","Affordance Norms_MSU_TEX",1,23,"2023-03-09T21:54:59+00:00",16.79371380806,99,"updated stim.csv","Version99.csv","Version 99","List 99","rat",NA,2950,4.608695652,2139,0.676623243,2951,"BOI","-","-","Please name all of the ways you could use this object. Keep in mind that one object can have many uses. Separate your responses with a comma.",NA,"y",16007,NA,NA,5531,11876,NA,NA,NA,"Study/use for studies",1
"M20301552_caf","v0xjemdvmn","Affordance Norms_MSU_TEX",1,24,"2023-03-09T21:55:24+00:00",24.945338010788,99,"updated stim.csv","Version99.csv","Version 99","List 99","vaseline",NA,2964,5.608695652,2839,0.512026117,2965,"BOI","-","-","Please name all of the ways you could use this object. Keep in mind that one object can have many uses. Separate your responses with a comma.",NA,"y",24361,NA,NA,3147,22856,NA,NA,NA,"Chapped lips, grease/lubricate things",1
"M20301552_caf","v0xjemdvmn","Affordance Norms_MSU_TEX",1,25,"2023-03-09T21:55:39+00:00",14.578315019608,99,"updated stim.csv","Version99.csv","Version 99","List 99","doughnut",NA,2966,6.260869565,834,0.843103669,2967,"BOI","-","-","Please name all of the ways you could use this object. Keep in mind that one object can have many uses. Separate your responses with a comma.",NA,"y",14076,NA,NA,1941,13687,NA,NA,NA,"Eat, give to someone else",1
"M20301552_caf","v0xjemdvmn","Affordance Norms_MSU_TEX",1,26,"2023-03-09T21:56:04+00:00",24.645200967789,99,"updated stim.csv","Version99.csv","Version 99","List 99","horseman",NA,2956,4.28,1314,0.643703064,2957,"BOI","-","-","Please name all of the ways you could use this object. Keep in mind that one object can have many uses. Separate your responses with a comma.",NA,"y",24136,NA,NA,6740,23981,NA,NA,NA,"Ride the horse, train the horse, feed/water the horse",1
"M20301552_caf","v0xjemdvmn","Affordance Norms_MSU_TEX",1,27,"2023-03-09T21:56:27+00:00",22.988531112671,99,"updated stim.csv","Version99.csv","Version 99","List 99","recorder",NA,2962,5.8,2148,0.477529533,2963,"BOI","-","-","Please name all of the ways you could use this object. Keep in mind that one object can have many uses. Separate your responses with a comma.",NA,"y",22144,NA,NA,4926,19632,NA,NA,NA,"Tape an event/conversation ",1
"M20301552_caf","v0xjemdvmn","Affordance Norms_MSU_TEX",1,28,"2023-03-09T21:56:53+00:00",26.392637014389,99,"updated stim.csv","Version99.csv","Version 99","List 99","stall",NA,2955,4.625,2504,0.320988124,2956,"BOI","-","-","Please name all of the ways you could use this object. Keep in mind that one object can have many uses. Separate your responses with a comma.",NA,"y",25797,NA,NA,4077,17734,NA,NA,NA,"Store something, restroom stall",1
"M20301552_caf","v0xjemdvmn","Affordance Norms_MSU_TEX",1,29,"2023-03-09T21:57:06+00:00",12.841722011566,99,"updated stim.csv","Version99.csv","Version 99","List 99","springboard",NA,2943,5,2488,0.395474663,2944,"BOI","-","-","Please name all of the ways you could use this object. Keep in mind that one object can have many uses. Separate your responses with a comma.",NA,"y",12160,NA,NA,2488,8847,NA,NA,NA,"Bounce, reduce impact",1
"M20301552_caf","v0xjemdvmn","Affordance Norms_MSU_TEX",1,30,"2023-03-09T21:57:27+00:00",21.384896993637,99,"updated stim.csv","Version99.csv","Version 99","List 99","garbage",NA,2952,4.96,1075,0.550243861,2953,"BOI","-","-","Please name all of the ways you could use this object. Keep in mind that one object can have many uses. Separate your responses with a comma.",NA,"y",20850,NA,NA,3856,20520,NA,NA,NA,"Be thrown away, recycled, compacted",1
"M20301552_caf","v0xjemdvmn","Affordance Norms_MSU_TEX",1,31,"2023-03-09T21:58:22+00:00",54.475434064865,99,"updated stim.csv","Version99.csv","Version 99","List 99","thyme",NA,2941,4.958333333,2691,0.394545149,2942,"BOI","-","-","Please name all of the ways you could use this object. Keep in mind that one object can have many uses. Separate your responses with a comma.",NA,"y",53966,NA,NA,25543,39848,NA,NA,NA,"Spice, used for seasoning foods",1
"M20301552_caf","v0xjemdvmn","Affordance Norms_MSU_TEX",1,32,"2023-03-09T21:58:45+00:00",23.552495002747,99,"updated stim.csv","Version99.csv","Version 99","List 99","aunt",NA,2960,5.041666667,98,0.66325424,2961,"BOI","-","-","Please name all of the ways you could use this object. Keep in mind that one object can have many uses. Separate your responses with a comma.",NA,"y",22997,NA,NA,5894,22408,NA,NA,NA,"Babysit, meet at gatherings, hangout with",1
"M20301552_caf","v0xjemdvmn","Affordance Norms_MSU_TEX",1,33,"2023-03-09T21:58:58+00:00",12.812259912491,99,"updated stim.csv","Version99.csv","Version 99","List 99","armpit",NA,2967,5.52,75,0.064450497,2968,"BOI","-","-","Please name all of the ways you could use this object. Keep in mind that one object can have many uses. Separate your responses with a comma.",NA,"y",12290,NA,NA,-1,-1,NA,NA,NA,"",1
"M20301552_caf","v0xjemdvmn","Affordance Norms_MSU_TEX",1,34,"2023-03-09T21:59:44+00:00",45.633342027664,99,"updated stim.csv","Version99.csv","Version 99","List 99","contraceptive",NA,2958,5.391304348,629,0.144524493,2959,"BOI","-","-","Please name all of the ways you could use this object. Keep in mind that one object can have many uses. Separate your responses with a comma.",NA,"y",45124,NA,NA,33483,44285,NA,NA,NA,"Medications used for various reasons",1
"M20301552_caf","v0xjemdvmn","Affordance Norms_MSU_TEX",1,35,"2023-03-09T21:59:53+00:00",9.0519700050354,99,"updated stim.csv","Version99.csv","Version 99","List 99","bomb",NA,2970,4.384615385,264,0.127189072,2971,"BOI","-","-","Please name all of the ways you could use this object. Keep in mind that one object can have many uses. Separate your responses with a comma.",NA,"y",8151,NA,NA,2172,7631,NA,NA,NA,"Explode, kill, destroy",1
"M20301552_caf","v0xjemdvmn","Affordance Norms_MSU_TEX",1,36,"2023-03-09T22:00:21+00:00",28.551534891129,99,"updated stim.csv","Version99.csv","Version 99","List 99","stepfather",NA,2948,5.16,2526,0.250186835,2949,"BOI","-","-","Please name all of the ways you could use this object. Keep in mind that one object can have many uses. Separate your responses with a comma.",NA,"y",27983,NA,NA,16718,27563,NA,NA,NA,"Parent, protect child, care for child",1
"M20301552_caf","v0xjemdvmn","Affordance Norms_MSU_TEX",1,37,"2023-03-09T22:00:40+00:00",18.573541164398,99,"updated stim.csv","Version99.csv","Version 99","List 99","cattle",NA,2969,4.625,463,0.654880063,2970,"BOI","-","-","Please name all of the ways you could use this object. Keep in mind that one object can have many uses. Separate your responses with a comma.",NA,"y",17834,NA,NA,2285,17582,NA,NA,NA,"Food, graze land, leather goods, dairy goods",1
"M20301552_caf","v0xjemdvmn","Affordance Norms_MSU_TEX",1,38,"2023-03-09T22:01:05+00:00",25.034981966019,99,"updated stim.csv","Version99.csv","Version 99","List 99","casebook",NA,2957,5.391304348,446,0.259789804,2958,"BOI","-","-","Please name all of the ways you could use this object. Keep in mind that one object can have many uses. Separate your responses with a comma.",NA,"y",24404,NA,NA,18539,23697,NA,NA,NA,"Textbook material",0.88
"M20301552_caf","v0xjemdvmn","Affordance Norms_MSU_TEX",1,39,"2023-03-09T22:01:24+00:00",18.929642915726,99,"updated stim.csv","Version99.csv","Version 99","List 99","actor",NA,2961,4.739130435,10,0.321005819,2962,"BOI","-","-","Please name all of the ways you could use this object. Keep in mind that one object can have many uses. Separate your responses with a comma.",NA,"y",18379,NA,NA,3035,13746,NA,NA,NA,"Create movies/shows, entertain",1
"M20301552_caf","v0xjemdvmn","Affordance Norms_MSU_TEX",1,40,"2023-03-09T22:01:45+00:00",21.008115053177,99,"updated stim.csv","Version99.csv","Version 99","List 99","tar",NA,2951,4.37037037,2635,0.507895098,2952,"BOI","-","-","Please name all of the ways you could use this object. Keep in mind that one object can have many uses. Separate your responses with a comma.",NA,"y",20507,NA,NA,2480,19984,NA,NA,NA,"Roads, fill cracks/holes, stick roofing",1
"M20302929_gjb","doeri6t6x1","Affordance Norms_MSU_TEX",1,11,"2023-03-01T00:25:27+00:00",89.75434088707,91,"updated stim.csv","Version91.csv","Version 91","List 91","car",NA,2727,6.035714286,428,0.210032637,2728,"BOI","-","-","Please name all of the ways you could use this object. Keep in mind that one object can have many uses. Separate your responses with a comma.",NA,"y",89486,NA,NA,1598,52684,NA,NA,NA,"drive, ride in, storage, weapon",1
"M20302929_gjb","doeri6t6x1","Affordance Norms_MSU_TEX",1,12,"2023-03-01T00:26:18+00:00",50.922965049744,91,"updated stim.csv","Version91.csv","Version 91","List 91","trainer",NA,2728,5.357142857,2758,0.201211991,2729,"BOI","-","-","Please name all of the ways you could use this object. Keep in mind that one object can have many uses. Separate your responses with a comma.",NA,"y",50586,NA,NA,11581,49022,NA,NA,NA,"motivate, confide in, friend",0.979
"M20302929_gjb","doeri6t6x1","Affordance Norms_MSU_TEX",1,13,"2023-03-01T00:27:36+00:00",77.975074052811,91,"updated stim.csv","Version91.csv","Version 91","List 91","flyswatter",NA,2726,5.703703704,1022,0.30903365,2727,"BOI","-","-","Please name all of the ways you could use this object. Keep in mind that one object can have many uses. Separate your responses with a comma.",NA,"y",77656,NA,NA,3735,23861,NA,NA,NA,"kill flies/insects",0.941
"M20302929_gjb","doeri6t6x1","Affordance Norms_MSU_TEX",1,14,"2023-03-01T00:28:20+00:00",44.47022485733,91,"updated stim.csv","Version91.csv","Version 91","List 91","penthouse",NA,2715,4.333333333,1918,0.574224431,2716,"BOI","-","-","Please name all of the ways you could use this object. Keep in mind that one object can have many uses. Separate your responses with a comma.",NA,"y",44193,NA,NA,2515,41538,NA,NA,NA,"live in, party/date/event location,",1
"M20302929_gjb","doeri6t6x1","Affordance Norms_MSU_TEX",1,15,"2023-03-01T00:29:21+00:00",60.584762096405,91,"updated stim.csv","Version91.csv","Version 91","List 91","crocodile",NA,2724,4.291666667,698,0.576043853,2725,"BOI","-","-","Please name all of the ways you could use this object. Keep in mind that one object can have many uses. Separate your responses with a comma.",NA,"y",60030,NA,NA,5198,45990,NA,NA,NA,"zoo exhibit, clothing material, evil base guard",1
"M20302929_gjb","doeri6t6x1","Affordance Norms_MSU_TEX",1,16,"2023-03-01T00:30:52+00:00",90.992739915848,91,"updated stim.csv","Version91.csv","Version 91","List 91","physiologist",NA,2709,4.75,1946,0.533639944,2710,"BOI","-","-","Please name all of the ways you could use this object. Keep in mind that one object can have many uses. Separate your responses with a comma.",NA,"y",90404,NA,NA,4790,64640,NA,NA,NA,"therapist, criminal case investigator",1
"M20302929_gjb","doeri6t6x1","Affordance Norms_MSU_TEX",1,17,"2023-03-01T00:31:11+00:00",19.294654130936,91,"updated stim.csv","Version91.csv","Version 91","List 91","moustache",NA,2719,5.347826087,1704,0.723940671,2720,"BOI","-","-","Please name all of the ways you could use this object. Keep in mind that one object can have many uses. Separate your responses with a comma.",NA,"y",19121,NA,NA,2727,12051,NA,NA,NA,"disguise, fashion statement",1
"M20302929_gjb","doeri6t6x1","Affordance Norms_MSU_TEX",1,18,"2023-03-01T00:31:48+00:00",36.921528816223,91,"updated stim.csv","Version91.csv","Version 91","List 91","wigwam",NA,2710,4.888888889,2937,0.352006909,2711,"BOI","-","-","Please name all of the ways you could use this object. Keep in mind that one object can have many uses. Separate your responses with a comma.",NA,"y",36596,NA,NA,3158,16990,NA,NA,NA,"house, storage location",0.976
"M20302929_gjb","doeri6t6x1","Affordance Norms_MSU_TEX",1,19,"2023-03-01T00:32:53+00:00",65.472650051117,91,"updated stim.csv","Version91.csv","Version 91","List 91","chopstick",NA,2707,5.625,533,0.944337853,2708,"BOI","-","-","Please name all of the ways you could use this object. Keep in mind that one object can have many uses. Separate your responses with a comma.",NA,"y",65201,NA,NA,4762,63018,NA,NA,NA,"eat food, cooking utensil, hair ornament, science-fair project material",0.977
"M20302929_gjb","doeri6t6x1","Affordance Norms_MSU_TEX",1,20,"2023-03-01T00:34:12+00:00",78.876994132996,91,"updated stim.csv","Version91.csv","Version 91","List 91","kleenex",NA,2723,6.043478261,1431,0.903319587,2724,"BOI","-","-","Please name all of the ways you could use this object. Keep in mind that one object can have many uses. Separate your responses with a comma.",NA,"y",78414,NA,NA,13629,70752,NA,NA,NA,"to clean eyes, nose, bodily fluids, small spills, improvised bandage",1
"M20302929_gjb","doeri6t6x1","Affordance Norms_MSU_TEX",1,21,"2023-03-01T00:34:28+00:00",15.415403842926,91,"updated stim.csv","Version91.csv","Version 91","List 91","pedicurist",NA,2716,5.137931034,1903,0.617861066,2717,"BOI","-","-","Please name all of the ways you could use this object. Keep in mind that one object can have many uses. Separate your responses with a comma.",NA,"y",15147,NA,NA,7661,11028,NA,NA,NA,"perform pedicures",0.955
"M20302929_gjb","doeri6t6x1","Affordance Norms_MSU_TEX",1,22,"2023-03-01T00:35:09+00:00",41.482475996017,91,"updated stim.csv","Version91.csv","Version 91","List 91","sister",NA,2730,4.8,2387,0.181723275,2731,"BOI","-","-","Please name all of the ways you could use this object. Keep in mind that one object can have many uses. Separate your responses with a comma.",NA,"y",41199,NA,NA,7638,19347,NA,NA,NA,"friend, solve family matters",1
"M20302929_gjb","doeri6t6x1","Affordance Norms_MSU_TEX",1,23,"2023-03-01T00:36:56+00:00",107.00230693817,91,"updated stim.csv","Version91.csv","Version 91","List 91","acrobat",NA,2705,5.043478261,9,0.473646521,2706,"BOI","-","-","Please name all of the ways you could use this object. Keep in mind that one object can have many uses. Separate your responses with a comma.",NA,"y",106714,NA,NA,5307,102219,NA,NA,NA,"performer, aid in revenue generation, entertainer",0.988
"M20302929_gjb","doeri6t6x1","Affordance Norms_MSU_TEX",1,24,"2023-03-01T00:39:06+00:00",129.44850420952,91,"updated stim.csv","Version91.csv","Version 91","List 91","nugget",NA,2701,4.826086957,1784,0.565120674,2702,"BOI","-","-","Please name all of the ways you could use this object. Keep in mind that one object can have many uses. Separate your responses with a comma.",NA,"y",129147,NA,NA,4730,26892,NA,NA,NA,"money if precious metal, food if chicken based, ",1
"M20302929_gjb","doeri6t6x1","Affordance Norms_MSU_TEX",1,25,"2023-03-01T00:40:00+00:00",54.232702970505,91,"updated stim.csv","Version91.csv","Version 91","List 91","horse",NA,2706,5.88,1312,0.28910975,2707,"BOI","-","-","Please name all of the ways you could use this object. Keep in mind that one object can have many uses. Separate your responses with a comma.",NA,"y",53905,NA,NA,2239,42326,NA,NA,NA,"travel method, revenue generation, food if necessary",1
"M20302929_gjb","doeri6t6x1","Affordance Norms_MSU_TEX",1,26,"2023-03-01T00:40:38+00:00",38.18642282486,91,"updated stim.csv","Version91.csv","Version 91","List 91","practitioner",NA,2718,4.5,2057,0.084673005,2719,"BOI","-","-","Please name all of the ways you could use this object. Keep in mind that one object can have many uses. Separate your responses with a comma.",NA,"y",37916,NA,NA,9187,31299,NA,NA,NA,"A person who can do a specific thing",0.977
"M20302929_gjb","doeri6t6x1","Affordance Norms_MSU_TEX",1,27,"2023-03-01T00:42:16+00:00",98.053282022476,91,"updated stim.csv","Version91.csv","Version 91","List 91","present",NA,2721,4.32,2060,0.47598815,2722,"BOI","-","-","Please name all of the ways you could use this object. Keep in mind that one object can have many uses. Separate your responses with a comma.",NA,"y",97780,NA,NA,3844,95954,NA,NA,NA,"give to someone or yourself, hide a practical joke",1
"M20302929_gjb","doeri6t6x1","Affordance Norms_MSU_TEX",1,28,"2023-03-01T00:42:32+00:00",15.821251153946,91,"updated stim.csv","Version91.csv","Version 91","List 91","hairstylist",NA,2711,5.041666667,1218,0.528817723,2712,"BOI","-","-","Please name all of the ways you could use this object. Keep in mind that one object can have many uses. Separate your responses with a comma.",NA,"y",15556,NA,NA,2588,14346,NA,NA,NA,"style someone's hair, small talk",1
"M20302929_gjb","doeri6t6x1","Affordance Norms_MSU_TEX",1,29,"2023-03-01T00:43:20+00:00",48.495424985886,91,"updated stim.csv","Version91.csv","Version 91","List 91","shirtsleeve",NA,2702,6.125,2347,0.794932287,2703,"BOI","-","-","Please name all of the ways you could use this object. Keep in mind that one object can have many uses. Separate your responses with a comma.",NA,"y",47779,NA,NA,5211,19601,NA,NA,NA,"improvised tissue/bandage, fashion statement",1
"M20302929_gjb","doeri6t6x1","Affordance Norms_MSU_TEX",1,30,"2023-03-01T00:43:51+00:00",30.242328882217,91,"updated stim.csv","Version91.csv","Version 91","List 91","record",NA,2725,4.75,2147,0.795554894,2726,"BOI","-","-","Please name all of the ways you could use this object. Keep in mind that one object can have many uses. Separate your responses with a comma.",NA,"y",30058,NA,NA,7034,27850,NA,NA,NA,"store data, movie/set prop",1
"M20302929_gjb","doeri6t6x1","Affordance Norms_MSU_TEX",1,31,"2023-03-01T00:45:02+00:00",71.347434043884,91,"updated stim.csv","Version91.csv","Version 91","List 91","pelvis",NA,2703,5.72,1911,0.367160384,2704,"BOI","-","-","Please name all of the ways you could use this object. Keep in mind that one object can have many uses. Separate your responses with a comma.",NA,"y",71043,NA,NA,6274,56198,NA,NA,NA,"attach legs to back, part of birthing process in mammals. ",0.982
"M20302929_gjb","doeri6t6x1","Affordance Norms_MSU_TEX",1,32,"2023-03-01T00:45:25+00:00",23.21657705307,91,"updated stim.csv","Version91.csv","Version 91","List 91","stepsister",NA,2713,5.333333333,2529,0.9206728,2714,"BOI","-","-","Please name all of the ways you could use this object. Keep in mind that one object can have many uses. Separate your responses with a comma.",NA,"y",22905,NA,NA,5231,12847,NA,NA,NA,"friend, solve family matters",1
"M20302929_gjb","doeri6t6x1","Affordance Norms_MSU_TEX",1,33,"2023-03-01T00:46:45+00:00",80.070484876633,91,"updated stim.csv","Version91.csv","Version 91","List 91","hailstone",NA,2722,5,1208,0.564230675,2723,"BOI","-","-","Please name all of the ways you could use this object. Keep in mind that one object can have many uses. Separate your responses with a comma.",NA,"y",79761,NA,NA,4382,49341,NA,NA,NA,"storm data collection, ice for drink/cooler",1
"M20302929_gjb","doeri6t6x1","Affordance Norms_MSU_TEX",1,34,"2023-03-01T00:47:23+00:00",37.854087114334,91,"updated stim.csv","Version91.csv","Version 91","List 91","ant",NA,2714,4.84,45,0.196570531,2715,"BOI","-","-","Please name all of the ways you could use this object. Keep in mind that one object can have many uses. Separate your responses with a comma.",NA,"y",37588,NA,NA,6667,29957,NA,NA,NA,"prank someone, study for pack animal behavior, squish",1
"M20302929_gjb","doeri6t6x1","Affordance Norms_MSU_TEX",1,35,"2023-03-01T00:48:43+00:00",79.956094026566,91,"updated stim.csv","Version91.csv","Version 91","List 91","clothesline",NA,2704,5.333333333,570,0.725946553,2705,"BOI","-","-","Please name all of the ways you could use this object. Keep in mind that one object can have many uses. Separate your responses with a comma.",NA,"y",78742,NA,NA,2389,72720,NA,NA,NA,"dry clothes, hang items, improvised rope",1
"M20302929_gjb","doeri6t6x1","Affordance Norms_MSU_TEX",1,36,"2023-03-01T00:48:57+00:00",14.289651870728,91,"updated stim.csv","Version91.csv","Version 91","List 91","goulash",NA,2712,4.846153846,1140,0.300977167,2713,"BOI","-","-","Please name all of the ways you could use this object. Keep in mind that one object can have many uses. Separate your responses with a comma.",NA,"y",14012,NA,NA,10899,11283,NA,NA,NA,"eat",0.814
"M20302929_gjb","doeri6t6x1","Affordance Norms_MSU_TEX",1,37,"2023-03-01T00:51:31+00:00",153.98888516426,91,"updated stim.csv","Version91.csv","Version 91","List 91","housewife",NA,2729,5.2,1333,0.450696717,2730,"BOI","-","-","Please name all of the ways you could use this object. Keep in mind that one object can have many uses. Separate your responses with a comma.",NA,"y",153486,NA,NA,5088,61794,NA,NA,NA,"lover, friend, mother, house chores",1
"M20302929_gjb","doeri6t6x1","Affordance Norms_MSU_TEX",1,38,"2023-03-01T00:52:04+00:00",32.372632026672,91,"updated stim.csv","Version91.csv","Version 91","List 91","gin",NA,2717,5.074074074,1103,0.01373338,2718,"BOI","-","-","Please name all of the ways you could use this object. Keep in mind that one object can have many uses. Separate your responses with a comma.",NA,"y",32099,NA,NA,2449,25940,NA,NA,NA,"drink, disinfect wounds, burn/fuel",1
"M20302929_gjb","doeri6t6x1","Affordance Norms_MSU_TEX",1,39,"2023-03-01T00:52:38+00:00",34.136318922043,91,"updated stim.csv","Version91.csv","Version 91","List 91","blackhead",NA,2720,4.739130435,229,0.930375226,2721,"BOI","-","-","Please name all of the ways you could use this object. Keep in mind that one object can have many uses. Separate your responses with a comma.",NA,"y",33832,NA,NA,18153,31520,NA,NA,NA,"pop, extract",0.904
"M20302929_gjb","doeri6t6x1","Affordance Norms_MSU_TEX",1,40,"2023-03-01T00:53:21+00:00",42.91134095192,91,"updated stim.csv","Version91.csv","Version 91","List 91","midget",NA,2708,4.821428571,1657,0.005998145,2709,"BOI","-","-","Please name all of the ways you could use this object. Keep in mind that one object can have many uses. Separate your responses with a comma.",NA,"y",42638,NA,NA,4447,26713,NA,NA,NA,"circus act, actor, friend, lover",1
"M20304329_alm","hi43mj2dcl","Affordance Norms_MSU_TEX",1,11,"2023-03-19T20:18:41+00:00",29.932545900345,1,"updated stim.csv","Version1.csv","Version 1","List 1","handrail",NA,19,5.227272727,1241,0.629851612,20,"BOI","-","-","Please name all of the ways you could use this object. Keep in mind that one object can have many uses. Separate your responses with a comma.",NA,"y",29753,NA,NA,13794,27802,NA,NA,NA,"grab it, slide down it, hold it going up stairs",1
"M20304329_alm","hi43mj2dcl","Affordance Norms_MSU_TEX",1,12,"2023-03-19T20:19:41+00:00",60.412484169006,1,"updated stim.csv","Version1.csv","Version 1","List 1","grease",NA,15,4.666666667,1168,0.129741388,16,"BOI","-","-","Please name all of the ways you could use this object. Keep in mind that one object can have many uses. Separate your responses with a comma.",NA,"y",60133,NA,NA,2053,3585,NA,NA,NA,"cook",1
"M20304329_alm","hi43mj2dcl","Affordance Norms_MSU_TEX",1,13,"2023-03-19T20:20:09+00:00",27.646093845367,1,"updated stim.csv","Version1.csv","Version 1","List 1","Massage",NA,22,4.826086957,1618,0.113902737,23,"BOI","-","-","Please name all of the ways you could use this object. Keep in mind that one object can have many uses. Separate your responses with a comma.",NA,"y",27433,NA,NA,9068,24034,NA,NA,NA,"feet, back, neck, shoulders",1
"M20304329_alm","hi43mj2dcl","Affordance Norms_MSU_TEX",1,14,"2023-03-19T20:20:31+00:00",21.794960975647,1,"updated stim.csv","Version1.csv","Version 1","List 1","map",NA,17,5.481481481,1600,0.476399064,18,"BOI","-","-","Please name all of the ways you could use this object. Keep in mind that one object can have many uses. Separate your responses with a comma.",NA,"y",21427,NA,NA,2573,5572,NA,NA,NA,"directions",1
"M20304329_alm","hi43mj2dcl","Affordance Norms_MSU_TEX",1,15,"2023-03-19T20:21:07+00:00",36.114612102509,1,"updated stim.csv","Version1.csv","Version 1","List 1","wishbone",NA,20,5.458333333,2953,0.249710528,21,"BOI","-","-","Please name all of the ways you could use this object. Keep in mind that one object can have many uses. Separate your responses with a comma.",NA,"y",35913,NA,NA,3079,34257,NA,NA,NA,"to make a wish, stocks to cook with ",1
"M20304329_alm","hi43mj2dcl","Affordance Norms_MSU_TEX",1,16,"2023-03-19T20:22:27+00:00",80.345218896866,1,"updated stim.csv","Version1.csv","Version 1","List 1","solicitor",NA,9,4.875,2448,0.423270691,10,"BOI","-","-","Please name all of the ways you could use this object. Keep in mind that one object can have many uses. Separate your responses with a comma.",NA,"y",80069,NA,NA,71716,77654,NA,NA,NA,"stand, sit, speak ",1
"M20304329_alm","hi43mj2dcl","Affordance Norms_MSU_TEX",1,17,"2023-03-19T20:22:56+00:00",28.422867059708,1,"updated stim.csv","Version1.csv","Version 1","List 1","bloomers",NA,21,4.4,243,0.879020377,22,"BOI","-","-","Please name all of the ways you could use this object. Keep in mind that one object can have many uses. Separate your responses with a comma.",NA,"y",28230,NA,NA,5470,22288,NA,NA,NA,"wear them under cheer skirt ",1
"M20304329_alm","hi43mj2dcl","Affordance Norms_MSU_TEX",1,18,"2023-03-19T20:23:21+00:00",25.016926050186,1,"updated stim.csv","Version1.csv","Version 1","List 1","mint",NA,3,5.76,1666,0.330502966,4,"BOI","-","-","Please name all of the ways you could use this object. Keep in mind that one object can have many uses. Separate your responses with a comma.",NA,"y",24864,NA,NA,1759,22554,NA,NA,NA,"eat, cook, smells good, toothpaste ",1
"M20304329_alm","hi43mj2dcl","Affordance Norms_MSU_TEX",1,19,"2023-03-19T20:23:36+00:00",15.057542085648,1,"updated stim.csv","Version1.csv","Version 1","List 1","briefcase",NA,10,6.25,323,0.73335018,11,"BOI","-","-","Please name all of the ways you could use this object. Keep in mind that one object can have many uses. Separate your responses with a comma.",NA,"y",14897,NA,NA,1772,12816,NA,NA,NA,"carry, store, business man ",1
"M20304329_alm","hi43mj2dcl","Affordance Norms_MSU_TEX",1,20,"2023-03-19T20:24:10+00:00",34.799162864685,1,"updated stim.csv","Version1.csv","Version 1","List 1","hosiery",NA,16,5.565217391,1319,0.287274537,17,"BOI","-","-","Please name all of the ways you could use this object. Keep in mind that one object can have many uses. Separate your responses with a comma.",NA,"y",34624,NA,NA,25742,28918,NA,NA,NA,"wear it ",1
"M20304329_alm","hi43mj2dcl","Affordance Norms_MSU_TEX",1,21,"2023-03-19T20:25:01+00:00",50.315783977509,1,"updated stim.csv","Version1.csv","Version 1","List 1","orangutan",NA,18,4.666666667,1815,0.413937663,19,"BOI","-","-","Please name all of the ways you could use this object. Keep in mind that one object can have many uses. Separate your responses with a comma.",NA,"y",50154,NA,NA,34363,48353,NA,NA,NA,"hunt, eat, wear ",1
"M20304329_alm","hi43mj2dcl","Affordance Norms_MSU_TEX",1,22,"2023-03-19T20:25:41+00:00",40.514233112335,1,"updated stim.csv","Version1.csv","Version 1","List 1","petticoat",NA,8,5.454545455,1935,0.125396232,9,"BOI","-","-","Please name all of the ways you could use this object. Keep in mind that one object can have many uses. Separate your responses with a comma.",NA,"y",40305,NA,NA,26019,34312,NA,NA,NA,"wear it, wash it ",1
"M20304329_alm","hi43mj2dcl","Affordance Norms_MSU_TEX",1,23,"2023-03-19T20:26:01+00:00",20.118229866028,1,"updated stim.csv","Version1.csv","Version 1","List 1","cayenne",NA,24,5.347826087,469,0.48837589,25,"BOI","-","-","Please name all of the ways you could use this object. Keep in mind that one object can have many uses. Separate your responses with a comma.",NA,"y",19926,NA,NA,3638,16808,NA,NA,NA,"cook with it, liver cleanse ",1
"M20304329_alm","hi43mj2dcl","Affordance Norms_MSU_TEX",1,24,"2023-03-19T20:26:53+00:00",51.105965137482,1,"updated stim.csv","Version1.csv","Version 1","List 1","lanyard",NA,4,5.416666667,1464,0.391267155,5,"BOI","-","-","Please name all of the ways you could use this object. Keep in mind that one object can have many uses. Separate your responses with a comma.",NA,"y",50926,NA,NA,1564,48923,NA,NA,NA,"wear it around neck, key chain ",1
"M20304329_alm","hi43mj2dcl","Affordance Norms_MSU_TEX",1,25,"2023-03-19T20:27:03+00:00",10.585788965225,1,"updated stim.csv","Version1.csv","Version 1","List 1","ladle",NA,23,4.84,1448,0.448711971,24,"BOI","-","-","Please name all of the ways you could use this object. Keep in mind that one object can have many uses. Separate your responses with a comma.",NA,"y",10404,NA,NA,3980,5329,NA,NA,NA,"scoop ",1
"M20304329_alm","hi43mj2dcl","Affordance Norms_MSU_TEX",1,26,"2023-03-19T20:27:22+00:00",18.869085073471,1,"updated stim.csv","Version1.csv","Version 1","List 1","joint",NA,6,4.375,1389,0.172930083,7,"BOI","-","-","Please name all of the ways you could use this object. Keep in mind that one object can have many uses. Separate your responses with a comma.",NA,"y",18713,NA,NA,2050,12039,NA,NA,NA,"bend it, pops sometimes ",1
"M20304329_alm","hi43mj2dcl","Affordance Norms_MSU_TEX",1,27,"2023-03-19T20:27:33+00:00",11.426164865494,1,"updated stim.csv","Version1.csv","Version 1","List 1","spyglass",NA,30,5.64,2491,0.148115672,31,"BOI","-","-","Please name all of the ways you could use this object. Keep in mind that one object can have many uses. Separate your responses with a comma.",NA,"y",11254,NA,NA,2369,8589,NA,NA,NA,"wear them, stalk people ",1
"M20304329_alm","hi43mj2dcl","Affordance Norms_MSU_TEX",1,28,"2023-03-19T20:27:44+00:00",11.002506971359,1,"updated stim.csv","Version1.csv","Version 1","List 1","sandbox",NA,12,5.777777778,2235,0.168486135,13,"BOI","-","-","Please name all of the ways you could use this object. Keep in mind that one object can have many uses. Separate your responses with a comma.",NA,"y",10821,NA,NA,1724,8506,NA,NA,NA,"play, sand castle ",1
"M20304329_alm","hi43mj2dcl","Affordance Norms_MSU_TEX",1,29,"2023-03-19T20:27:55+00:00",10.795998096466,1,"updated stim.csv","Version1.csv","Version 1","List 1","parsley",NA,27,5.434782609,1877,0.096670334,28,"BOI","-","-","Please name all of the ways you could use this object. Keep in mind that one object can have many uses. Separate your responses with a comma.",NA,"y",10642,NA,NA,3264,7045,NA,NA,NA,"cook",1
"M20304329_alm","hi43mj2dcl","Affordance Norms_MSU_TEX",1,30,"2023-03-19T20:28:13+00:00",17.541840076447,1,"updated stim.csv","Version1.csv","Version 1","List 1","florist",NA,13,4.444444444,1011,0.860315666,14,"BOI","-","-","Please name all of the ways you could use this object. Keep in mind that one object can have many uses. Separate your responses with a comma.",NA,"y",17376,NA,NA,5715,14549,NA,NA,NA,"sell flowers, deliver flowers ",1
"M20304329_alm","hi43mj2dcl","Affordance Norms_MSU_TEX",1,31,"2023-03-19T20:28:39+00:00",25.943825960159,1,"updated stim.csv","Version1.csv","Version 1","List 1","decor",NA,1,4.538461538,764,0.261476603,2,"BOI","-","-","Please name all of the ways you could use this object. Keep in mind that one object can have many uses. Separate your responses with a comma.",NA,"y",25756,NA,NA,4945,24236,NA,NA,NA,"hang pictures, gives things color and fun ",1
"M20304329_alm","hi43mj2dcl","Affordance Norms_MSU_TEX",1,32,"2023-03-19T20:29:16+00:00",37.508828878403,1,"updated stim.csv","Version1.csv","Version 1","List 1","boa",NA,25,4.333333333,252,0.347548191,26,"BOI","-","-","Please name all of the ways you could use this object. Keep in mind that one object can have many uses. Separate your responses with a comma.",NA,"y",37321,NA,NA,18097,35633,NA,NA,NA,"wear it around neck, dance ",1
"M20304329_alm","hi43mj2dcl","Affordance Norms_MSU_TEX",1,33,"2023-03-19T20:29:38+00:00",22.014831066132,1,"updated stim.csv","Version1.csv","Version 1","List 1","seat",NA,2,6.416666667,2301,0.945985105,3,"BOI","-","-","Please name all of the ways you could use this object. Keep in mind that one object can have many uses. Separate your responses with a comma.",NA,"y",21825,NA,NA,1444,20336,NA,NA,NA,"sit, lay down, listen in my school seat",1
"M20304329_alm","hi43mj2dcl","Affordance Norms_MSU_TEX",1,34,"2023-03-19T20:29:53+00:00",14.430342912674,1,"updated stim.csv","Version1.csv","Version 1","List 1","bread",NA,7,6.230769231,308,0.981109369,8,"BOI","-","-","Please name all of the ways you could use this object. Keep in mind that one object can have many uses. Separate your responses with a comma.",NA,"y",14245,NA,NA,5503,8491,NA,NA,NA,"toast, eat, ",1
"M20304329_alm","hi43mj2dcl","Affordance Norms_MSU_TEX",1,35,"2023-03-19T20:30:04+00:00",11.341315984726,1,"updated stim.csv","Version1.csv","Version 1","List 1","pin",NA,29,5.88,1967,0.018459114,30,"BOI","-","-","Please name all of the ways you could use this object. Keep in mind that one object can have many uses. Separate your responses with a comma.",NA,"y",11130,NA,NA,2934,8638,NA,NA,NA,"wear on jacket",1
"M20304329_alm","hi43mj2dcl","Affordance Norms_MSU_TEX",1,36,"2023-03-19T20:30:17+00:00",13.163793087006,1,"updated stim.csv","Version1.csv","Version 1","List 1","merchandise",NA,5,5.833333333,1647,0.48521541,6,"BOI","-","-","Please name all of the ways you could use this object. Keep in mind that one object can have many uses. Separate your responses with a comma.",NA,"y",12990,NA,NA,3404,10775,NA,NA,NA,"sell, collect ",1
"M20304329_alm","hi43mj2dcl","Affordance Norms_MSU_TEX",1,37,"2023-03-19T20:30:33+00:00",15.938352108002,1,"updated stim.csv","Version1.csv","Version 1","List 1","stationary",NA,26,4.727272727,2510,0.797812576,27,"BOI","-","-","Please name all of the ways you could use this object. Keep in mind that one object can have many uses. Separate your responses with a comma.",NA,"y",15691,NA,NA,1430,13410,NA,NA,NA,"still, big machines ",1
"M20304329_alm","hi43mj2dcl","Affordance Norms_MSU_TEX",1,38,"2023-03-19T20:30:47+00:00",14.022722959518,1,"updated stim.csv","Version1.csv","Version 1","List 1","tablespoon",NA,28,5.142857143,2618,0.332046282,29,"BOI","-","-","Please name all of the ways you could use this object. Keep in mind that one object can have many uses. Separate your responses with a comma.",NA,"y",13821,NA,NA,1791,10991,NA,NA,NA,"cook, measure, eat ",1
"M20304329_alm","hi43mj2dcl","Affordance Norms_MSU_TEX",1,39,"2023-03-19T20:31:31+00:00",44.067103862762,1,"updated stim.csv","Version1.csv","Version 1","List 1","tit",NA,11,5.92,2708,0.629763414,12,"BOI","-","-","Please name all of the ways you could use this object. Keep in mind that one object can have many uses. Separate your responses with a comma.",NA,"y",43881,NA,NA,22948,41406,NA,NA,NA,"bird in New Zealand ",1
"M20304329_alm","hi43mj2dcl","Affordance Norms_MSU_TEX",1,40,"2023-03-19T20:31:45+00:00",14.209490060806,1,"updated stim.csv","Version1.csv","Version 1","List 1","tomahawk",NA,14,4.958333333,2722,0.368202979,15,"BOI","-","-","Please name all of the ways you could use this object. Keep in mind that one object can have many uses. Separate your responses with a comma.",NA,"y",14023,NA,NA,5227,11973,NA,NA,NA,"ax, throwing ",1
"M20304862_krn","d6f4n8j039","Affordance Norms_MSU_TEX",1,11,"2023-03-28T01:03:25+00:00",2.5918130874634,6,"updated stim.csv","Version6.csv","Version 6","List 6","chinaware",NA,158,5.913043478,527,0.987997305,159,"BOI","-","-","Please name all of the ways you could use this object. Keep in mind that one object can have many uses. Separate your responses with a comma.",NA,"y",2453,NA,NA,1541,2176,NA,NA,NA,"plate",1
"M20304862_krn","d6f4n8j039","Affordance Norms_MSU_TEX",1,12,"2023-03-28T01:03:27+00:00",2.1785140037537,6,"updated stim.csv","Version6.csv","Version 6","List 6","screw",NA,152,5.708333333,2286,0.354129595,153,"BOI","-","-","Please name all of the ways you could use this object. Keep in mind that one object can have many uses. Separate your responses with a comma.",NA,"y",2036,NA,NA,1377,1762,NA,NA,NA,"nail",1
"M20304862_krn","d6f4n8j039","Affordance Norms_MSU_TEX",1,13,"2023-03-28T01:03:29+00:00",2.270966053009,6,"updated stim.csv","Version6.csv","Version 6","List 6","footballer",NA,165,5.041666667,1031,0.824671402,166,"BOI","-","-","Please name all of the ways you could use this object. Keep in mind that one object can have many uses. Separate your responses with a comma.",NA,"y",2131,NA,NA,1722,1960,NA,NA,NA,"hot",1
"M20304862_krn","d6f4n8j039","Affordance Norms_MSU_TEX",1,14,"2023-03-28T01:03:36+00:00",6.3057329654694,6,"updated stim.csv","Version6.csv","Version 6","List 6","negligee",NA,172,4.75,1749,0.715344787,173,"BOI","-","-","Please name all of the ways you could use this object. Keep in mind that one object can have many uses. Separate your responses with a comma.",NA,"y",6086,NA,NA,3858,5623,NA,NA,NA,"I don't know",1
"M20304862_krn","d6f4n8j039","Affordance Norms_MSU_TEX",1,15,"2023-03-28T01:03:44+00:00",8.3837809562683,6,"updated stim.csv","Version6.csv","Version 6","List 6","bathe",NA,156,5.214285714,168,0.590683649,157,"BOI","-","-","Please name all of the ways you could use this object. Keep in mind that one object can have many uses. Separate your responses with a comma.",NA,"y",8141,NA,NA,3742,7962,NA,NA,NA,"slide",1
"M20304862_krn","d6f4n8j039","Affordance Norms_MSU_TEX",1,16,"2023-03-28T01:03:47+00:00",3.2718660831451,6,"updated stim.csv","Version6.csv","Version 6","List 6","canvass",NA,177,4.347826087,421,0.150190136,178,"BOI","-","-","Please name all of the ways you could use this object. Keep in mind that one object can have many uses. Separate your responses with a comma.",NA,"y",3124,NA,NA,1852,3005,NA,NA,NA,"paint",1
"M20304862_krn","d6f4n8j039","Affordance Norms_MSU_TEX",1,17,"2023-03-28T01:03:50+00:00",2.7721049785614,6,"updated stim.csv","Version6.csv","Version 6","List 6","physician",NA,161,5.12,1945,0.324749543,162,"BOI","-","-","Please name all of the ways you could use this object. Keep in mind that one object can have many uses. Separate your responses with a comma.",NA,"y",2632,NA,NA,1308,2456,NA,NA,NA,"doctor",1
"M20304862_krn","d6f4n8j039","Affordance Norms_MSU_TEX",1,18,"2023-03-28T01:03:55+00:00",4.8786239624023,6,"updated stim.csv","Version6.csv","Version 6","List 6","balcony",NA,176,4.739130435,127,0.967270436,177,"BOI","-","-","Please name all of the ways you could use this object. Keep in mind that one object can have many uses. Separate your responses with a comma.",NA,"y",4660,NA,NA,2813,3895,NA,NA,NA,"sitting",1
"M20304862_krn","d6f4n8j039","Affordance Norms_MSU_TEX",1,19,"2023-03-28T01:04:01+00:00",6.3719689846039,6,"updated stim.csv","Version6.csv","Version 6","List 6","tinfoil",NA,155,5.458333333,2703,0.677843929,156,"BOI","-","-","Please name all of the ways you could use this object. Keep in mind that one object can have many uses. Separate your responses with a comma.",NA,"y",6148,NA,NA,3773,5768,NA,NA,NA,"aluminum",1
"M20304862_krn","d6f4n8j039","Affordance Norms_MSU_TEX",1,20,"2023-03-28T01:04:06+00:00",4.9884159564972,6,"updated stim.csv","Version6.csv","Version 6","List 6","scale",NA,175,5.652173913,2259,0.959918952,176,"BOI","-","-","Please name all of the ways you could use this object. Keep in mind that one object can have many uses. Separate your responses with a comma.",NA,"y",4772,NA,NA,2210,4505,NA,NA,NA,"pounds and weight",1
"M20304862_krn","d6f4n8j039","Affordance Norms_MSU_TEX",1,21,"2023-03-28T01:04:09+00:00",2.6348919868469,6,"updated stim.csv","Version6.csv","Version 6","List 6","harvest",NA,168,4.464285714,1256,0.861077807,169,"BOI","-","-","Please name all of the ways you could use this object. Keep in mind that one object can have many uses. Separate your responses with a comma.",NA,"y",2491,NA,NA,1665,2298,NA,NA,NA,"crops",1
"M20304862_krn","d6f4n8j039","Affordance Norms_MSU_TEX",1,22,"2023-03-28T01:04:15+00:00",5.6250851154327,6,"updated stim.csv","Version6.csv","Version 6","List 6","tabasco",NA,173,5.260869565,2615,0.993494851,174,"BOI","-","-","Please name all of the ways you could use this object. Keep in mind that one object can have many uses. Separate your responses with a comma.",NA,"y",5401,NA,NA,2596,5117,NA,NA,NA,"hot, spicy",1
"M20304862_krn","d6f4n8j039","Affordance Norms_MSU_TEX",1,23,"2023-03-28T01:04:17+00:00",2.3129549026489,6,"updated stim.csv","Version6.csv","Version 6","List 6","tofu",NA,180,5.555555556,2717,0.437108817,181,"BOI","-","-","Please name all of the ways you could use this object. Keep in mind that one object can have many uses. Separate your responses with a comma.",NA,"y",2162,NA,NA,1459,1948,NA,NA,NA,"vegan",1
"M20304862_krn","d6f4n8j039","Affordance Norms_MSU_TEX",1,24,"2023-03-28T01:04:22+00:00",5.068920135498,6,"updated stim.csv","Version6.csv","Version 6","List 6","parsnip",NA,159,5.666666667,1878,0.217047994,160,"BOI","-","-","Please name all of the ways you could use this object. Keep in mind that one object can have many uses. Separate your responses with a comma.",NA,"y",4843,NA,NA,3140,4567,NA,NA,NA,"oregano",1
"M20304862_krn","d6f4n8j039","Affordance Norms_MSU_TEX",1,25,"2023-03-28T01:04:27+00:00",4.775153875351,6,"updated stim.csv","Version6.csv","Version 6","List 6","berry",NA,179,5.523809524,205,0.969656849,180,"BOI","-","-","Please name all of the ways you could use this object. Keep in mind that one object can have many uses. Separate your responses with a comma.",NA,"y",4554,NA,NA,1901,4409,NA,NA,NA,"raspberry",1
"M20304862_krn","d6f4n8j039","Affordance Norms_MSU_TEX",1,26,"2023-03-28T01:04:29+00:00",2.0749011039734,6,"updated stim.csv","Version6.csv","Version 6","List 6","van",NA,163,6.28,2836,0.923120289,164,"BOI","-","-","Please name all of the ways you could use this object. Keep in mind that one object can have many uses. Separate your responses with a comma.",NA,"y",1928,NA,NA,1482,1742,NA,NA,NA,"car",1
"M20304862_krn","d6f4n8j039","Affordance Norms_MSU_TEX",1,27,"2023-03-28T01:04:34+00:00",4.948282957077,6,"updated stim.csv","Version6.csv","Version 6","List 6","chronograph",NA,154,4.684210526,538,0.574977468,155,"BOI","-","-","Please name all of the ways you could use this object. Keep in mind that one object can have many uses. Separate your responses with a comma.",NA,"y",4728,NA,NA,2673,4525,NA,NA,NA,"I don't know",1
"M20304862_krn","d6f4n8j039","Affordance Norms_MSU_TEX",1,28,"2023-03-28T01:04:36+00:00",2.0033440589905,6,"updated stim.csv","Version6.csv","Version 6","List 6","ginger",NA,178,5.32,1104,0.498173145,179,"BOI","-","-","Please name all of the ways you could use this object. Keep in mind that one object can have many uses. Separate your responses with a comma.",NA,"y",1857,NA,NA,1382,1637,NA,NA,NA,"red",1
"M20304862_krn","d6f4n8j039","Affordance Norms_MSU_TEX",1,29,"2023-03-28T01:04:38+00:00",2.2975888252258,6,"updated stim.csv","Version6.csv","Version 6","List 6","family",NA,153,5.291666667,944,0.967521962,154,"BOI","-","-","Please name all of the ways you could use this object. Keep in mind that one object can have many uses. Separate your responses with a comma.",NA,"y",2157,NA,NA,1375,2028,NA,NA,NA,"friends",1
"M20304862_krn","d6f4n8j039","Affordance Norms_MSU_TEX",1,30,"2023-03-28T01:04:41+00:00",2.6211221218109,6,"updated stim.csv","Version6.csv","Version 6","List 6","bicep",NA,151,5.666666667,209,0.894670762,152,"BOI","-","-","Please name all of the ways you could use this object. Keep in mind that one object can have many uses. Separate your responses with a comma.",NA,"y",2482,NA,NA,1482,2222,NA,NA,NA,"tricep",1
