Username,ID,ExperimentName,Session,Trial,Date,TimeDif,"Condition Number","Stimuli File","Order File","Condition Description","Condition Notes",Stimuli*Cue,Stimuli*Answer,Stimuli*Shuffle,"Stimuli*Stimuli Notes",Stimuli*Value,Stimuli*Rand,Procedure*Item,"Procedure*Trial Type","Procedure*Max Time","Procedure*Min Time",Procedure*Text,"Procedure*Procedure Notes",Procedure*Shuffle,Response*RT,Response*Response,Response*Accuracy,Response*RTfirst,Response*RTlast,Response*strictAcc,Response*lenientAcc,Response*focus,Response*JOL,Response*Focus
5f6c238ed9915e19408f161b,45omid4fsc,"Affordance Norms_Prolific",1,1,2023-05-14T22:42:51+00:00,11.812860965729,24,"updated stim.csv",Version24.csv,"Version 24","List 24",,,,,,,0,Instruct,-,10,"In this section, you will be presented with a series of objects. Please name as many possible uses for this object as you can think of by typing them in the box below each object.",,Instruct1,11591,,,-1,-1,,,,,1
5f6c238ed9915e19408f161b,45omid4fsc,"Affordance Norms_Prolific",1,2,2023-05-14T22:43:02+00:00,11.071318149567,24,"updated stim.csv",Version24.csv,"Version 24","List 24",,,,,,,0,Instruct,-,10,"Please keep in mind that a single object will have more than one use. For example, a ball can be thrown or can be bounced or even stepped on. When listing multiple uses for one object, please separate each use with a comma (i.e., thrown, bounced, stepped on)",,Instruct2,10782,,,-1,-1,,,,,1
5f6c238ed9915e19408f161b,45omid4fsc,"Affordance Norms_Prolific",1,3,2023-05-14T22:43:06+00:00,3.7879350185394,24,"updated stim.csv",Version24.csv,"Version 24","List 24",,,,,,,0,Instruct,-,-,"Before starting the experiment, you will complete a short practice sesstion. Press ENTER when you are ready to begin.",,Instruct3,3518,,,-1,-1,,,,,1
5f6c238ed9915e19408f161b,45omid4fsc,"Affordance Norms_Prolific",1,4,2023-05-14T22:43:22+00:00,16.134525060654,24,"updated stim.csv",Version24.csv,"Version 24","List 24",shortening,,3002,4.92,2358,0.604328482,3003,BOI,-,-,"Please name all of the ways you could use this object. Keep in mind that one object can have many uses. Separate your responses with a comma.",,n,15857,,,2022,12746,,,,"baking, greasing pans",1
5f6c238ed9915e19408f161b,45omid4fsc,"Affordance Norms_Prolific",1,5,2023-05-14T22:43:41+00:00,18.661598920822,24,"updated stim.csv",Version24.csv,"Version 24","List 24",saucer,,3005,5.777777778,2249,0.304808074,3006,BOI,-,-,"Please name all of the ways you could use this object. Keep in mind that one object can have many uses. Separate your responses with a comma.",,n,18350,,,6950,16313,,,,"cup of tea, feeding a cat",1
5f6c238ed9915e19408f161b,45omid4fsc,"Affordance Norms_Prolific",1,6,2023-05-14T22:44:05+00:00,24.073426008224,24,"updated stim.csv",Version24.csv,"Version 24","List 24",grain,,3004,5.217391304,1143,0.226863762,3005,BOI,-,-,"Please name all of the ways you could use this object. Keep in mind that one object can have many uses. Separate your responses with a comma.",,n,23773,,,4481,21002,,,,"in cereal, a grain of sand",1
5f6c238ed9915e19408f161b,45omid4fsc,"Affordance Norms_Prolific",1,7,2023-05-14T22:44:22+00:00,17.238952875137,24,"updated stim.csv",Version24.csv,"Version 24","List 24",spaghetti,,3003,6,2461,0.090379998,3004,BOI,-,-,"Please name all of the ways you could use this object. Keep in mind that one object can have many uses. Separate your responses with a comma.",,n,16942,,,2581,14847,,,,"eat it, make objects with it",1
5f6c238ed9915e19408f161b,45omid4fsc,"Affordance Norms_Prolific",1,8,2023-05-14T22:44:37+00:00,15.436762094498,24,"updated stim.csv",Version24.csv,"Version 24","List 24",paperwork,,3001,5.625,1866,0.124284162,3002,BOI,-,-,"Please name all of the ways you could use this object. Keep in mind that one object can have many uses. Separate your responses with a comma.",,n,15136,,,8296,13258,,,,"file my taxes",1
5f6c238ed9915e19408f161b,45omid4fsc,"Affordance Norms_Prolific",1,9,2023-05-14T22:44:40+00:00,2.714329957962,24,"updated stim.csv",Version24.csv,"Version 24","List 24",,,,,,,0,Instruct,-,-,"You have completed this section. Press ENTER to continue",,"Instruct 5",2456,,,-1,-1,,,,,1
5f6c238ed9915e19408f161b,45omid4fsc,"Affordance Norms_Prolific",1,10,2023-05-14T22:44:42+00:00,2.2339799404144,24,"updated stim.csv",Version24.csv,"Version 24","List 24",,,,,,,0,Instruct,-,-,"You will now start the full experiment. Press ENTER when you are ready to begin.",,,1978,,,-1,-1,,,,,1
5f6c238ed9915e19408f161b,45omid4fsc,"Affordance Norms_Prolific",1,11,2023-05-14T22:45:01+00:00,18.682543992996,24,"updated stim.csv",Version24.csv,"Version 24","List 24",bosom,,718,5.52,286,0.945975664,719,BOI,-,-,"Please name all of the ways you could use this object. Keep in mind that one object can have many uses. Separate your responses with a comma.",,y,18391,,,7903,11879,,,,"feeding babies",1
5f6c238ed9915e19408f161b,45omid4fsc,"Affordance Norms_Prolific",1,12,2023-05-14T22:45:24+00:00,23.141618013382,24,"updated stim.csv",Version24.csv,"Version 24","List 24",fir,,691,4.272727273,982,0.898314933,692,BOI,-,-,"Please name all of the ways you could use this object. Keep in mind that one object can have many uses. Separate your responses with a comma.",,y,22829,,,4230,20952,,,,"making a coat, making a blanket, to stay warm",1
5f6c238ed9915e19408f161b,45omid4fsc,"Affordance Norms_Prolific",1,13,2023-05-14T22:45:48+00:00,24.241834163666,24,"updated stim.csv",Version24.csv,"Version 24","List 24",nightlight,,706,4.821428571,1772,0.978531,707,BOI,-,-,"Please name all of the ways you could use this object. Keep in mind that one object can have many uses. Separate your responses with a comma.",,y,23922,,,4444,21920,,,,"to see things at night, to brighten a room",1
5f6c238ed9915e19408f161b,45omid4fsc,"Affordance Norms_Prolific",1,14,2023-05-14T22:45:55+00:00,7.107234954834,24,"updated stim.csv",Version24.csv,"Version 24","List 24",bong,,715,5.6,268,0.661474605,716,BOI,-,-,"Please name all of the ways you could use this object. Keep in mind that one object can have many uses. Separate your responses with a comma.",,y,6806,,,2452,5503,,,,"to smoke",1
5f6c238ed9915e19408f161b,45omid4fsc,"Affordance Norms_Prolific",1,15,2023-05-14T22:46:15+00:00,20.10449886322,24,"updated stim.csv",Version24.csv,"Version 24","List 24",lampshade,,701,5.296296296,1458,0.188922573,702,BOI,-,-,"Please name all of the ways you could use this object. Keep in mind that one object can have many uses. Separate your responses with a comma.",,y,19817,,,2123,18106,,,,"to put on your head at a party, cover a lamp",1
5f6c238ed9915e19408f161b,45omid4fsc,"Affordance Norms_Prolific",1,16,2023-05-14T22:46:40+00:00,24.541934013367,24,"updated stim.csv",Version24.csv,"Version 24","List 24",countrywoman,,711,4.44,666,0.767574871,712,BOI,-,-,"Please name all of the ways you could use this object. Keep in mind that one object can have many uses. Separate your responses with a comma.",,y,24236,,,10172,22788,,,,"to teach you how to live in the country",1
5f6c238ed9915e19408f161b,45omid4fsc,"Affordance Norms_Prolific",1,17,2023-05-14T22:46:58+00:00,17.716503143311,24,"updated stim.csv",Version24.csv,"Version 24","List 24",cricket,,699,4.653846154,695,0.214254514,700,BOI,-,-,"Please name all of the ways you could use this object. Keep in mind that one object can have many uses. Separate your responses with a comma.",,y,17411,,,3168,15180,,,,"eat it, listen to it sing",1
5f6c238ed9915e19408f161b,45omid4fsc,"Affordance Norms_Prolific",1,18,2023-05-14T22:47:18+00:00,20.384325027466,24,"updated stim.csv",Version24.csv,"Version 24","List 24",quarters,,716,5.909090909,2112,0.421921474,717,BOI,-,-,"Please name all of the ways you could use this object. Keep in mind that one object can have many uses. Separate your responses with a comma.",,y,20083,,,5209,18144,,,,"to buy things, to collect",1
5f6c238ed9915e19408f161b,45omid4fsc,"Affordance Norms_Prolific",1,19,2023-05-14T22:47:43+00:00,25.326541900635,24,"updated stim.csv",Version24.csv,"Version 24","List 24",leotard,,720,5.363636364,1493,0.713631949,721,BOI,-,-,"Please name all of the ways you could use this object. Keep in mind that one object can have many uses. Separate your responses with a comma.",,y,25034,,,2367,23870,,,,"to work out, to store things in, to put on with a dress",1
5f6c238ed9915e19408f161b,45omid4fsc,"Affordance Norms_Prolific",1,20,2023-05-14T22:48:11+00:00,27.989605903625,24,"updated stim.csv",Version24.csv,"Version 24","List 24",herb,,709,5.826086957,1280,0.488867335,710,BOI,-,-,"Please name all of the ways you could use this object. Keep in mind that one object can have many uses. Separate your responses with a comma.",,y,27705,,,3508,25917,,,,"in a salad, in baking, to feel better, to spice things",1
5f6c238ed9915e19408f161b,45omid4fsc,"Affordance Norms_Prolific",1,21,2023-05-14T22:48:43+00:00,31.388965129852,24,"updated stim.csv",Version24.csv,"Version 24","List 24",enemy,,694,4.375,907,0.693147684,695,BOI,-,-,"Please name all of the ways you could use this object. Keep in mind that one object can have many uses. Separate your responses with a comma.",,y,31085,,,8592,29852,,,,"to argue with, to disagree with, to not be friends with",1
5f6c238ed9915e19408f161b,45omid4fsc,"Affordance Norms_Prolific",1,22,2023-05-14T22:49:13+00:00,30.497777938843,24,"updated stim.csv",Version24.csv,"Version 24","List 24",placard,,693,4.458333333,1983,0.329424591,694,BOI,-,-,"Please name all of the ways you could use this object. Keep in mind that one object can have many uses. Separate your responses with a comma.",,y,30192,,,2280,28980,,,,"to write your name, to write your job title on, to write your address on",1
5f6c238ed9915e19408f161b,45omid4fsc,"Affordance Norms_Prolific",1,23,2023-05-14T22:49:44+00:00,30.264833927155,24,"updated stim.csv",Version24.csv,"Version 24","List 24",floor,,696,5.666666667,1008,0.184955478,697,BOI,-,-,"Please name all of the ways you could use this object. Keep in mind that one object can have many uses. Separate your responses with a comma.",,y,29954,,,2373,28668,,,,"to walk on, to bounce a ball on, to feel something under your feet",1
5f6c238ed9915e19408f161b,45omid4fsc,"Affordance Norms_Prolific",1,24,2023-05-14T22:50:02+00:00,18.028960227966,24,"updated stim.csv",Version24.csv,"Version 24","List 24",shin,,704,5.592592593,2339,0.519515423,705,BOI,-,-,"Please name all of the ways you could use this object. Keep in mind that one object can have many uses. Separate your responses with a comma.",,y,17737,,,3265,14696,,,,"to put a guard on, to tap",1
5f6c238ed9915e19408f161b,45omid4fsc,"Affordance Norms_Prolific",1,25,2023-05-14T22:50:26+00:00,24.273913860321,24,"updated stim.csv",Version24.csv,"Version 24","List 24",rock,,703,5.48,2183,0.337903261,704,BOI,-,-,"Please name all of the ways you could use this object. Keep in mind that one object can have many uses. Separate your responses with a comma.",,y,23979,,,2321,19390,,,,"to throw in the water, to make art, to look under it",1
5f6c238ed9915e19408f161b,45omid4fsc,"Affordance Norms_Prolific",1,26,2023-05-14T22:50:43+00:00,17.420647144318,24,"updated stim.csv",Version24.csv,"Version 24","List 24",puck,,705,4.608695652,2087,0.5338711,706,BOI,-,-,"Please name all of the ways you could use this object. Keep in mind that one object can have many uses. Separate your responses with a comma.",,y,17110,,,3795,15914,,,,"to play hockey, to throw",1
5f6c238ed9915e19408f161b,45omid4fsc,"Affordance Norms_Prolific",1,27,2023-05-14T22:51:01+00:00,17.575924873352,24,"updated stim.csv",Version24.csv,"Version 24","List 24",smuggler,,695,4.481481481,2424,0.190556966,696,BOI,-,-,"Please name all of the ways you could use this object. Keep in mind that one object can have many uses. Separate your responses with a comma.",,y,17292,,,1776,15011,,,,"to smuggle drugs in, to steal things",1
5f6c238ed9915e19408f161b,45omid4fsc,"Affordance Norms_Prolific",1,28,2023-05-14T22:51:22+00:00,21.557739019394,24,"updated stim.csv",Version24.csv,"Version 24","List 24",gymnasium,,698,4.464285714,1204,0.224441114,699,BOI,-,-,"Please name all of the ways you could use this object. Keep in mind that one object can have many uses. Separate your responses with a comma.",,y,21262,,,1965,19097,,,,"to practice in, to play in, to perform in ",1
5f6c238ed9915e19408f161b,45omid4fsc,"Affordance Norms_Prolific",1,29,2023-05-14T22:51:33+00:00,10.662801980972,24,"updated stim.csv",Version24.csv,"Version 24","List 24",harp,,697,5.8,1253,0.109632044,698,BOI,-,-,"Please name all of the ways you could use this object. Keep in mind that one object can have many uses. Separate your responses with a comma.",,y,10376,,,1527,8047,,,,"to play, to listen to",1
5f6c238ed9915e19408f161b,45omid4fsc,"Affordance Norms_Prolific",1,30,2023-05-14T22:51:54+00:00,20.994302988052,24,"updated stim.csv",Version24.csv,"Version 24","List 24",wildlife,,700,4.44,2939,0.933425079,701,BOI,-,-,"Please name all of the ways you could use this object. Keep in mind that one object can have many uses. Separate your responses with a comma.",,y,20692,,,6846,19560,,,,"on a postcard, to take a picture of ",1
5f6c238ed9915e19408f161b,45omid4fsc,"Affordance Norms_Prolific",1,31,2023-05-14T22:52:08+00:00,14.373316049576,24,"updated stim.csv",Version24.csv,"Version 24","List 24",blueberry,,710,6,249,0.943458705,711,BOI,-,-,"Please name all of the ways you could use this object. Keep in mind that one object can have many uses. Separate your responses with a comma.",,y,14080,,,1382,12915,,,,"to eat, to make jam , to make a sauce",1
5f6c238ed9915e19408f161b,45omid4fsc,"Affordance Norms_Prolific",1,32,2023-05-14T22:52:31+00:00,22.582818984985,24,"updated stim.csv",Version24.csv,"Version 24","List 24",cactus,,707,4.5,392,0.569639251,708,BOI,-,-,"Please name all of the ways you could use this object. Keep in mind that one object can have many uses. Separate your responses with a comma.",,y,22273,,,1918,20547,,,,"as a plant, to prick your fingers with, to hurt yourself",1
5f6c238ed9915e19408f161b,45omid4fsc,"Affordance Norms_Prolific",1,33,2023-05-14T22:52:58+00:00,26.816982030869,24,"updated stim.csv",Version24.csv,"Version 24","List 24",sugar,,713,6.173913043,2580,0.173362248,714,BOI,-,-,"Please name all of the ways you could use this object. Keep in mind that one object can have many uses. Separate your responses with a comma.",,y,26526,,,1462,22625,,,,"to bake with, to put in drinks, to sweeten things",1
5f6c238ed9915e19408f161b,45omid4fsc,"Affordance Norms_Prolific",1,34,2023-05-14T22:53:22+00:00,24.408015012741,24,"updated stim.csv",Version24.csv,"Version 24","List 24",giblets,,719,4.714285714,1101,0.668572345,720,BOI,-,-,"Please name all of the ways you could use this object. Keep in mind that one object can have many uses. Separate your responses with a comma.",,y,24118,,,4140,21961,,,,"to eat, to scare people with ",1
5f6c238ed9915e19408f161b,45omid4fsc,"Affordance Norms_Prolific",1,35,2023-05-14T22:53:32+00:00,9.3476500511169,24,"updated stim.csv",Version24.csv,"Version 24","List 24",breast,,708,5.4,312,0.043510224,709,BOI,-,-,"Please name all of the ways you could use this object. Keep in mind that one object can have many uses. Separate your responses with a comma.",,y,9057,,,2672,7193,,,,"to feed babies",1
5f6c238ed9915e19408f161b,45omid4fsc,"Affordance Norms_Prolific",1,36,2023-05-14T22:53:51+00:00,19.207399845123,24,"updated stim.csv",Version24.csv,"Version 24","List 24",woodpecker,,714,4.833333333,2961,0.408728894,715,BOI,-,-,"Please name all of the ways you could use this object. Keep in mind that one object can have many uses. Separate your responses with a comma.",,y,18918,,,2003,17384,,,,"to watch, to take pictures of",1
5f6c238ed9915e19408f161b,45omid4fsc,"Affordance Norms_Prolific",1,37,2023-05-14T22:54:02+00:00,11.010384082794,24,"updated stim.csv",Version24.csv,"Version 24","List 24",artichoke,,717,5.708333333,78,0.027728576,718,BOI,-,-,"Please name all of the ways you could use this object. Keep in mind that one object can have many uses. Separate your responses with a comma.",,y,10712,,,1898,9507,,,,"in a salad, in a dip",1
5f6c238ed9915e19408f161b,45omid4fsc,"Affordance Norms_Prolific",1,38,2023-05-14T22:54:20+00:00,17.69862985611,24,"updated stim.csv",Version24.csv,"Version 24","List 24",parcel,,692,5.583333333,1873,0.961736569,693,BOI,-,-,"Please name all of the ways you could use this object. Keep in mind that one object can have many uses. Separate your responses with a comma.",,y,17405,,,2904,14256,,,,"as a present, to carry something",1
5f6c238ed9915e19408f161b,45omid4fsc,"Affordance Norms_Prolific",1,39,2023-05-14T22:54:41+00:00,21.070746183395,24,"updated stim.csv",Version24.csv,"Version 24","List 24",charcoal,,702,4.740740741,496,0.655554816,703,BOI,-,-,"Please name all of the ways you could use this object. Keep in mind that one object can have many uses. Separate your responses with a comma.",,y,20696,,,2134,18450,,,,"to start a bbq, to brush your teeth with",1
5f6c238ed9915e19408f161b,45omid4fsc,"Affordance Norms_Prolific",1,40,2023-05-14T22:55:05+00:00,24.379299879074,24,"updated stim.csv",Version24.csv,"Version 24","List 24",hibiscus,,712,4.952380952,1285,0.626368484,713,BOI,-,-,"Please name all of the ways you could use this object. Keep in mind that one object can have many uses. Separate your responses with a comma.",,y,24082,,,1940,22957,,,,"a flower to look at, in a drink for sweetness, in food, in baking",1
5f6c238ed9915e19408f161b,45omid4fsc,"Affordance Norms_Prolific",1,41,2023-05-14T22:55:08+00:00,2.8152630329132,24,"updated stim.csv",Version24.csv,"Version 24","List 24",,,,,,,0,Instruct,,,"You will now be asked a few questions about your experience today.",,"Instruct 4",2573,,,-1,-1,,,,,1
