Username,ID,ExperimentName,Session,Trial,Date,TimeDif,"Condition Number","Stimuli File","Order File","Condition Description","Condition Notes",Stimuli*Cue,Stimuli*Answer,Stimuli*Shuffle,"Stimuli*Stimuli Notes",Stimuli*Value,Stimuli*Rand,Procedure*Item,"Procedure*Trial Type","Procedure*Max Time","Procedure*Min Time",Procedure*Text,"Procedure*Procedure Notes",Procedure*Shuffle,Response*RT,Response*Response,Response*Accuracy,Response*RTfirst,Response*RTlast,Response*strictAcc,Response*lenientAcc,Response*focus,Response*JOL,Response*Focus
64360d6189dec3ac8afc9a78,tr99q90xs7,"Affordance Norms_Prolific",1,1,2023-05-14T19:55:54+00:00,10.58665394783,84,"updated stim.csv",Version84.csv,"Version 84","List 84",,,,,,,0,Instruct,-,10,"In this section, you will be presented with a series of objects. Please name as many possible uses for this object as you can think of by typing them in the box below each object.",,Instruct1,10171,,,-1,-1,,,,,1
64360d6189dec3ac8afc9a78,tr99q90xs7,"Affordance Norms_Prolific",1,2,2023-05-14T19:56:07+00:00,12.900694131851,84,"updated stim.csv",Version84.csv,"Version 84","List 84",,,,,,,0,Instruct,-,10,"Please keep in mind that a single object will have more than one use. For example, a ball can be thrown or can be bounced or even stepped on. When listing multiple uses for one object, please separate each use with a comma (i.e., thrown, bounced, stepped on)",,Instruct2,12323,,,-1,-1,,,,,1
64360d6189dec3ac8afc9a78,tr99q90xs7,"Affordance Norms_Prolific",1,3,2023-05-14T19:56:12+00:00,4.7156407833099,84,"updated stim.csv",Version84.csv,"Version 84","List 84",,,,,,,0,Instruct,-,-,"Before starting the experiment, you will complete a short practice sesstion. Press ENTER when you are ready to begin.",,Instruct3,4356,,,-1,-1,,,,,1
64360d6189dec3ac8afc9a78,tr99q90xs7,"Affordance Norms_Prolific",1,4,2023-05-14T19:56:30+00:00,17.696775197983,84,"updated stim.csv",Version84.csv,"Version 84","List 84",spaghetti,,3003,6,2461,0.090379998,3004,BOI,-,-,"Please name all of the ways you could use this object. Keep in mind that one object can have many uses. Separate your responses with a comma.",,n,17126,,,2143,13734,,,,"eat, throw, add",1
64360d6189dec3ac8afc9a78,tr99q90xs7,"Affordance Norms_Prolific",1,5,2023-05-14T19:56:47+00:00,16.895308017731,84,"updated stim.csv",Version84.csv,"Version 84","List 84",grain,,3004,5.217391304,1143,0.226863762,3005,BOI,-,-,"Please name all of the ways you could use this object. Keep in mind that one object can have many uses. Separate your responses with a comma.",,n,16469,,,3286,13039,,,,"bake, ingredient, cook",1
64360d6189dec3ac8afc9a78,tr99q90xs7,"Affordance Norms_Prolific",1,6,2023-05-14T19:56:58+00:00,11.716444015503,84,"updated stim.csv",Version84.csv,"Version 84","List 84",shortening,,3002,4.92,2358,0.604328482,3003,BOI,-,-,"Please name all of the ways you could use this object. Keep in mind that one object can have many uses. Separate your responses with a comma.",,n,11367,,,3440,10001,,,,"cook, bake, use",1
64360d6189dec3ac8afc9a78,tr99q90xs7,"Affordance Norms_Prolific",1,7,2023-05-14T19:57:08+00:00,9.7411777973175,84,"updated stim.csv",Version84.csv,"Version 84","List 84",paperwork,,3001,5.625,1866,0.124284162,3002,BOI,-,-,"Please name all of the ways you could use this object. Keep in mind that one object can have many uses. Separate your responses with a comma.",,n,9394,,,2759,7183,,,,"prepare, do, organize",1
64360d6189dec3ac8afc9a78,tr99q90xs7,"Affordance Norms_Prolific",1,8,2023-05-14T19:57:26+00:00,17.703294038773,84,"updated stim.csv",Version84.csv,"Version 84","List 84",saucer,,3005,5.777777778,2249,0.304808074,3006,BOI,-,-,"Please name all of the ways you could use this object. Keep in mind that one object can have many uses. Separate your responses with a comma.",,n,17331,,,5002,15464,,,,"place, eat, prepare",1
64360d6189dec3ac8afc9a78,tr99q90xs7,"Affordance Norms_Prolific",1,9,2023-05-14T19:57:29+00:00,2.8015880584717,84,"updated stim.csv",Version84.csv,"Version 84","List 84",,,,,,,0,Instruct,-,-,"You have completed this section. Press ENTER to continue",,"Instruct 5",2519,,,-1,-1,,,,,1
64360d6189dec3ac8afc9a78,tr99q90xs7,"Affordance Norms_Prolific",1,10,2023-05-14T19:57:32+00:00,3.7714850902557,84,"updated stim.csv",Version84.csv,"Version 84","List 84",,,,,,,0,Instruct,-,-,"You will now start the full experiment. Press ENTER when you are ready to begin.",,,3506,,,-1,-1,,,,,1
64360d6189dec3ac8afc9a78,tr99q90xs7,"Affordance Norms_Prolific",1,11,2023-05-14T19:57:45+00:00,12.887380838394,84,"updated stim.csv",Version84.csv,"Version 84","List 84",virgin,,2500,4.448275862,2867,0.256632601,2501,BOI,-,-,"Please name all of the ways you could use this object. Keep in mind that one object can have many uses. Separate your responses with a comma.",,y,12540,,,2864,10631,,,,"new, inexperience, oil, sex",1
64360d6189dec3ac8afc9a78,tr99q90xs7,"Affordance Norms_Prolific",1,12,2023-05-14T19:57:55+00:00,10.001110076904,84,"updated stim.csv",Version84.csv,"Version 84","List 84",whirlpool,,2501,4.565217391,2926,0.806493724,2502,BOI,-,-,"Please name all of the ways you could use this object. Keep in mind that one object can have many uses. Separate your responses with a comma.",,y,9656,,,1950,7900,,,,"washer, water, round, spin",1
64360d6189dec3ac8afc9a78,tr99q90xs7,"Affordance Norms_Prolific",1,13,2023-05-14T19:58:04+00:00,8.7253310680389,84,"updated stim.csv",Version84.csv,"Version 84","List 84",drum,,2497,5.8,854,0.896443276,2498,BOI,-,-,"Please name all of the ways you could use this object. Keep in mind that one object can have many uses. Separate your responses with a comma.",,y,8364,,,2085,5619,,,,"beat, sound, hit",1
64360d6189dec3ac8afc9a78,tr99q90xs7,"Affordance Norms_Prolific",1,14,2023-05-14T19:58:17+00:00,12.98241186142,84,"updated stim.csv",Version84.csv,"Version 84","List 84",spade,,2496,4.4,2460,0.413437675,2497,BOI,-,-,"Please name all of the ways you could use this object. Keep in mind that one object can have many uses. Separate your responses with a comma.",,y,12617,,,1820,11694,,,,"cards, hearts, clubs, play",1
64360d6189dec3ac8afc9a78,tr99q90xs7,"Affordance Norms_Prolific",1,15,2023-05-14T19:58:27+00:00,10.347923994064,84,"updated stim.csv",Version84.csv,"Version 84","List 84",lever,,2492,5.038461538,1498,0.735422312,2493,BOI,-,-,"Please name all of the ways you could use this object. Keep in mind that one object can have many uses. Separate your responses with a comma.",,y,9994,,,1552,8112,,,,"pull, push, press",1
64360d6189dec3ac8afc9a78,tr99q90xs7,"Affordance Norms_Prolific",1,16,2023-05-14T19:58:38+00:00,10.311022996902,84,"updated stim.csv",Version84.csv,"Version 84","List 84",flycatcher,,2491,5.375,1020,0.717036462,2492,BOI,-,-,"Please name all of the ways you could use this object. Keep in mind that one object can have many uses. Separate your responses with a comma.",,y,9954,,,2329,8308,,,,"flyswatter, kill, injure",1
64360d6189dec3ac8afc9a78,tr99q90xs7,"Affordance Norms_Prolific",1,17,2023-05-14T19:58:50+00:00,12.162701129913,84,"updated stim.csv",Version84.csv,"Version 84","List 84",men,,2509,5.72,1644,0.146823724,2510,BOI,-,-,"Please name all of the ways you could use this object. Keep in mind that one object can have many uses. Separate your responses with a comma.",,y,11829,,,3647,9660,,,,"male, boy, sex",1
64360d6189dec3ac8afc9a78,tr99q90xs7,"Affordance Norms_Prolific",1,18,2023-05-14T19:59:00+00:00,10.029681921005,84,"updated stim.csv",Version84.csv,"Version 84","List 84",board,,2518,4.48,253,0.78576646,2519,BOI,-,-,"Please name all of the ways you could use this object. Keep in mind that one object can have many uses. Separate your responses with a comma.",,y,9676,,,2769,8377,,,,"wood, plank, build",1
64360d6189dec3ac8afc9a78,tr99q90xs7,"Affordance Norms_Prolific",1,19,2023-05-14T19:59:10+00:00,10.366878986359,84,"updated stim.csv",Version84.csv,"Version 84","List 84",storehouse,,2504,4.5,2551,0.542917048,2505,BOI,-,-,"Please name all of the ways you could use this object. Keep in mind that one object can have many uses. Separate your responses with a comma.",,y,10016,,,1799,8559,,,,"storage, garage, warehouse",1
64360d6189dec3ac8afc9a78,tr99q90xs7,"Affordance Norms_Prolific",1,20,2023-05-14T19:59:24+00:00,13.416896104813,84,"updated stim.csv",Version84.csv,"Version 84","List 84",strudel,,2505,5.666666667,2572,0.141914564,2506,BOI,-,-,"Please name all of the ways you could use this object. Keep in mind that one object can have many uses. Separate your responses with a comma.",,y,13061,,,3683,11042,,,,"sweet, apple, blueberry",1
64360d6189dec3ac8afc9a78,tr99q90xs7,"Affordance Norms_Prolific",1,21,2023-05-14T19:59:35+00:00,10.888454914093,84,"updated stim.csv",Version84.csv,"Version 84","List 84",plank,,2516,4.92,1987,0.104474765,2517,BOI,-,-,"Please name all of the ways you could use this object. Keep in mind that one object can have many uses. Separate your responses with a comma.",,y,10521,,,1683,9091,,,,"walk, board, jump",1
64360d6189dec3ac8afc9a78,tr99q90xs7,"Affordance Norms_Prolific",1,22,2023-05-14T19:59:49+00:00,14.835710048676,84,"updated stim.csv",Version84.csv,"Version 84","List 84",lamplighter,,2514,4.263157895,1457,0.501380127,2515,BOI,-,-,"Please name all of the ways you could use this object. Keep in mind that one object can have many uses. Separate your responses with a comma.",,y,14479,,,2711,12991,,,,"lamp, lighter, illuminate, camp",1
64360d6189dec3ac8afc9a78,tr99q90xs7,"Affordance Norms_Prolific",1,23,2023-05-14T19:59:58+00:00,8.5818769931793,84,"updated stim.csv",Version84.csv,"Version 84","List 84",toothpick,,2494,6.375,2734,0.454218489,2495,BOI,-,-,"Please name all of the ways you could use this object. Keep in mind that one object can have many uses. Separate your responses with a comma.",,y,8229,,,1948,6570,,,,"teeth, food, clean",1
64360d6189dec3ac8afc9a78,tr99q90xs7,"Affordance Norms_Prolific",1,24,2023-05-14T20:00:07+00:00,9.2384788990021,84,"updated stim.csv",Version84.csv,"Version 84","List 84",insole,,2510,4.454545455,1358,0.030018576,2511,BOI,-,-,"Please name all of the ways you could use this object. Keep in mind that one object can have many uses. Separate your responses with a comma.",,y,8891,,,1758,6972,,,,"shoe, tall, fit",1
64360d6189dec3ac8afc9a78,tr99q90xs7,"Affordance Norms_Prolific",1,25,2023-05-14T20:00:22+00:00,14.566102027893,84,"updated stim.csv",Version84.csv,"Version 84","List 84",shamrock,,2507,4.5,2321,0.881236324,2508,BOI,-,-,"Please name all of the ways you could use this object. Keep in mind that one object can have many uses. Separate your responses with a comma.",,y,14205,,,1942,12733,,,,"rock, ireland, green, plant",1
64360d6189dec3ac8afc9a78,tr99q90xs7,"Affordance Norms_Prolific",1,26,2023-05-14T20:00:34+00:00,12.279453992844,84,"updated stim.csv",Version84.csv,"Version 84","List 84",bait,,2503,4.375,125,0.805576651,2504,BOI,-,-,"Please name all of the ways you could use this object. Keep in mind that one object can have many uses. Separate your responses with a comma.",,y,11932,,,3025,10570,,,,"fish, worm, cricket, lure",1
64360d6189dec3ac8afc9a78,tr99q90xs7,"Affordance Norms_Prolific",1,27,2023-05-14T20:00:46+00:00,11.593255996704,84,"updated stim.csv",Version84.csv,"Version 84","List 84",chain,,2499,5.958333333,484,0.692046869,2500,BOI,-,-,"Please name all of the ways you could use this object. Keep in mind that one object can have many uses. Separate your responses with a comma.",,y,11244,,,1843,9541,,,,"pull, gold, silver, jewelry",1
64360d6189dec3ac8afc9a78,tr99q90xs7,"Affordance Norms_Prolific",1,28,2023-05-14T20:00:54+00:00,8.8321371078491,84,"updated stim.csv",Version84.csv,"Version 84","List 84",woodpile,,2508,5,2962,0.539971899,2509,BOI,-,-,"Please name all of the ways you could use this object. Keep in mind that one object can have many uses. Separate your responses with a comma.",,y,8474,,,1786,6633,,,,"logs, fire, cook",1
64360d6189dec3ac8afc9a78,tr99q90xs7,"Affordance Norms_Prolific",1,29,2023-05-14T20:01:29+00:00,34.493083000183,84,"updated stim.csv",Version84.csv,"Version 84","List 84",ecologist,,2493,4.458333333,887,0.370586112,2494,BOI,-,-,"Please name all of the ways you could use this object. Keep in mind that one object can have many uses. Separate your responses with a comma.",,y,34140,,,2679,32554,,,,"outdoors, insects, atoms, organisms",1
64360d6189dec3ac8afc9a78,tr99q90xs7,"Affordance Norms_Prolific",1,30,2023-05-14T20:01:45+00:00,15.843822002411,84,"updated stim.csv",Version84.csv,"Version 84","List 84",foliage,,2511,4.6,1025,0.540952756,2512,BOI,-,-,"Please name all of the ways you could use this object. Keep in mind that one object can have many uses. Separate your responses with a comma.",,y,15505,,,1849,14657,,,,"leaf, fall, color, tree, plant",1
64360d6189dec3ac8afc9a78,tr99q90xs7,"Affordance Norms_Prolific",1,31,2023-05-14T20:01:53+00:00,8.6294078826904,84,"updated stim.csv",Version84.csv,"Version 84","List 84",coffin,,2498,5.52,594,0.959219252,2499,BOI,-,-,"Please name all of the ways you could use this object. Keep in mind that one object can have many uses. Separate your responses with a comma.",,y,8275,,,1306,6874,,,,"dead, wood, underground",1
64360d6189dec3ac8afc9a78,tr99q90xs7,"Affordance Norms_Prolific",1,32,2023-05-14T20:02:01+00:00,7.5203821659088,84,"updated stim.csv",Version84.csv,"Version 84","List 84",lifeguard,,2520,4.96,1506,0.061995952,2521,BOI,-,-,"Please name all of the ways you could use this object. Keep in mind that one object can have many uses. Separate your responses with a comma.",,y,7178,,,1253,5798,,,,"save, hero, swim",1
64360d6189dec3ac8afc9a78,tr99q90xs7,"Affordance Norms_Prolific",1,33,2023-05-14T20:02:14+00:00,13.268913984299,84,"updated stim.csv",Version84.csv,"Version 84","List 84",grocery,,2512,5.068965517,1179,0.868982261,2513,BOI,-,-,"Please name all of the ways you could use this object. Keep in mind that one object can have many uses. Separate your responses with a comma.",,y,12913,,,3536,11215,,,,"eat, bakery, food, drinks",1
64360d6189dec3ac8afc9a78,tr99q90xs7,"Affordance Norms_Prolific",1,34,2023-05-14T20:02:27+00:00,12.31561088562,84,"updated stim.csv",Version84.csv,"Version 84","List 84",lamp,,2515,6.083333333,1455,0.851826569,2516,BOI,-,-,"Please name all of the ways you could use this object. Keep in mind that one object can have many uses. Separate your responses with a comma.",,y,11966,,,1340,8661,,,,"light, switch, shade",1
64360d6189dec3ac8afc9a78,tr99q90xs7,"Affordance Norms_Prolific",1,35,2023-05-14T20:02:36+00:00,9.5681591033936,84,"updated stim.csv",Version84.csv,"Version 84","List 84",hatchback,,2513,4.818181818,1260,0.956452001,2514,BOI,-,-,"Please name all of the ways you could use this object. Keep in mind that one object can have many uses. Separate your responses with a comma.",,y,9142,,,1332,6967,,,,"car, small, lift",1
64360d6189dec3ac8afc9a78,tr99q90xs7,"Affordance Norms_Prolific",1,36,2023-05-14T20:02:46+00:00,9.7216799259186,84,"updated stim.csv",Version84.csv,"Version 84","List 84",feather,,2517,5.260869565,956,0.408799734,2518,BOI,-,-,"Please name all of the ways you could use this object. Keep in mind that one object can have many uses. Separate your responses with a comma.",,y,9389,,,1353,7908,,,,"bird, light, fly",1
64360d6189dec3ac8afc9a78,tr99q90xs7,"Affordance Norms_Prolific",1,37,2023-05-14T20:03:00+00:00,14.059105873108,84,"updated stim.csv",Version84.csv,"Version 84","List 84",microwave,,2519,5.28,1656,0.580288811,2520,BOI,-,-,"Please name all of the ways you could use this object. Keep in mind that one object can have many uses. Separate your responses with a comma.",,y,13700,,,1299,12444,,,,"cook, fast, quick, frozen meals",1
64360d6189dec3ac8afc9a78,tr99q90xs7,"Affordance Norms_Prolific",1,38,2023-05-14T20:03:16+00:00,15.637428045273,84,"updated stim.csv",Version84.csv,"Version 84","List 84",drapery,,2506,4.68,838,0.014862316,2507,BOI,-,-,"Please name all of the ways you could use this object. Keep in mind that one object can have many uses. Separate your responses with a comma.",,y,15295,,,1937,13643,,,,"curtain, window, cover",1
64360d6189dec3ac8afc9a78,tr99q90xs7,"Affordance Norms_Prolific",1,39,2023-05-14T20:03:27+00:00,11.668562173843,84,"updated stim.csv",Version84.csv,"Version 84","List 84",file,,2502,5.041666667,974,0.376378631,2503,BOI,-,-,"Please name all of the ways you could use this object. Keep in mind that one object can have many uses. Separate your responses with a comma.",,y,11327,,,1649,9810,,,,"paperwork, importain, keep, organize",1
64360d6189dec3ac8afc9a78,tr99q90xs7,"Affordance Norms_Prolific",1,40,2023-05-14T20:03:37+00:00,10.234206914902,84,"updated stim.csv",Version84.csv,"Version 84","List 84",earthworm,,2495,4.916666667,883,0.28261322,2496,BOI,-,-,"Please name all of the ways you could use this object. Keep in mind that one object can have many uses. Separate your responses with a comma.",,y,9872,,,1545,7968,,,,"worm, fish, birdfood",1
64360d6189dec3ac8afc9a78,tr99q90xs7,"Affordance Norms_Prolific",1,41,2023-05-14T20:03:40+00:00,2.3289709091187,84,"updated stim.csv",Version84.csv,"Version 84","List 84",,,,,,,0,Instruct,,,"You will now be asked a few questions about your experience today.",,"Instruct 4",2040,,,-1,-1,,,,,1
