Username,ID,ExperimentName,Session,Trial,Date,TimeDif,"Condition Number","Stimuli File","Order File","Condition Description","Condition Notes",Stimuli*Cue,Stimuli*Answer,Stimuli*Shuffle,"Stimuli*Stimuli Notes",Stimuli*Value,Stimuli*Rand,Procedure*Item,"Procedure*Trial Type","Procedure*Max Time","Procedure*Min Time",Procedure*Text,"Procedure*Procedure Notes",Procedure*Shuffle,Response*RT,Response*Response,Response*Accuracy,Response*RTfirst,Response*RTlast,Response*strictAcc,Response*lenientAcc,Response*focus,Response*JOL,Response*Focus
5c60501d767686000100150c,nvei55ymch,"Affordance Norms_Prolific",1,1,2023-05-14T17:27:02+00:00,11.648000001907,31,"updated stim.csv",Version31.csv,"Version 31","List 31",,,,,,,0,Instruct,-,10,"In this section, you will be presented with a series of objects. Please name as many possible uses for this object as you can think of by typing them in the box below each object.",,Instruct1,11414,,,-1,-1,,,,,1
5c60501d767686000100150c,nvei55ymch,"Affordance Norms_Prolific",1,2,2023-05-14T17:27:21+00:00,19.813379049301,31,"updated stim.csv",Version31.csv,"Version 31","List 31",,,,,,,0,Instruct,-,10,"Please keep in mind that a single object will have more than one use. For example, a ball can be thrown or can be bounced or even stepped on. When listing multiple uses for one object, please separate each use with a comma (i.e., thrown, bounced, stepped on)",,Instruct2,19478,,,-1,-1,,,,,1
5c60501d767686000100150c,nvei55ymch,"Affordance Norms_Prolific",1,3,2023-05-14T17:27:25+00:00,3.6796650886536,31,"updated stim.csv",Version31.csv,"Version 31","List 31",,,,,,,0,Instruct,-,-,"Before starting the experiment, you will complete a short practice sesstion. Press ENTER when you are ready to begin.",,Instruct3,3340,,,-1,-1,,,,,1
5c60501d767686000100150c,nvei55ymch,"Affordance Norms_Prolific",1,4,2023-05-14T17:27:49+00:00,23.742538928986,31,"updated stim.csv",Version31.csv,"Version 31","List 31",spaghetti,,3003,6,2461,0.090379998,3004,BOI,-,-,"Please name all of the ways you could use this object. Keep in mind that one object can have many uses. Separate your responses with a comma.",,n,23402,,,7883,14991,,,,"cooked,eaten,",1
5c60501d767686000100150c,nvei55ymch,"Affordance Norms_Prolific",1,5,2023-05-14T17:28:07+00:00,18.150985956192,31,"updated stim.csv",Version31.csv,"Version 31","List 31",shortening,,3002,4.92,2358,0.604328482,3003,BOI,-,-,"Please name all of the ways you could use this object. Keep in mind that one object can have many uses. Separate your responses with a comma.",,n,17810,,,-1,-1,,,,,1
5c60501d767686000100150c,nvei55ymch,"Affordance Norms_Prolific",1,6,2023-05-14T17:28:36+00:00,28.829894065857,31,"updated stim.csv",Version31.csv,"Version 31","List 31",saucer,,3005,5.777777778,2249,0.304808074,3006,BOI,-,-,"Please name all of the ways you could use this object. Keep in mind that one object can have many uses. Separate your responses with a comma.",,n,28484,,,8051,21606,,,,"to put a cup on,to drink from,to rest a spoon on",1
5c60501d767686000100150c,nvei55ymch,"Affordance Norms_Prolific",1,7,2023-05-14T17:28:50+00:00,14.271127939224,31,"updated stim.csv",Version31.csv,"Version 31","List 31",grain,,3004,5.217391304,1143,0.226863762,3005,BOI,-,-,"Please name all of the ways you could use this object. Keep in mind that one object can have many uses. Separate your responses with a comma.",,n,13937,,,5824,12522,,,,"eat,swallow",1
5c60501d767686000100150c,nvei55ymch,"Affordance Norms_Prolific",1,8,2023-05-14T17:29:07+00:00,16.563704013824,31,"updated stim.csv",Version31.csv,"Version 31","List 31",paperwork,,3001,5.625,1866,0.124284162,3002,BOI,-,-,"Please name all of the ways you could use this object. Keep in mind that one object can have many uses. Separate your responses with a comma.",,n,16225,,,5286,11402,,,,"file,stack,read,",1
5c60501d767686000100150c,nvei55ymch,"Affordance Norms_Prolific",1,9,2023-05-14T17:29:09+00:00,2.3319370746613,31,"updated stim.csv",Version31.csv,"Version 31","List 31",,,,,,,0,Instruct,-,-,"You have completed this section. Press ENTER to continue",,"Instruct 5",1987,,,-1,-1,,,,,1
5c60501d767686000100150c,nvei55ymch,"Affordance Norms_Prolific",1,10,2023-05-14T17:29:11+00:00,2.3185069561005,31,"updated stim.csv",Version31.csv,"Version 31","List 31",,,,,,,0,Instruct,-,-,"You will now start the full experiment. Press ENTER when you are ready to begin.",,,1975,,,-1,-1,,,,,1
5c60501d767686000100150c,nvei55ymch,"Affordance Norms_Prolific",1,11,2023-05-14T17:29:36+00:00,24.350610971451,31,"updated stim.csv",Version31.csv,"Version 31","List 31",wing,,905,4.48,2949,0.673392846,906,BOI,-,-,"Please name all of the ways you could use this object. Keep in mind that one object can have many uses. Separate your responses with a comma.",,y,24013,,,9110,17367,,,,"fly,eat,flap",1
5c60501d767686000100150c,nvei55ymch,"Affordance Norms_Prolific",1,12,2023-05-14T17:29:51+00:00,15.030066013336,31,"updated stim.csv",Version31.csv,"Version 31","List 31",mansions,,921,4.260869565,1594,0.475635847,922,BOI,-,-,"Please name all of the ways you could use this object. Keep in mind that one object can have many uses. Separate your responses with a comma.",,y,14681,,,3601,13135,,,,"live,rent",1
5c60501d767686000100150c,nvei55ymch,"Affordance Norms_Prolific",1,13,2023-05-14T17:30:09+00:00,18.798768997192,31,"updated stim.csv",Version31.csv,"Version 31","List 31",folder,,916,6.260869565,1024,0.704916345,917,BOI,-,-,"Please name all of the ways you could use this object. Keep in mind that one object can have many uses. Separate your responses with a comma.",,y,18470,,,4291,16879,,,,"file,stack,read",1
5c60501d767686000100150c,nvei55ymch,"Affordance Norms_Prolific",1,14,2023-05-14T17:30:17+00:00,7.5838630199432,31,"updated stim.csv",Version31.csv,"Version 31","List 31",compressor,,923,4.5,615,0.466861581,924,BOI,-,-,"Please name all of the ways you could use this object. Keep in mind that one object can have many uses. Separate your responses with a comma.",,y,7242,,,4504,5039,,,,gas,1
5c60501d767686000100150c,nvei55ymch,"Affordance Norms_Prolific",1,15,2023-05-14T17:30:23+00:00,5.8372449874878,31,"updated stim.csv",Version31.csv,"Version 31","List 31",theologian,,913,4.47826087,2674,0.353924439,914,BOI,-,-,"Please name all of the ways you could use this object. Keep in mind that one object can have many uses. Separate your responses with a comma.",,y,5501,,,3020,4264,,,,read,1
5c60501d767686000100150c,nvei55ymch,"Affordance Norms_Prolific",1,16,2023-05-14T17:30:43+00:00,19.89684009552,31,"updated stim.csv",Version31.csv,"Version 31","List 31",gravel,,914,5.461538462,1164,0.895035474,915,BOI,-,-,"Please name all of the ways you could use this object. Keep in mind that one object can have many uses. Separate your responses with a comma.",,y,19558,,,2544,18783,,,,"step,stand,squash,walk,ride",1
5c60501d767686000100150c,nvei55ymch,"Affordance Norms_Prolific",1,17,2023-05-14T17:30:46+00:00,3.4708020687103,31,"updated stim.csv",Version31.csv,"Version 31","List 31",chronometer,,930,4.5,539,0.284768844,931,BOI,-,-,"Please name all of the ways you could use this object. Keep in mind that one object can have many uses. Separate your responses with a comma.",,y,3141,,,-1,-1,,,,,1
5c60501d767686000100150c,nvei55ymch,"Affordance Norms_Prolific",1,18,2023-05-14T17:30:56+00:00,9.8036408424377,31,"updated stim.csv",Version31.csv,"Version 31","List 31",repairer,,902,4.583333333,2155,0.34044344,903,BOI,-,-,"Please name all of the ways you could use this object. Keep in mind that one object can have many uses. Separate your responses with a comma.",,y,9466,,,5592,6521,,,,fix,1
5c60501d767686000100150c,nvei55ymch,"Affordance Norms_Prolific",1,19,2023-05-14T17:31:08+00:00,11.46952009201,31,"updated stim.csv",Version31.csv,"Version 31","List 31",outfit,,924,6.130434783,1828,0.398220856,925,BOI,-,-,"Please name all of the ways you could use this object. Keep in mind that one object can have many uses. Separate your responses with a comma.",,y,11136,,,1805,10319,,,,"wear,dress",1
5c60501d767686000100150c,nvei55ymch,"Affordance Norms_Prolific",1,20,2023-05-14T17:31:18+00:00,10.271818876266,31,"updated stim.csv",Version31.csv,"Version 31","List 31",memo,,927,5.04,1642,0.10302145,928,BOI,-,-,"Please name all of the ways you could use this object. Keep in mind that one object can have many uses. Separate your responses with a comma.",,y,9934,,,1971,6204,,,,"read,write,",1
5c60501d767686000100150c,nvei55ymch,"Affordance Norms_Prolific",1,21,2023-05-14T17:31:35+00:00,17.157663106918,31,"updated stim.csv",Version31.csv,"Version 31","List 31",worm,,919,4.681818182,2975,0.797543421,920,BOI,-,-,"Please name all of the ways you could use this object. Keep in mind that one object can have many uses. Separate your responses with a comma.",,y,16819,,,2439,4200,,,,"eat,",1
5c60501d767686000100150c,nvei55ymch,"Affordance Norms_Prolific",1,22,2023-05-14T17:31:42+00:00,6.6493899822235,31,"updated stim.csv",Version31.csv,"Version 31","List 31",goatee,,917,4.375,1123,0.738463999,918,BOI,-,-,"Please name all of the ways you could use this object. Keep in mind that one object can have many uses. Separate your responses with a comma.",,y,6318,,,4268,5501,,,,beard,1
5c60501d767686000100150c,nvei55ymch,"Affordance Norms_Prolific",1,23,2023-05-14T17:31:56+00:00,14.004185914993,31,"updated stim.csv",Version31.csv,"Version 31","List 31",tie,,906,6.260869565,2694,0.276546396,907,BOI,-,-,"Please name all of the ways you could use this object. Keep in mind that one object can have many uses. Separate your responses with a comma.",,y,13666,,,2772,4894,,,,"fasten,",1
5c60501d767686000100150c,nvei55ymch,"Affordance Norms_Prolific",1,24,2023-05-14T17:32:04+00:00,8.0968480110168,31,"updated stim.csv",Version31.csv,"Version 31","List 31",latch,,910,5.541666667,1469,0.403713267,911,BOI,-,-,"Please name all of the ways you could use this object. Keep in mind that one object can have many uses. Separate your responses with a comma.",,y,7757,,,4067,4704,,,,lock,1
5c60501d767686000100150c,nvei55ymch,"Affordance Norms_Prolific",1,25,2023-05-14T17:32:11+00:00,6.9276111125946,31,"updated stim.csv",Version31.csv,"Version 31","List 31",hurdle,,908,4.36,1337,0.835252702,909,BOI,-,-,"Please name all of the ways you could use this object. Keep in mind that one object can have many uses. Separate your responses with a comma.",,y,6597,,,1996,2757,,,,jump,1
5c60501d767686000100150c,nvei55ymch,"Affordance Norms_Prolific",1,26,2023-05-14T17:32:20+00:00,9.1981780529022,31,"updated stim.csv",Version31.csv,"Version 31","List 31",daisy,,928,5,751,0.900654949,929,BOI,-,-,"Please name all of the ways you could use this object. Keep in mind that one object can have many uses. Separate your responses with a comma.",,y,8858,,,2023,4936,,,,"flower,chain",1
5c60501d767686000100150c,nvei55ymch,"Affordance Norms_Prolific",1,27,2023-05-14T17:32:28+00:00,8.6229729652405,31,"updated stim.csv",Version31.csv,"Version 31","List 31",nightcaps,,903,4.708333333,1767,0.050096921,904,BOI,-,-,"Please name all of the ways you could use this object. Keep in mind that one object can have many uses. Separate your responses with a comma.",,y,8279,,,3371,6087,,,,"drink,hats",1
5c60501d767686000100150c,nvei55ymch,"Affordance Norms_Prolific",1,28,2023-05-14T17:32:40+00:00,11.879871845245,31,"updated stim.csv",Version31.csv,"Version 31","List 31",dentist,,925,5.038461538,775,0.139852212,926,BOI,-,-,"Please name all of the ways you could use this object. Keep in mind that one object can have many uses. Separate your responses with a comma.",,y,11542,,,7433,10056,,,,profession,1
5c60501d767686000100150c,nvei55ymch,"Affordance Norms_Prolific",1,29,2023-05-14T17:32:43+00:00,2.9026939868927,31,"updated stim.csv",Version31.csv,"Version 31","List 31",sailcloth,,901,4.454545455,2217,0.406078443,902,BOI,-,-,"Please name all of the ways you could use this object. Keep in mind that one object can have many uses. Separate your responses with a comma.",,y,2566,,,-1,-1,,,,,1
5c60501d767686000100150c,nvei55ymch,"Affordance Norms_Prolific",1,30,2023-05-14T17:32:56+00:00,13.245269060135,31,"updated stim.csv",Version31.csv,"Version 31","List 31",dynamite,,926,5.260869565,874,0.78215374,927,BOI,-,-,"Please name all of the ways you could use this object. Keep in mind that one object can have many uses. Separate your responses with a comma.",,y,12904,,,4251,11643,,,,"explode,ignite",1
5c60501d767686000100150c,nvei55ymch,"Affordance Norms_Prolific",1,31,2023-05-14T17:33:06+00:00,9.3952560424805,31,"updated stim.csv",Version31.csv,"Version 31","List 31",prop,,918,5.125,2074,0.316932676,919,BOI,-,-,"Please name all of the ways you could use this object. Keep in mind that one object can have many uses. Separate your responses with a comma.",,y,9060,,,6930,8004,,,,tool,1
5c60501d767686000100150c,nvei55ymch,"Affordance Norms_Prolific",1,32,2023-05-14T17:33:22+00:00,16.166928052902,31,"updated stim.csv",Version31.csv,"Version 31","List 31",hairstyle,,911,4.68,1217,0.474140169,912,BOI,-,-,"Please name all of the ways you could use this object. Keep in mind that one object can have many uses. Separate your responses with a comma.",,y,15835,,,9742,10435,,,,brush,1
5c60501d767686000100150c,nvei55ymch,"Affordance Norms_Prolific",1,33,2023-05-14T17:33:40+00:00,18.381244897842,31,"updated stim.csv",Version31.csv,"Version 31","List 31",pub,,922,4.666666667,2084,0.25952428,923,BOI,-,-,"Please name all of the ways you could use this object. Keep in mind that one object can have many uses. Separate your responses with a comma.",,y,18040,,,4502,12352,,,,"drink,chat,eat",1
5c60501d767686000100150c,nvei55ymch,"Affordance Norms_Prolific",1,34,2023-05-14T17:33:51+00:00,11.059245109558,31,"updated stim.csv",Version31.csv,"Version 31","List 31",fiddle,,929,6.043478261,970,0.5122889,930,BOI,-,-,"Please name all of the ways you could use this object. Keep in mind that one object can have many uses. Separate your responses with a comma.",,y,10726,,,4042,9596,,,,"play,violin",1
5c60501d767686000100150c,nvei55ymch,"Affordance Norms_Prolific",1,35,2023-05-14T17:34:02+00:00,10.797629833221,31,"updated stim.csv",Version31.csv,"Version 31","List 31",marmalade,,915,6.041666667,1610,0.374321308,916,BOI,-,-,"Please name all of the ways you could use this object. Keep in mind that one object can have many uses. Separate your responses with a comma.",,y,10459,,,2660,9157,,,,"eat,spread",1
5c60501d767686000100150c,nvei55ymch,"Affordance Norms_Prolific",1,36,2023-05-14T17:34:13+00:00,10.338191986084,31,"updated stim.csv",Version31.csv,"Version 31","List 31",warden,,909,4.434782609,2893,0.782765752,910,BOI,-,-,"Please name all of the ways you could use this object. Keep in mind that one object can have many uses. Separate your responses with a comma.",,y,10000,,,3519,8793,,,,ticket,1
5c60501d767686000100150c,nvei55ymch,"Affordance Norms_Prolific",1,37,2023-05-14T17:34:23+00:00,10.755991220474,31,"updated stim.csv",Version31.csv,"Version 31","List 31",crossword,,920,4.555555556,707,0.583325766,921,BOI,-,-,"Please name all of the ways you could use this object. Keep in mind that one object can have many uses. Separate your responses with a comma.",,y,10431,,,3955,8874,,,,"write,letters",1
5c60501d767686000100150c,nvei55ymch,"Affordance Norms_Prolific",1,38,2023-05-14T17:34:39+00:00,15.582531929016,31,"updated stim.csv",Version31.csv,"Version 31","List 31",drain,,907,4.291666667,836,0.644056443,908,BOI,-,-,"Please name all of the ways you could use this object. Keep in mind that one object can have many uses. Separate your responses with a comma.",,y,15241,,,3638,8130,,,,"water,tire",1
5c60501d767686000100150c,nvei55ymch,"Affordance Norms_Prolific",1,39,2023-05-14T17:34:48+00:00,9.2796709537506,31,"updated stim.csv",Version31.csv,"Version 31","List 31",shrubbery,,904,4.653846154,2369,0.699361245,905,BOI,-,-,"Please name all of the ways you could use this object. Keep in mind that one object can have many uses. Separate your responses with a comma.",,y,8947,,,4180,5568,,,,"bush,",1
5c60501d767686000100150c,nvei55ymch,"Affordance Norms_Prolific",1,40,2023-05-14T17:34:58+00:00,9.8172550201416,31,"updated stim.csv",Version31.csv,"Version 31","List 31",incubator,,912,4.291666667,1352,0.921173331,913,BOI,-,-,"Please name all of the ways you could use this object. Keep in mind that one object can have many uses. Separate your responses with a comma.",,y,9481,,,3576,4367,,,,live,1
5c60501d767686000100150c,nvei55ymch,"Affordance Norms_Prolific",1,41,2023-05-14T17:35:01+00:00,2.7310309410095,31,"updated stim.csv",Version31.csv,"Version 31","List 31",,,,,,,0,Instruct,,,"You will now be asked a few questions about your experience today.",,"Instruct 4",2401,,,-1,-1,,,,,1
