Username,ID,ExperimentName,Session,Trial,Date,TimeDif,"Condition Number","Stimuli File","Order File","Condition Description","Condition Notes",Stimuli*Cue,Stimuli*Answer,Stimuli*Shuffle,"Stimuli*Stimuli Notes",Stimuli*Value,Stimuli*Rand,Procedure*Item,"Procedure*Trial Type","Procedure*Max Time","Procedure*Min Time",Procedure*Text,"Procedure*Procedure Notes",Procedure*Shuffle,Response*RT,Response*Response,Response*Accuracy,Response*RTfirst,Response*RTlast,Response*strictAcc,Response*lenientAcc,Response*focus,Response*JOL,Response*Focus
61096a6ab244ccee2220a180,zgvrejf1mw,"Affordance Norms_Prolific",1,1,2023-05-14T18:47:22+00:00,20.643365859985,70,"updated stim.csv",Version70.csv,"Version 70","List 70",,,,,,,0,Instruct,-,10,"In this section, you will be presented with a series of objects. Please name as many possible uses for this object as you can think of by typing them in the box below each object.",,Instruct1,20371,,,-1,-1,,,,,1
61096a6ab244ccee2220a180,zgvrejf1mw,"Affordance Norms_Prolific",1,2,2023-05-14T18:47:34+00:00,11.999665021896,70,"updated stim.csv",Version70.csv,"Version 70","List 70",,,,,,,0,Instruct,-,10,"Please keep in mind that a single object will have more than one use. For example, a ball can be thrown or can be bounced or even stepped on. When listing multiple uses for one object, please separate each use with a comma (i.e., thrown, bounced, stepped on)",,Instruct2,11568,,,-1,-1,,,,,1
61096a6ab244ccee2220a180,zgvrejf1mw,"Affordance Norms_Prolific",1,3,2023-05-14T18:47:37+00:00,3.1955089569092,70,"updated stim.csv",Version70.csv,"Version 70","List 70",,,,,,,0,Instruct,-,-,"Before starting the experiment, you will complete a short practice sesstion. Press ENTER when you are ready to begin.",,Instruct3,2773,,,-1,-1,,,,,1
61096a6ab244ccee2220a180,zgvrejf1mw,"Affordance Norms_Prolific",1,4,2023-05-14T18:47:52+00:00,14.519612073898,70,"updated stim.csv",Version70.csv,"Version 70","List 70",grain,,3004,5.217391304,1143,0.226863762,3005,BOI,-,-,"Please name all of the ways you could use this object. Keep in mind that one object can have many uses. Separate your responses with a comma.",,n,14086,,,2386,12566,,,,"eat cook play with purchase",1
61096a6ab244ccee2220a180,zgvrejf1mw,"Affordance Norms_Prolific",1,5,2023-05-14T18:48:06+00:00,14.22490811348,70,"updated stim.csv",Version70.csv,"Version 70","List 70",paperwork,,3001,5.625,1866,0.124284162,3002,BOI,-,-,"Please name all of the ways you could use this object. Keep in mind that one object can have many uses. Separate your responses with a comma.",,n,13766,,,4808,13010,,,,"read scan send complete",1
61096a6ab244ccee2220a180,zgvrejf1mw,"Affordance Norms_Prolific",1,6,2023-05-14T18:48:17+00:00,11.055807828903,70,"updated stim.csv",Version70.csv,"Version 70","List 70",spaghetti,,3003,6,2461,0.090379998,3004,BOI,-,-,"Please name all of the ways you could use this object. Keep in mind that one object can have many uses. Separate your responses with a comma.",,n,10591,,,2016,9949,,,,"cook eat buy open",1
61096a6ab244ccee2220a180,zgvrejf1mw,"Affordance Norms_Prolific",1,7,2023-05-14T18:48:26+00:00,8.6895501613617,70,"updated stim.csv",Version70.csv,"Version 70","List 70",shortening,,3002,4.92,2358,0.604328482,3003,BOI,-,-,"Please name all of the ways you could use this object. Keep in mind that one object can have many uses. Separate your responses with a comma.",,n,8223,,,3961,7345,,,,"cut reduce",1
61096a6ab244ccee2220a180,zgvrejf1mw,"Affordance Norms_Prolific",1,8,2023-05-14T18:48:40+00:00,14.629177808762,70,"updated stim.csv",Version70.csv,"Version 70","List 70",saucer,,3005,5.777777778,2249,0.304808074,3006,BOI,-,-,"Please name all of the ways you could use this object. Keep in mind that one object can have many uses. Separate your responses with a comma.",,n,14168,,,3587,13437,,,,"put cup on put candle on wash dry",1
61096a6ab244ccee2220a180,zgvrejf1mw,"Affordance Norms_Prolific",1,9,2023-05-14T18:48:44+00:00,3.7475850582123,70,"updated stim.csv",Version70.csv,"Version 70","List 70",,,,,,,0,Instruct,-,-,"You have completed this section. Press ENTER to continue",,"Instruct 5",3313,,,-1,-1,,,,,1
61096a6ab244ccee2220a180,zgvrejf1mw,"Affordance Norms_Prolific",1,10,2023-05-14T18:48:47+00:00,2.832771062851,70,"updated stim.csv",Version70.csv,"Version 70","List 70",,,,,,,0,Instruct,-,-,"You will now start the full experiment. Press ENTER when you are ready to begin.",,,2405,,,-1,-1,,,,,1
61096a6ab244ccee2220a180,zgvrejf1mw,"Affordance Norms_Prolific",1,11,2023-05-14T18:49:08+00:00,21.519887924194,70,"updated stim.csv",Version70.csv,"Version 70","List 70",rib,,2079,5.92,2164,0.592595279,2080,BOI,-,-,"Please name all of the ways you could use this object. Keep in mind that one object can have many uses. Separate your responses with a comma.",,y,21078,,,3343,19575,,,,"rub dry scratch massage",1
61096a6ab244ccee2220a180,zgvrejf1mw,"Affordance Norms_Prolific",1,12,2023-05-14T18:49:25+00:00,16.697304010391,70,"updated stim.csv",Version70.csv,"Version 70","List 70",daggers,,2100,4.75,748,0.051742591,2101,BOI,-,-,"Please name all of the ways you could use this object. Keep in mind that one object can have many uses. Separate your responses with a comma.",,y,16240,,,6858,15344,,,,"throw clean ",1
61096a6ab244ccee2220a180,zgvrejf1mw,"Affordance Norms_Prolific",1,13,2023-05-14T18:49:40+00:00,14.944034099579,70,"updated stim.csv",Version70.csv,"Version 70","List 70",furnishings,,2080,6.166666667,1067,0.472021137,2081,BOI,-,-,"Please name all of the ways you could use this object. Keep in mind that one object can have many uses. Separate your responses with a comma.",,y,14519,,,3477,14128,,,,"sit on look at put feet up",1
61096a6ab244ccee2220a180,zgvrejf1mw,"Affordance Norms_Prolific",1,14,2023-05-14T18:49:53+00:00,12.692182064056,70,"updated stim.csv",Version70.csv,"Version 70","List 70",dumbwaiter,,2074,4.44,866,0.08191597,2075,BOI,-,-,"Please name all of the ways you could use this object. Keep in mind that one object can have many uses. Separate your responses with a comma.",,y,12233,,,2857,11601,,,,"dont know",1
61096a6ab244ccee2220a180,zgvrejf1mw,"Affordance Norms_Prolific",1,15,2023-05-14T18:50:05+00:00,12.160688877106,70,"updated stim.csv",Version70.csv,"Version 70","List 70",captain,,2097,4.913043478,427,0.964304761,2098,BOI,-,-,"Please name all of the ways you could use this object. Keep in mind that one object can have many uses. Separate your responses with a comma.",,y,11684,,,3413,10976,,,,"steer ship clean ship",1
61096a6ab244ccee2220a180,zgvrejf1mw,"Affordance Norms_Prolific",1,16,2023-05-14T18:50:22+00:00,17.46413898468,70,"updated stim.csv",Version70.csv,"Version 70","List 70",passport,,2087,5,1883,0.971954656,2088,BOI,-,-,"Please name all of the ways you could use this object. Keep in mind that one object can have many uses. Separate your responses with a comma.",,y,17011,,,2915,15162,,,,"pack show send scan",1
61096a6ab244ccee2220a180,zgvrejf1mw,"Affordance Norms_Prolific",1,17,2023-05-14T18:50:34+00:00,12.146866083145,70,"updated stim.csv",Version70.csv,"Version 70","List 70",boatman,,2072,4.76,257,0.334661511,2073,BOI,-,-,"Please name all of the ways you could use this object. Keep in mind that one object can have many uses. Separate your responses with a comma.",,y,11688,,,2219,11042,,,,"steers ship looks after passengers",1
61096a6ab244ccee2220a180,zgvrejf1mw,"Affordance Norms_Prolific",1,18,2023-05-14T18:50:42+00:00,7.037467956543,70,"updated stim.csv",Version70.csv,"Version 70","List 70",lobster,,2099,4.92,1534,0.919551161,2100,BOI,-,-,"Please name all of the ways you could use this object. Keep in mind that one object can have many uses. Separate your responses with a comma.",,y,6560,,,1743,5451,,,,"cook eat ",1
61096a6ab244ccee2220a180,zgvrejf1mw,"Affordance Norms_Prolific",1,19,2023-05-14T18:50:54+00:00,12.486301898956,70,"updated stim.csv",Version70.csv,"Version 70","List 70",caterpillar,,2085,5.083333333,458,0.20144475,2086,BOI,-,-,"Please name all of the ways you could use this object. Keep in mind that one object can have many uses. Separate your responses with a comma.",,y,12024,,,6073,11480,,,,"crawl on leaves ",1
61096a6ab244ccee2220a180,zgvrejf1mw,"Affordance Norms_Prolific",1,20,2023-05-14T18:51:04+00:00,10.130228996277,70,"updated stim.csv",Version70.csv,"Version 70","List 70",vibrator,,2077,6.464285714,2855,0.939566064,2078,BOI,-,-,"Please name all of the ways you could use this object. Keep in mind that one object can have many uses. Separate your responses with a comma.",,y,9675,,,4784,7823,,,,"use enjoy",1
61096a6ab244ccee2220a180,zgvrejf1mw,"Affordance Norms_Prolific",1,21,2023-05-14T18:51:14+00:00,9.7032392024994,70,"updated stim.csv",Version70.csv,"Version 70","List 70",mallet,,2098,5.56,1584,0.493050633,2099,BOI,-,-,"Please name all of the ways you could use this object. Keep in mind that one object can have many uses. Separate your responses with a comma.",,y,9255,,,2747,8537,,,,"bang on things",1
61096a6ab244ccee2220a180,zgvrejf1mw,"Affordance Norms_Prolific",1,22,2023-05-14T18:51:25+00:00,11.322062969208,70,"updated stim.csv",Version70.csv,"Version 70","List 70",eyeglasses,,2096,6.28,934,0.049875509,2097,BOI,-,-,"Please name all of the ways you could use this object. Keep in mind that one object can have many uses. Separate your responses with a comma.",,y,10880,,,1418,10288,,,,"wear clean put away",1
61096a6ab244ccee2220a180,zgvrejf1mw,"Affordance Norms_Prolific",1,23,2023-05-14T18:51:34+00:00,9.063549041748,70,"updated stim.csv",Version70.csv,"Version 70","List 70",paddle,,2086,5.68,1842,0.603333314,2087,BOI,-,-,"Please name all of the ways you could use this object. Keep in mind that one object can have many uses. Separate your responses with a comma.",,y,8599,,,3039,7366,,,,"use on canoe",1
61096a6ab244ccee2220a180,zgvrejf1mw,"Affordance Norms_Prolific",1,24,2023-05-14T18:51:50+00:00,15.920314788818,70,"updated stim.csv",Version70.csv,"Version 70","List 70",sawdust,,2083,4.4,2254,0.49278594,2084,BOI,-,-,"Please name all of the ways you could use this object. Keep in mind that one object can have many uses. Separate your responses with a comma.",,y,15450,,,3497,14802,,,,"brush up put on floor use for animals",1
61096a6ab244ccee2220a180,zgvrejf1mw,"Affordance Norms_Prolific",1,25,2023-05-14T18:52:12+00:00,22.268688201904,70,"updated stim.csv",Version70.csv,"Version 70","List 70",Microscope,,2090,5.721024259,1655,0.84908262,2091,BOI,-,-,"Please name all of the ways you could use this object. Keep in mind that one object can have many uses. Separate your responses with a comma.",,y,21805,,,3042,20531,,,,"look at things analyse samples",1
61096a6ab244ccee2220a180,zgvrejf1mw,"Affordance Norms_Prolific",1,26,2023-05-14T18:52:23+00:00,10.729408979416,70,"updated stim.csv",Version70.csv,"Version 70","List 70",jockstrap,,2091,5.739130435,1387,0.194548827,2092,BOI,-,-,"Please name all of the ways you could use this object. Keep in mind that one object can have many uses. Separate your responses with a comma.",,y,10283,,,3446,9450,,,,"use with clothing",1
61096a6ab244ccee2220a180,zgvrejf1mw,"Affordance Norms_Prolific",1,27,2023-05-14T18:52:35+00:00,11.865333795547,70,"updated stim.csv",Version70.csv,"Version 70","List 70",bedpost,,2073,5.346153846,186,0.658960506,2074,BOI,-,-,"Please name all of the ways you could use this object. Keep in mind that one object can have many uses. Separate your responses with a comma.",,y,11415,,,3429,10793,,,,"keeps bed up clean it",1
61096a6ab244ccee2220a180,zgvrejf1mw,"Affordance Norms_Prolific",1,28,2023-05-14T18:52:49+00:00,14.075649023056,70,"updated stim.csv",Version70.csv,"Version 70","List 70",mitten,,2081,6.041666667,1671,0.614035394,2082,BOI,-,-,"Please name all of the ways you could use this object. Keep in mind that one object can have many uses. Separate your responses with a comma.",,y,13634,,,2139,13048,,,,"put on hands",1
61096a6ab244ccee2220a180,zgvrejf1mw,"Affordance Norms_Prolific",1,29,2023-05-14T18:52:55+00:00,5.6066401004791,70,"updated stim.csv",Version70.csv,"Version 70","List 70",democrat,,2088,4.416666667,771,0.02269308,2089,BOI,-,-,"Please name all of the ways you could use this object. Keep in mind that one object can have many uses. Separate your responses with a comma.",,y,5170,,,2918,3653,,,,rules,1
61096a6ab244ccee2220a180,zgvrejf1mw,"Affordance Norms_Prolific",1,30,2023-05-14T18:53:03+00:00,8.4033589363098,70,"updated stim.csv",Version70.csv,"Version 70","List 70",executioner,,2078,4.44,927,0.320419935,2079,BOI,-,-,"Please name all of the ways you could use this object. Keep in mind that one object can have many uses. Separate your responses with a comma.",,y,7981,,,1625,6711,,,,executes,1
61096a6ab244ccee2220a180,zgvrejf1mw,"Affordance Norms_Prolific",1,31,2023-05-14T18:53:22+00:00,19.34637594223,70,"updated stim.csv",Version70.csv,"Version 70","List 70",sawhorse,,2095,5.125,2255,0.661153782,2096,BOI,-,-,"Please name all of the ways you could use this object. Keep in mind that one object can have many uses. Separate your responses with a comma.",,y,18892,,,3234,18336,,,,"swims in sea",1
61096a6ab244ccee2220a180,zgvrejf1mw,"Affordance Norms_Prolific",1,32,2023-05-14T18:53:37+00:00,14.784428119659,70,"updated stim.csv",Version70.csv,"Version 70","List 70",greyhound,,2071,4.636363636,1174,0.388872083,2072,BOI,-,-,"Please name all of the ways you could use this object. Keep in mind that one object can have many uses. Separate your responses with a comma.",,y,14320,,,2294,13486,,,,"barks, eats, goes for walks",1
61096a6ab244ccee2220a180,zgvrejf1mw,"Affordance Norms_Prolific",1,33,2023-05-14T18:53:51+00:00,14.13262796402,70,"updated stim.csv",Version70.csv,"Version 70","List 70",goalkeeper,,2082,4.458333333,1120,0.82824965,2083,BOI,-,-,"Please name all of the ways you could use this object. Keep in mind that one object can have many uses. Separate your responses with a comma.",,y,13671,,,1824,12891,,,,"stops goals, kicks ball",1
61096a6ab244ccee2220a180,zgvrejf1mw,"Affordance Norms_Prolific",1,34,2023-05-14T18:53:57+00:00,5.5576541423798,70,"updated stim.csv",Version70.csv,"Version 70","List 70",cobblestone,,2092,5.086956522,583,0.77555436,2093,BOI,-,-,"Please name all of the ways you could use this object. Keep in mind that one object can have many uses. Separate your responses with a comma.",,y,5108,,,2476,4595,,,,"walk on it",1
61096a6ab244ccee2220a180,zgvrejf1mw,"Affordance Norms_Prolific",1,35,2023-05-14T18:54:06+00:00,8.7925248146057,70,"updated stim.csv",Version70.csv,"Version 70","List 70",skullcap,,2075,4.962962963,2403,0.972296881,2076,BOI,-,-,"Please name all of the ways you could use this object. Keep in mind that one object can have many uses. Separate your responses with a comma.",,y,8341,,,2673,7739,,,,"wear it, wash it",1
61096a6ab244ccee2220a180,zgvrejf1mw,"Affordance Norms_Prolific",1,36,2023-05-14T18:54:21+00:00,15.59753704071,70,"updated stim.csv",Version70.csv,"Version 70","List 70",bush,,2093,4.8,369,0.051668368,2094,BOI,-,-,"Please name all of the ways you could use this object. Keep in mind that one object can have many uses. Separate your responses with a comma.",,y,15163,,,3055,4798,,,,"trim, ",1
61096a6ab244ccee2220a180,zgvrejf1mw,"Affordance Norms_Prolific",1,37,2023-05-14T18:54:42+00:00,20.484317064285,70,"updated stim.csv",Version70.csv,"Version 70","List 70",wall,,2076,4.68,2886,0.344868245,2077,BOI,-,-,"Please name all of the ways you could use this object. Keep in mind that one object can have many uses. Separate your responses with a comma.",,y,20034,,,2617,19376,,,,"put up photos, nail in nails, put up wallpaper",1
61096a6ab244ccee2220a180,zgvrejf1mw,"Affordance Norms_Prolific",1,38,2023-05-14T18:54:56+00:00,14.008072853088,70,"updated stim.csv",Version70.csv,"Version 70","List 70",camera,,2089,6.086956522,406,0.371696308,2090,BOI,-,-,"Please name all of the ways you could use this object. Keep in mind that one object can have many uses. Separate your responses with a comma.",,y,13544,,,1278,10152,,,,"take photos, ",1
61096a6ab244ccee2220a180,zgvrejf1mw,"Affordance Norms_Prolific",1,39,2023-05-14T18:55:08+00:00,11.90561413765,70,"updated stim.csv",Version70.csv,"Version 70","List 70",teakettle,,2094,6.125,2646,0.428684651,2095,BOI,-,-,"Please name all of the ways you could use this object. Keep in mind that one object can have many uses. Separate your responses with a comma.",,y,11453,,,6911,10907,,,,"makes tea, boils",1
61096a6ab244ccee2220a180,zgvrejf1mw,"Affordance Norms_Prolific",1,40,2023-05-14T18:55:32+00:00,24.476824998856,70,"updated stim.csv",Version70.csv,"Version 70","List 70",match,,2084,4.565217391,1620,0.722618708,2085,BOI,-,-,"Please name all of the ways you could use this object. Keep in mind that one object can have many uses. Separate your responses with a comma.",,y,24011,,,3703,23390,,,,"match patterns, strike a match",1
61096a6ab244ccee2220a180,zgvrejf1mw,"Affordance Norms_Prolific",1,41,2023-05-14T18:55:37+00:00,4.435338973999,70,"updated stim.csv",Version70.csv,"Version 70","List 70",,,,,,,0,Instruct,,,"You will now be asked a few questions about your experience today.",,"Instruct 4",4010,,,-1,-1,,,,,1
