Username,ID,ExperimentName,Session,Trial,Date,TimeDif,"Condition Number","Stimuli File","Order File","Condition Description","Condition Notes",Stimuli*Cue,Stimuli*Answer,Stimuli*Shuffle,"Stimuli*Stimuli Notes",Stimuli*Value,Stimuli*Rand,Procedure*Item,"Procedure*Trial Type","Procedure*Max Time","Procedure*Min Time",Procedure*Text,"Procedure*Procedure Notes",Procedure*Shuffle,Response*RT,Response*Response,Response*Accuracy,Response*RTfirst,Response*RTlast,Response*strictAcc,Response*lenientAcc,Response*focus,Response*JOL,Response*Focus
63c58429db2b7daf0f67d60d,0bohw0mjyu,"Affordance Norms_Prolific",1,1,2023-05-14T18:19:09+00:00,12.791304111481,59,"updated stim.csv",Version59.csv,"Version 59","List 59",,,,,,,0,Instruct,-,10,"In this section, you will be presented with a series of objects. Please name as many possible uses for this object as you can think of by typing them in the box below each object.",,Instruct1,12437,,,-1,-1,,,,,1
63c58429db2b7daf0f67d60d,0bohw0mjyu,"Affordance Norms_Prolific",1,2,2023-05-14T18:19:24+00:00,14.842047929764,59,"updated stim.csv",Version59.csv,"Version 59","List 59",,,,,,,0,Instruct,-,10,"Please keep in mind that a single object will have more than one use. For example, a ball can be thrown or can be bounced or even stepped on. When listing multiple uses for one object, please separate each use with a comma (i.e., thrown, bounced, stepped on)",,Instruct2,14372,,,-1,-1,,,,,1
63c58429db2b7daf0f67d60d,0bohw0mjyu,"Affordance Norms_Prolific",1,3,2023-05-14T18:19:29+00:00,4.3590331077576,59,"updated stim.csv",Version59.csv,"Version 59","List 59",,,,,,,0,Instruct,-,-,"Before starting the experiment, you will complete a short practice sesstion. Press ENTER when you are ready to begin.",,Instruct3,3874,,,-1,-1,,,,,1
63c58429db2b7daf0f67d60d,0bohw0mjyu,"Affordance Norms_Prolific",1,4,2023-05-14T18:19:56+00:00,27.078608036041,59,"updated stim.csv",Version59.csv,"Version 59","List 59",saucer,,3005,5.777777778,2249,0.304808074,3006,BOI,-,-,"Please name all of the ways you could use this object. Keep in mind that one object can have many uses. Separate your responses with a comma.",,n,26588,,,5315,14629,,,,"Cup, Food,",1
63c58429db2b7daf0f67d60d,0bohw0mjyu,"Affordance Norms_Prolific",1,5,2023-05-14T18:20:22+00:00,26.321486949921,59,"updated stim.csv",Version59.csv,"Version 59","List 59",paperwork,,3001,5.625,1866,0.124284162,3002,BOI,-,-,"Please name all of the ways you could use this object. Keep in mind that one object can have many uses. Separate your responses with a comma.",,n,25827,,,3077,24512,,,,"Read,File,Write,Copy,Fax",1
63c58429db2b7daf0f67d60d,0bohw0mjyu,"Affordance Norms_Prolific",1,6,2023-05-14T18:20:36+00:00,13.886270046234,59,"updated stim.csv",Version59.csv,"Version 59","List 59",grain,,3004,5.217391304,1143,0.226863762,3005,BOI,-,-,"Please name all of the ways you could use this object. Keep in mind that one object can have many uses. Separate your responses with a comma.",,n,13376,,,2606,10182,,,,"Food,Farm,Eat,Oats",1
63c58429db2b7daf0f67d60d,0bohw0mjyu,"Affordance Norms_Prolific",1,7,2023-05-14T18:20:57+00:00,21.14922785759,59,"updated stim.csv",Version59.csv,"Version 59","List 59",shortening,,3002,4.92,2358,0.604328482,3003,BOI,-,-,"Please name all of the ways you could use this object. Keep in mind that one object can have many uses. Separate your responses with a comma.",,n,20619,,,9908,17394,,,,"Crop,Diminish",1
63c58429db2b7daf0f67d60d,0bohw0mjyu,"Affordance Norms_Prolific",1,8,2023-05-14T18:21:32+00:00,35.39189696312,59,"updated stim.csv",Version59.csv,"Version 59","List 59",spaghetti,,3003,6,2461,0.090379998,3004,BOI,-,-,"Please name all of the ways you could use this object. Keep in mind that one object can have many uses. Separate your responses with a comma.",,n,34834,,,1870,33274,,,,"Food,Recipe,Eat,Cook",1
63c58429db2b7daf0f67d60d,0bohw0mjyu,"Affordance Norms_Prolific",1,9,2023-05-14T18:21:35+00:00,2.8312911987305,59,"updated stim.csv",Version59.csv,"Version 59","List 59",,,,,,,0,Instruct,-,-,"You have completed this section. Press ENTER to continue",,"Instruct 5",2313,,,-1,-1,,,,,1
63c58429db2b7daf0f67d60d,0bohw0mjyu,"Affordance Norms_Prolific",1,10,2023-05-14T18:21:37+00:00,2.0235958099365,59,"updated stim.csv",Version59.csv,"Version 59","List 59",,,,,,,0,Instruct,-,-,"You will now start the full experiment. Press ENTER when you are ready to begin.",,,1538,,,-1,-1,,,,,1
63c58429db2b7daf0f67d60d,0bohw0mjyu,"Affordance Norms_Prolific",1,11,2023-05-14T18:22:22+00:00,44.687028169632,59,"updated stim.csv",Version59.csv,"Version 59","List 59",soccer,,1766,4.64,2438,0.415669367,1767,BOI,-,-,"Please name all of the ways you could use this object. Keep in mind that one object can have many uses. Separate your responses with a comma.",,y,44201,,,3430,41468,,,,"Sport,Ball,Kick,Exercise,supporter",1
63c58429db2b7daf0f67d60d,0bohw0mjyu,"Affordance Norms_Prolific",1,12,2023-05-14T18:22:43+00:00,20.516672849655,59,"updated stim.csv",Version59.csv,"Version 59","List 59",statuette,,1750,4.739130435,2514,0.930875652,1751,BOI,-,-,"Please name all of the ways you could use this object. Keep in mind that one object can have many uses. Separate your responses with a comma.",,y,20012,,,3502,14950,,,,"Ornament,Decoration",1
63c58429db2b7daf0f67d60d,0bohw0mjyu,"Affordance Norms_Prolific",1,13,2023-05-14T18:23:28+00:00,45.614176034927,59,"updated stim.csv",Version59.csv,"Version 59","List 59",softball,,1761,5.75,2444,0.483229766,1762,BOI,-,-,"Please name all of the ways you could use this object. Keep in mind that one object can have many uses. Separate your responses with a comma.",,y,45112,,,2408,43401,,,,"Game,Sport,Exercise,Hobby,Supporter,Teamwork",1
63c58429db2b7daf0f67d60d,0bohw0mjyu,"Affordance Norms_Prolific",1,14,2023-05-14T18:23:54+00:00,25.589998960495,59,"updated stim.csv",Version59.csv,"Version 59","List 59",shoehorn,,1770,5.75,2350,0.543116011,1771,BOI,-,-,"Please name all of the ways you could use this object. Keep in mind that one object can have many uses. Separate your responses with a comma.",,y,25100,,,4279,21548,,,,"Shoes,Aid,Assist",1
63c58429db2b7daf0f67d60d,0bohw0mjyu,"Affordance Norms_Prolific",1,15,2023-05-14T18:24:26+00:00,32.340147018433,59,"updated stim.csv",Version59.csv,"Version 59","List 59",belongings,,1753,5.173913043,201,0.384209393,1754,BOI,-,-,"Please name all of the ways you could use this object. Keep in mind that one object can have many uses. Separate your responses with a comma.",,y,31725,,,8869,27552,,,,"Keepsake,Items,Personal",1
63c58429db2b7daf0f67d60d,0bohw0mjyu,"Affordance Norms_Prolific",1,16,2023-05-14T18:25:56+00:00,89.446443080902,59,"updated stim.csv",Version59.csv,"Version 59","List 59",electrocardiogram,,1752,4.347826087,898,0.132707639,1753,BOI,-,-,"Please name all of the ways you could use this object. Keep in mind that one object can have many uses. Separate your responses with a comma.",,y,88818,,,19710,73337,,,,"Heartbeat,Rhythm,Signals",1
63c58429db2b7daf0f67d60d,0bohw0mjyu,"Affordance Norms_Prolific",1,17,2023-05-14T18:26:23+00:00,27.460985898972,59,"updated stim.csv",Version59.csv,"Version 59","List 59",beautician,,1760,4.608695652,183,0.543328676,1761,BOI,-,-,"Please name all of the ways you could use this object. Keep in mind that one object can have many uses. Separate your responses with a comma.",,y,26948,,,9064,16106,,,,"Makeup,Beauty",1
63c58429db2b7daf0f67d60d,0bohw0mjyu,"Affordance Norms_Prolific",1,18,2023-05-14T18:26:55+00:00,31.523810148239,59,"updated stim.csv",Version59.csv,"Version 59","List 59",stirrer,,1745,4.615384615,2537,0.139093933,1746,BOI,-,-,"Please name all of the ways you could use this object. Keep in mind that one object can have many uses. Separate your responses with a comma.",,y,31055,,,3636,29488,,,,"Spoon,Whisking,Mixer,Drink,Sip,Eat",1
63c58429db2b7daf0f67d60d,0bohw0mjyu,"Affordance Norms_Prolific",1,19,2023-05-14T18:27:31+00:00,36.343585014343,59,"updated stim.csv",Version59.csv,"Version 59","List 59",knitting,,1751,4.304347826,1436,0.568372099,1752,BOI,-,-,"Please name all of the ways you could use this object. Keep in mind that one object can have many uses. Separate your responses with a comma.",,y,35829,,,4641,29382,,,,"Wool,Needles,Clothes,Pastime",1
63c58429db2b7daf0f67d60d,0bohw0mjyu,"Affordance Norms_Prolific",1,20,2023-05-14T18:28:44+00:00,73.319948911667,59,"updated stim.csv",Version59.csv,"Version 59","List 59",tile,,1762,4.76,2697,0.15917771,1763,BOI,-,-,"Please name all of the ways you could use this object. Keep in mind that one object can have many uses. Separate your responses with a comma.",,y,72685,,,28206,56164,,,,"Sticker,Coaster,Placemat",1
63c58429db2b7daf0f67d60d,0bohw0mjyu,"Affordance Norms_Prolific",1,21,2023-05-14T18:29:16+00:00,31.724601984024,59,"updated stim.csv",Version59.csv,"Version 59","List 59",musician,,1744,4.47826087,1724,0.807811062,1745,BOI,-,-,"Please name all of the ways you could use this object. Keep in mind that one object can have many uses. Separate your responses with a comma.",,y,31217,,,5335,25592,,,,"Music,Noise,Melody,Song",1
63c58429db2b7daf0f67d60d,0bohw0mjyu,"Affordance Norms_Prolific",1,22,2023-05-14T18:30:34+00:00,77.858266115189,59,"updated stim.csv",Version59.csv,"Version 59","List 59",slush,,1763,4.541666667,2419,0.001805092,1764,BOI,-,-,"Please name all of the ways you could use this object. Keep in mind that one object can have many uses. Separate your responses with a comma.",,y,77231,,,68924,74915,,,,"Ice,Drink,Snow",1
63c58429db2b7daf0f67d60d,0bohw0mjyu,"Affordance Norms_Prolific",1,23,2023-05-14T18:31:32+00:00,57.998770952225,59,"updated stim.csv",Version59.csv,"Version 59","List 59",diploma,,1746,5.96,798,0.946243713,1747,BOI,-,-,"Please name all of the ways you could use this object. Keep in mind that one object can have many uses. Separate your responses with a comma.",,y,57478,,,20254,56057,,,,"College,University,Read,Copy,Showoff",1
63c58429db2b7daf0f67d60d,0bohw0mjyu,"Affordance Norms_Prolific",1,24,2023-05-14T18:32:20+00:00,47.815948009491,59,"updated stim.csv",Version59.csv,"Version 59","List 59",baggage,,1749,5.965517241,122,0.141549146,1750,BOI,-,-,"Please name all of the ways you could use this object. Keep in mind that one object can have many uses. Separate your responses with a comma.",,y,47324,,,6359,46009,,,,"Travel,Clothes,Fill it, Carry things.",1
63c58429db2b7daf0f67d60d,0bohw0mjyu,"Affordance Norms_Prolific",1,25,2023-05-14T18:32:38+00:00,18.663099050522,59,"updated stim.csv",Version59.csv,"Version 59","List 59",surgeon,,1748,5,2595,0.062436921,1749,BOI,-,-,"Please name all of the ways you could use this object. Keep in mind that one object can have many uses. Separate your responses with a comma.",,y,18127,,,4085,15736,,,,"Operations,Cosmetic",1
63c58429db2b7daf0f67d60d,0bohw0mjyu,"Affordance Norms_Prolific",1,26,2023-05-14T18:33:08+00:00,29.67543888092,59,"updated stim.csv",Version59.csv,"Version 59","List 59",tenant,,1756,4.8,2662,0.79293781,1757,BOI,-,-,"Please name all of the ways you could use this object. Keep in mind that one object can have many uses. Separate your responses with a comma.",,y,29185,,,5407,27445,,,,"Pay rent, Rent a house,Clean",1
63c58429db2b7daf0f67d60d,0bohw0mjyu,"Affordance Norms_Prolific",1,27,2023-05-14T18:33:49+00:00,41.434011936188,59,"updated stim.csv",Version59.csv,"Version 59","List 59",stagecoach,,1769,4.538461538,2498,0.60122922,1770,BOI,-,-,"Please name all of the ways you could use this object. Keep in mind that one object can have many uses. Separate your responses with a comma.",,y,40954,,,10336,39879,,,,"Carry people,Rental,Decoration,Venues",1
63c58429db2b7daf0f67d60d,0bohw0mjyu,"Affordance Norms_Prolific",1,28,2023-05-14T18:34:08+00:00,19.128600120544,59,"updated stim.csv",Version59.csv,"Version 59","List 59",attire,,1765,5.086956522,95,0.100168074,1766,BOI,-,-,"Please name all of the ways you could use this object. Keep in mind that one object can have many uses. Separate your responses with a comma.",,y,18602,,,3029,11594,,,,"Clothes,Dressings",1
63c58429db2b7daf0f67d60d,0bohw0mjyu,"Affordance Norms_Prolific",1,29,2023-05-14T18:34:19+00:00,10.741952896118,59,"updated stim.csv",Version59.csv,"Version 59","List 59",holder,,1767,4.28,1296,0.95017996,1768,BOI,-,-,"Please name all of the ways you could use this object. Keep in mind that one object can have many uses. Separate your responses with a comma.",,y,10254,,,4522,8085,,,,"To hold things",1
63c58429db2b7daf0f67d60d,0bohw0mjyu,"Affordance Norms_Prolific",1,30,2023-05-14T18:35:00+00:00,40.937314987183,59,"updated stim.csv",Version59.csv,"Version 59","List 59",midwife,,1757,5,1659,0.497275333,1758,BOI,-,-,"Please name all of the ways you could use this object. Keep in mind that one object can have many uses. Separate your responses with a comma.",,y,40415,,,3669,37049,,,,"Deliver baby's,Comfort,Support,Guidance",1
63c58429db2b7daf0f67d60d,0bohw0mjyu,"Affordance Norms_Prolific",1,31,2023-05-14T18:36:28+00:00,87.513307094574,59,"updated stim.csv",Version59.csv,"Version 59","List 59",honeysuckle,,1759,5.375,1305,0.241027144,1760,BOI,-,-,"Please name all of the ways you could use this object. Keep in mind that one object can have many uses. Separate your responses with a comma.",,y,86829,,,25057,85751,,,,"To plant, To grow, Decoration,Cure headaches,Urinary problems.",1
63c58429db2b7daf0f67d60d,0bohw0mjyu,"Affordance Norms_Prolific",1,32,2023-05-14T18:36:42+00:00,14.066297054291,59,"updated stim.csv",Version59.csv,"Version 59","List 59",axes,,1764,4.833333333,107,0.618408666,1765,BOI,-,-,"Please name all of the ways you could use this object. Keep in mind that one object can have many uses. Separate your responses with a comma.",,y,13542,,,1921,8841,,,,"Chop,To Throw",1
63c58429db2b7daf0f67d60d,0bohw0mjyu,"Affordance Norms_Prolific",1,33,2023-05-14T18:37:12+00:00,30.13574886322,59,"updated stim.csv",Version59.csv,"Version 59","List 59",whip,,1754,5,2925,0.659916917,1755,BOI,-,-,"Please name all of the ways you could use this object. Keep in mind that one object can have many uses. Separate your responses with a comma.",,y,29605,,,4650,27249,,,,"To Crack, To tame animals",1
63c58429db2b7daf0f67d60d,0bohw0mjyu,"Affordance Norms_Prolific",1,34,2023-05-14T18:37:45+00:00,33.279400110245,59,"updated stim.csv",Version59.csv,"Version 59","List 59",triceps,,1758,5.52,2774,0.029767692,1759,BOI,-,-,"Please name all of the ways you could use this object. Keep in mind that one object can have many uses. Separate your responses with a comma.",,y,32776,,,5403,30821,,,,"Muscles, To Body build, To help lift.",1
63c58429db2b7daf0f67d60d,0bohw0mjyu,"Affordance Norms_Prolific",1,35,2023-05-14T18:38:21+00:00,36.240233898163,59,"updated stim.csv",Version59.csv,"Version 59","List 59",eye,,1747,5.72,929,0.443037439,1748,BOI,-,-,"Please name all of the ways you could use this object. Keep in mind that one object can have many uses. Separate your responses with a comma.",,y,35709,,,1642,34716,,,,"To see, To wink, To Blink, To Read, To Watch,To Focus",1
63c58429db2b7daf0f67d60d,0bohw0mjyu,"Affordance Norms_Prolific",1,36,2023-05-14T18:39:18+00:00,57.093086957932,59,"updated stim.csv",Version59.csv,"Version 59","List 59",runner,,1768,4.608695652,2207,0.70961419,1769,BOI,-,-,"Please name all of the ways you could use this object. Keep in mind that one object can have many uses. Separate your responses with a comma.",,y,56592,,,43329,55102,,,,"A table Runner, A carpet Runner",1
63c58429db2b7daf0f67d60d,0bohw0mjyu,"Affordance Norms_Prolific",1,37,2023-05-14T18:39:51+00:00,32.087163209915,59,"updated stim.csv",Version59.csv,"Version 59","List 59",trolley,,1743,5.416666667,2780,0.015846997,1744,BOI,-,-,"Please name all of the ways you could use this object. Keep in mind that one object can have many uses. Separate your responses with a comma.",,y,31560,,,3772,23482,,,,"To Carry, To Transport,To Push",1
63c58429db2b7daf0f67d60d,0bohw0mjyu,"Affordance Norms_Prolific",1,38,2023-05-14T18:40:29+00:00,38.207289934158,59,"updated stim.csv",Version59.csv,"Version 59","List 59",outhouse,,1755,4.64,1829,0.122401729,1756,BOI,-,-,"Please name all of the ways you could use this object. Keep in mind that one object can have many uses. Separate your responses with a comma.",,y,37713,,,2870,36618,,,,"For a Toilet, For storage,To keep Pets in.",1
63c58429db2b7daf0f67d60d,0bohw0mjyu,"Affordance Norms_Prolific",1,39,2023-05-14T18:41:26+00:00,57.394289016724,59,"updated stim.csv",Version59.csv,"Version 59","List 59",beret,,1742,5.695652174,204,0.534744098,1743,BOI,-,-,"Please name all of the ways you could use this object. Keep in mind that one object can have many uses. Separate your responses with a comma.",,y,56870,,,17320,55085,,,,"To Wear, For decoration, To keep your head warm",1
63c58429db2b7daf0f67d60d,0bohw0mjyu,"Affordance Norms_Prolific",1,40,2023-05-14T18:41:49+00:00,23.297116994858,59,"updated stim.csv",Version59.csv,"Version 59","List 59",bullet,,1741,5.772727273,353,0.384139642,1742,BOI,-,-,"Please name all of the ways you could use this object. Keep in mind that one object can have many uses. Separate your responses with a comma.",,y,22785,,,2268,20822,,,,"For a gun, To kill, As ammo",1
63c58429db2b7daf0f67d60d,0bohw0mjyu,"Affordance Norms_Prolific",1,41,2023-05-14T18:41:53+00:00,3.4218978881836,59,"updated stim.csv",Version59.csv,"Version 59","List 59",,,,,,,0,Instruct,,,"You will now be asked a few questions about your experience today.",,"Instruct 4",2934,,,-1,-1,,,,,1
