Username,ID,ExperimentName,Session,Trial,Date,TimeDif,"Condition Number","Stimuli File","Order File","Condition Description","Condition Notes",Stimuli*Cue,Stimuli*Answer,Stimuli*Shuffle,"Stimuli*Stimuli Notes",Stimuli*Value,Stimuli*Rand,Procedure*Item,"Procedure*Trial Type","Procedure*Max Time","Procedure*Min Time",Procedure*Text,"Procedure*Procedure Notes",Procedure*Shuffle,Response*RT,Response*Response,Response*Accuracy,Response*RTfirst,Response*RTlast,Response*strictAcc,Response*lenientAcc,Response*focus,Response*JOL,Response*Focus
63d196c147d1f420690e5b87,jym89cqugf,"Affordance Norms_Prolific",1,1,2023-05-13T22:19:12+00:00,11.097424030304,89,"updated stim.csv",Version89.csv,"Version 89","List 89",,,,,,,0,Instruct,-,10,"In this section, you will be presented with a series of objects. Please name as many possible uses for this object as you can think of by typing them in the box below each object.",,Instruct1,10780,,,-1,-1,,,,,1
63d196c147d1f420690e5b87,jym89cqugf,"Affordance Norms_Prolific",1,2,2023-05-13T22:19:24+00:00,12.434940099716,89,"updated stim.csv",Version89.csv,"Version 89","List 89",,,,,,,0,Instruct,-,10,"Please keep in mind that a single object will have more than one use. For example, a ball can be thrown or can be bounced or even stepped on. When listing multiple uses for one object, please separate each use with a comma (i.e., thrown, bounced, stepped on)",,Instruct2,11936,,,-1,-1,,,,,1
63d196c147d1f420690e5b87,jym89cqugf,"Affordance Norms_Prolific",1,3,2023-05-13T22:19:29+00:00,4.4276859760284,89,"updated stim.csv",Version89.csv,"Version 89","List 89",,,,,,,0,Instruct,-,-,"Before starting the experiment, you will complete a short practice sesstion. Press ENTER when you are ready to begin.",,Instruct3,3911,,,-1,-1,,,,,1
63d196c147d1f420690e5b87,jym89cqugf,"Affordance Norms_Prolific",1,4,2023-05-13T22:19:57+00:00,28.105512857437,89,"updated stim.csv",Version89.csv,"Version 89","List 89",paperwork,,3001,5.625,1866,0.124284162,3002,BOI,-,-,"Please name all of the ways you could use this object. Keep in mind that one object can have many uses. Separate your responses with a comma.",,n,27627,,,3242,25480,,,,"File, shred, sort, throw",1
63d196c147d1f420690e5b87,jym89cqugf,"Affordance Norms_Prolific",1,5,2023-05-13T22:20:09+00:00,12.438008069992,89,"updated stim.csv",Version89.csv,"Version 89","List 89",grain,,3004,5.217391304,1143,0.226863762,3005,BOI,-,-,"Please name all of the ways you could use this object. Keep in mind that one object can have many uses. Separate your responses with a comma.",,n,11960,,,1667,11182,,,,"Eat, use in a food fight.",1
63d196c147d1f420690e5b87,jym89cqugf,"Affordance Norms_Prolific",1,6,2023-05-13T22:20:21+00:00,11.483458995819,89,"updated stim.csv",Version89.csv,"Version 89","List 89",spaghetti,,3003,6,2461,0.090379998,3004,BOI,-,-,"Please name all of the ways you could use this object. Keep in mind that one object can have many uses. Separate your responses with a comma.",,n,10992,,,2111,9021,,,,"East, throw, step on,",1
63d196c147d1f420690e5b87,jym89cqugf,"Affordance Norms_Prolific",1,7,2023-05-13T22:20:29+00:00,8.1969621181488,89,"updated stim.csv",Version89.csv,"Version 89","List 89",saucer,,3005,5.777777778,2249,0.304808074,3006,BOI,-,-,"Please name all of the ways you could use this object. Keep in mind that one object can have many uses. Separate your responses with a comma.",,n,7698,,,2901,7018,,,,"cup holder, frisbee",1
63d196c147d1f420690e5b87,jym89cqugf,"Affordance Norms_Prolific",1,8,2023-05-13T22:20:42+00:00,12.66187286377,89,"updated stim.csv",Version89.csv,"Version 89","List 89",shortening,,3002,4.92,2358,0.604328482,3003,BOI,-,-,"Please name all of the ways you could use this object. Keep in mind that one object can have many uses. Separate your responses with a comma.",,n,12193,,,2537,11792,,,,"eat, throw, step on",1
63d196c147d1f420690e5b87,jym89cqugf,"Affordance Norms_Prolific",1,9,2023-05-13T22:20:44+00:00,2.0548479557037,89,"updated stim.csv",Version89.csv,"Version 89","List 89",,,,,,,0,Instruct,-,-,"You have completed this section. Press ENTER to continue",,"Instruct 5",1587,,,-1,-1,,,,,1
63d196c147d1f420690e5b87,jym89cqugf,"Affordance Norms_Prolific",1,10,2023-05-13T22:20:45+00:00,1.7896451950073,89,"updated stim.csv",Version89.csv,"Version 89","List 89",,,,,,,0,Instruct,-,-,"You will now start the full experiment. Press ENTER when you are ready to begin.",,,1289,,,-1,-1,,,,,1
63d196c147d1f420690e5b87,jym89cqugf,"Affordance Norms_Prolific",1,11,2023-05-13T22:21:49+00:00,63.154488801956,89,"updated stim.csv",Version89.csv,"Version 89","List 89",waitress,,2649,4.826086957,2884,0.178678826,2650,BOI,-,-,"Please name all of the ways you could use this object. Keep in mind that one object can have many uses. Separate your responses with a comma.",,y,62540,,,6280,56757,,,,"flirt, play with, order",1
63d196c147d1f420690e5b87,jym89cqugf,"Affordance Norms_Prolific",1,12,2023-05-13T22:22:14+00:00,25.781139135361,89,"updated stim.csv",Version89.csv,"Version 89","List 89",rail,,2658,5.517241379,2127,0.025104214,2659,BOI,-,-,"Please name all of the ways you could use this object. Keep in mind that one object can have many uses. Separate your responses with a comma.",,y,25292,,,5974,24512,,,,"ride, weapon, steal, sell",1
63d196c147d1f420690e5b87,jym89cqugf,"Affordance Norms_Prolific",1,13,2023-05-13T22:22:44+00:00,29.700669050217,89,"updated stim.csv",Version89.csv,"Version 89","List 89",mum,,2646,4.416666667,1719,0.704204495,2647,BOI,-,-,"Please name all of the ways you could use this object. Keep in mind that one object can have many uses. Separate your responses with a comma.",,y,29216,,,6677,28951,,,,"Bank, friend, advice, listener.",1
63d196c147d1f420690e5b87,jym89cqugf,"Affordance Norms_Prolific",1,14,2023-05-13T22:23:02+00:00,17.469549894333,89,"updated stim.csv",Version89.csv,"Version 89","List 89",cupboard,,2661,5.782608696,727,0.324024312,2662,BOI,-,-,"Please name all of the ways you could use this object. Keep in mind that one object can have many uses. Separate your responses with a comma.",,y,16971,,,2358,16558,,,,"Storage, weapon.",1
63d196c147d1f420690e5b87,jym89cqugf,"Affordance Norms_Prolific",1,15,2023-05-13T22:23:23+00:00,21.689161062241,89,"updated stim.csv",Version89.csv,"Version 89","List 89",picnicker,,2668,4.458333333,1951,0.609841409,2669,BOI,-,-,"Please name all of the ways you could use this object. Keep in mind that one object can have many uses. Separate your responses with a comma.",,y,21208,,,13973,20752,,,,"Chat, friend, companion.",1
63d196c147d1f420690e5b87,jym89cqugf,"Affordance Norms_Prolific",1,16,2023-05-13T22:23:34+00:00,11.018069982529,89,"updated stim.csv",Version89.csv,"Version 89","List 89",plaintiff,,2654,4.375,1985,0.803622684,2655,BOI,-,-,"Please name all of the ways you could use this object. Keep in mind that one object can have many uses. Separate your responses with a comma.",,y,10535,,,4504,10286,,,,"Lawyer, money.",1
63d196c147d1f420690e5b87,jym89cqugf,"Affordance Norms_Prolific",1,17,2023-05-13T22:24:06+00:00,31.243273019791,89,"updated stim.csv",Version89.csv,"Version 89","List 89",guestroom,,2642,4.538461538,1190,0.361886166,2643,BOI,-,-,"Please name all of the ways you could use this object. Keep in mind that one object can have many uses. Separate your responses with a comma.",,y,30759,,,2436,29558,,,,"Sleeping, sex, reading, boardgames, videogames, movies, TV shows.",1
63d196c147d1f420690e5b87,jym89cqugf,"Affordance Norms_Prolific",1,18,2023-05-13T22:24:25+00:00,19.649838924408,89,"updated stim.csv",Version89.csv,"Version 89","List 89",radio,,2647,5.291666667,2122,0.897583079,2648,BOI,-,-,"Please name all of the ways you could use this object. Keep in mind that one object can have many uses. Separate your responses with a comma.",,y,19182,,,2440,18079,,,,"Listen, weapon.",1
63d196c147d1f420690e5b87,jym89cqugf,"Affordance Norms_Prolific",1,19,2023-05-13T22:24:52+00:00,27.236264944077,89,"updated stim.csv",Version89.csv,"Version 89","List 89",lace,,2641,4.869565217,1445,0.627616705,2642,BOI,-,-,"Please name all of the ways you could use this object. Keep in mind that one object can have many uses. Separate your responses with a comma.",,y,26759,,,11386,26496,,,,"Present, make items.",1
63d196c147d1f420690e5b87,jym89cqugf,"Affordance Norms_Prolific",1,20,2023-05-13T22:25:39+00:00,46.864129066467,89,"updated stim.csv",Version89.csv,"Version 89","List 89",needles,,2659,5.416666667,1747,0.410145567,2660,BOI,-,-,"Please name all of the ways you could use this object. Keep in mind that one object can have many uses. Separate your responses with a comma.",,y,45861,,,3982,44325,,,,"Sewing, removing bee stings, stitching up wounds, knitting, weapon.",1
63d196c147d1f420690e5b87,jym89cqugf,"Affordance Norms_Prolific",1,21,2023-05-13T22:25:55+00:00,15.622969150543,89,"updated stim.csv",Version89.csv,"Version 89","List 89",garb,,2653,4.541666667,1074,0.214589886,2654,BOI,-,-,"Please name all of the ways you could use this object. Keep in mind that one object can have many uses. Separate your responses with a comma.",,y,15104,,,2095,14421,,,,"Clothes, blanket, rug.",1
63d196c147d1f420690e5b87,jym89cqugf,"Affordance Norms_Prolific",1,22,2023-05-13T22:26:21+00:00,25.697897911072,89,"updated stim.csv",Version89.csv,"Version 89","List 89",brooch,,2664,5.130434783,331,0.778970626,2665,BOI,-,-,"Please name all of the ways you could use this object. Keep in mind that one object can have many uses. Separate your responses with a comma.",,y,25205,,,2000,17571,,,,"Jewelry, accessorize, present.",1
63d196c147d1f420690e5b87,jym89cqugf,"Affordance Norms_Prolific",1,23,2023-05-13T22:27:14+00:00,53.406084060669,89,"updated stim.csv",Version89.csv,"Version 89","List 89",bathtub,,2650,6.565217391,170,0.48897818,2651,BOI,-,-,"Please name all of the ways you could use this object. Keep in mind that one object can have many uses. Separate your responses with a comma.",,y,52886,,,2523,47826,,,,"bath, murder weapon, suicide spot, romantic spot, washing, showering.",1
63d196c147d1f420690e5b87,jym89cqugf,"Affordance Norms_Prolific",1,24,2023-05-13T22:27:47+00:00,33.431558847427,89,"updated stim.csv",Version89.csv,"Version 89","List 89",congresswoman,,2648,4.32,627,0.309120151,2649,BOI,-,-,"Please name all of the ways you could use this object. Keep in mind that one object can have many uses. Separate your responses with a comma.",,y,32933,,,4435,32517,,,,"Sex, lobbying, favors.",1
63d196c147d1f420690e5b87,jym89cqugf,"Affordance Norms_Prolific",1,25,2023-05-13T22:28:03+00:00,15.354197025299,89,"updated stim.csv",Version89.csv,"Version 89","List 89",crackers,,2667,5.913043478,677,0.103099472,2668,BOI,-,-,"Please name all of the ways you could use this object. Keep in mind that one object can have many uses. Separate your responses with a comma.",,y,14861,,,1714,14596,,,,"Eating, weapons in a food fight, step on.",1
63d196c147d1f420690e5b87,jym89cqugf,"Affordance Norms_Prolific",1,26,2023-05-13T22:28:25+00:00,22.596464157104,89,"updated stim.csv",Version89.csv,"Version 89","List 89",catwalk,,2665,4.652173913,464,0.140628779,2666,BOI,-,-,"Please name all of the ways you could use this object. Keep in mind that one object can have many uses. Separate your responses with a comma.",,y,22108,,,3530,19100,,,,"Strut, walk, turn, romantic spot.",1
63d196c147d1f420690e5b87,jym89cqugf,"Affordance Norms_Prolific",1,27,2023-05-13T22:29:13+00:00,47.464555978775,89,"updated stim.csv",Version89.csv,"Version 89","List 89",rocker,,2656,5.04,2184,0.968839811,2657,BOI,-,-,"Please name all of the ways you could use this object. Keep in mind that one object can have many uses. Separate your responses with a comma.",,y,46970,,,6831,33516,,,,"Spot to listen to Oasis, sitting",1
63d196c147d1f420690e5b87,jym89cqugf,"Affordance Norms_Prolific",1,28,2023-05-13T22:29:48+00:00,35.273914813995,89,"updated stim.csv",Version89.csv,"Version 89","List 89",trash,,2663,5.136363636,2764,0.824491911,2664,BOI,-,-,"Please name all of the ways you could use this object. Keep in mind that one object can have many uses. Separate your responses with a comma.",,y,34771,,,10388,24592,,,,"Fort, recycling.",1
63d196c147d1f420690e5b87,jym89cqugf,"Affordance Norms_Prolific",1,29,2023-05-13T22:30:09+00:00,20.847362995148,89,"updated stim.csv",Version89.csv,"Version 89","List 89",lick,,2644,4.652173913,1502,0.157624694,2645,BOI,-,-,"Please name all of the ways you could use this object. Keep in mind that one object can have many uses. Separate your responses with a comma.",,y,20327,,,8080,16281,,,,"Romance, lollipop.",1
63d196c147d1f420690e5b87,jym89cqugf,"Affordance Norms_Prolific",1,30,2023-05-13T22:30:24+00:00,15.312981128693,89,"updated stim.csv",Version89.csv,"Version 89","List 89",band,,2643,4.384615385,137,0.320058041,2644,BOI,-,-,"Please name all of the ways you could use this object. Keep in mind that one object can have many uses. Separate your responses with a comma.",,y,14820,,,2433,11418,,,,"Listen, rock out, party",1
63d196c147d1f420690e5b87,jym89cqugf,"Affordance Norms_Prolific",1,31,2023-05-13T22:30:46+00:00,21.408402919769,89,"updated stim.csv",Version89.csv,"Version 89","List 89",hat,,2652,6.44,1258,0.995555698,2653,BOI,-,-,"Please name all of the ways you could use this object. Keep in mind that one object can have many uses. Separate your responses with a comma.",,y,20920,,,1698,20643,,,,"Wear, Frisbee, item of trade.",1
63d196c147d1f420690e5b87,jym89cqugf,"Affordance Norms_Prolific",1,32,2023-05-13T22:31:05+00:00,19.465234041214,89,"updated stim.csv",Version89.csv,"Version 89","List 89",hamburger,,2660,6.148148148,1222,0.48776635,2661,BOI,-,-,"Please name all of the ways you could use this object. Keep in mind that one object can have many uses. Separate your responses with a comma.",,y,18982,,,1486,18234,,,,"Eat, in a food fight, step on, frisbee",1
63d196c147d1f420690e5b87,jym89cqugf,"Affordance Norms_Prolific",1,33,2023-05-13T22:31:38+00:00,33.304845094681,89,"updated stim.csv",Version89.csv,"Version 89","List 89",dwarf,,2666,4.333333333,871,0.117156022,2667,BOI,-,-,"Please name all of the ways you could use this object. Keep in mind that one object can have many uses. Separate your responses with a comma.",,y,32813,,,2814,31352,,,,"Toss, gamble on/ with, wrestler, boxer",1
63d196c147d1f420690e5b87,jym89cqugf,"Affordance Norms_Prolific",1,34,2023-05-13T22:31:52+00:00,13.813789844513,89,"updated stim.csv",Version89.csv,"Version 89","List 89",entree,,2645,5.28,912,0.254776783,2646,BOI,-,-,"Please name all of the ways you could use this object. Keep in mind that one object can have many uses. Separate your responses with a comma.",,y,13324,,,3592,11301,,,,"Eat, food fight, step on",1
63d196c147d1f420690e5b87,jym89cqugf,"Affordance Norms_Prolific",1,35,2023-05-13T22:32:07+00:00,14.851607084274,89,"updated stim.csv",Version89.csv,"Version 89","List 89",jar,,2655,6.208333333,1373,0.13576901,2656,BOI,-,-,"Please name all of the ways you could use this object. Keep in mind that one object can have many uses. Separate your responses with a comma.",,y,14374,,,2788,13455,,,,"Eat, weapon",1
63d196c147d1f420690e5b87,jym89cqugf,"Affordance Norms_Prolific",1,36,2023-05-13T22:32:20+00:00,12.912944078445,89,"updated stim.csv",Version89.csv,"Version 89","List 89",barkeep,,2670,4.260869565,148,0.310357294,2671,BOI,-,-,"Please name all of the ways you could use this object. Keep in mind that one object can have many uses. Separate your responses with a comma.",,y,12410,,,2736,10757,,,,"Drink, listener, friend",1
63d196c147d1f420690e5b87,jym89cqugf,"Affordance Norms_Prolific",1,37,2023-05-13T22:32:41+00:00,20.997406005859,89,"updated stim.csv",Version89.csv,"Version 89","List 89",icepick,,2657,5.416666667,1347,0.619650655,2658,BOI,-,-,"Please name all of the ways you could use this object. Keep in mind that one object can have many uses. Separate your responses with a comma.",,y,20512,,,1486,18761,,,,"Weapon, Trosty killer, getting ice.",1
63d196c147d1f420690e5b87,jym89cqugf,"Affordance Norms_Prolific",1,38,2023-05-13T22:33:03+00:00,21.53063082695,89,"updated stim.csv",Version89.csv,"Version 89","List 89",husband,,2662,6.041666667,1338,0.500019135,2663,BOI,-,-,"Please name all of the ways you could use this object. Keep in mind that one object can have many uses. Separate your responses with a comma.",,y,21036,,,5627,20746,,,,"Advice, friend, chat, companion, drinking buddy.",1
63d196c147d1f420690e5b87,jym89cqugf,"Affordance Norms_Prolific",1,39,2023-05-13T22:34:01+00:00,58.276283979416,89,"updated stim.csv",Version89.csv,"Version 89","List 89",croquette,,2669,4.681818182,702,0.945016361,2670,BOI,-,-,"Please name all of the ways you could use this object. Keep in mind that one object can have many uses. Separate your responses with a comma.",,y,57743,,,3912,53847,,,,"Weapon, socializing",0.884
63d196c147d1f420690e5b87,jym89cqugf,"Affordance Norms_Prolific",1,40,2023-05-13T22:34:16+00:00,14.686417102814,89,"updated stim.csv",Version89.csv,"Version 89","List 89",banister,,2651,5.130434783,140,0.506891939,2652,BOI,-,-,"Please name all of the ways you could use this object. Keep in mind that one object can have many uses. Separate your responses with a comma.",,y,14170,,,1855,13287,,,,"Slide, support",1
63d196c147d1f420690e5b87,jym89cqugf,"Affordance Norms_Prolific",1,41,2023-05-13T22:34:18+00:00,2.521763086319,89,"updated stim.csv",Version89.csv,"Version 89","List 89",,,,,,,0,Instruct,,,"You will now be asked a few questions about your experience today.",,"Instruct 4",2037,,,-1,-1,,,,,1
