Username,ID,ExperimentName,Session,Trial,Date,TimeDif,"Condition Number","Stimuli File","Order File","Condition Description","Condition Notes",Stimuli*Cue,Stimuli*Answer,Stimuli*Shuffle,"Stimuli*Stimuli Notes",Stimuli*Value,Stimuli*Rand,Procedure*Item,"Procedure*Trial Type","Procedure*Max Time","Procedure*Min Time",Procedure*Text,"Procedure*Procedure Notes",Procedure*Shuffle,Response*RT,Response*Response,Response*Accuracy,Response*RTfirst,Response*RTlast,Response*strictAcc,Response*lenientAcc,Response*focus,Response*JOL,Response*Focus
5cedb21e6bca0c0019bc5891,f2xn1lzbnu,"Affordance Norms_Prolific",1,1,2023-05-14T19:56:03+00:00,13.201778888702,90,"updated stim.csv",Version90.csv,"Version 90","List 90",,,,,,,0,Instruct,-,10,"In this section, you will be presented with a series of objects. Please name as many possible uses for this object as you can think of by typing them in the box below each object.",,Instruct1,12877,,,-1,-1,,,,,1
5cedb21e6bca0c0019bc5891,f2xn1lzbnu,"Affordance Norms_Prolific",1,2,2023-05-14T19:56:15+00:00,12.900661945343,90,"updated stim.csv",Version90.csv,"Version 90","List 90",,,,,,,0,Instruct,-,10,"Please keep in mind that a single object will have more than one use. For example, a ball can be thrown or can be bounced or even stepped on. When listing multiple uses for one object, please separate each use with a comma (i.e., thrown, bounced, stepped on)",,Instruct2,12318,,,-1,-1,,,,,1
5cedb21e6bca0c0019bc5891,f2xn1lzbnu,"Affordance Norms_Prolific",1,3,2023-05-14T19:56:20+00:00,4.398864030838,90,"updated stim.csv",Version90.csv,"Version 90","List 90",,,,,,,0,Instruct,-,-,"Before starting the experiment, you will complete a short practice sesstion. Press ENTER when you are ready to begin.",,Instruct3,3902,,,-1,-1,,,,,1
5cedb21e6bca0c0019bc5891,f2xn1lzbnu,"Affordance Norms_Prolific",1,4,2023-05-14T19:56:42+00:00,22.605605125427,90,"updated stim.csv",Version90.csv,"Version 90","List 90",shortening,,3002,4.92,2358,0.604328482,3003,BOI,-,-,"Please name all of the ways you could use this object. Keep in mind that one object can have many uses. Separate your responses with a comma.",,n,22120,,,5320,9800,,,,"lube, baking, ",1
5cedb21e6bca0c0019bc5891,f2xn1lzbnu,"Affordance Norms_Prolific",1,5,2023-05-14T19:56:57+00:00,14.991816043854,90,"updated stim.csv",Version90.csv,"Version 90","List 90",grain,,3004,5.217391304,1143,0.226863762,3005,BOI,-,-,"Please name all of the ways you could use this object. Keep in mind that one object can have many uses. Separate your responses with a comma.",,n,14613,,,3382,11781,,,,"baking, bird feed, ",1
5cedb21e6bca0c0019bc5891,f2xn1lzbnu,"Affordance Norms_Prolific",1,6,2023-05-14T19:57:09+00:00,11.332703828812,90,"updated stim.csv",Version90.csv,"Version 90","List 90",saucer,,3005,5.777777778,2249,0.304808074,3006,BOI,-,-,"Please name all of the ways you could use this object. Keep in mind that one object can have many uses. Separate your responses with a comma.",,n,10959,,,2657,10336,,,,"hold a cup, throwing",1
5cedb21e6bca0c0019bc5891,f2xn1lzbnu,"Affordance Norms_Prolific",1,7,2023-05-14T19:57:27+00:00,17.895697116852,90,"updated stim.csv",Version90.csv,"Version 90","List 90",spaghetti,,3003,6,2461,0.090379998,3004,BOI,-,-,"Please name all of the ways you could use this object. Keep in mind that one object can have many uses. Separate your responses with a comma.",,n,17549,,,3837,16829,,,,"serve with sauce, pipe cleaner",1
5cedb21e6bca0c0019bc5891,f2xn1lzbnu,"Affordance Norms_Prolific",1,8,2023-05-14T19:57:39+00:00,12.14008808136,90,"updated stim.csv",Version90.csv,"Version 90","List 90",paperwork,,3001,5.625,1866,0.124284162,3002,BOI,-,-,"Please name all of the ways you could use this object. Keep in mind that one object can have many uses. Separate your responses with a comma.",,n,11769,,,3193,11704,,,,"throw out, file",1
5cedb21e6bca0c0019bc5891,f2xn1lzbnu,"Affordance Norms_Prolific",1,9,2023-05-14T19:57:40+00:00,1.568051815033,90,"updated stim.csv",Version90.csv,"Version 90","List 90",,,,,,,0,Instruct,-,-,"You have completed this section. Press ENTER to continue",,"Instruct 5",1198,,,-1,-1,,,,,1
5cedb21e6bca0c0019bc5891,f2xn1lzbnu,"Affordance Norms_Prolific",1,10,2023-05-14T19:57:42+00:00,1.4201459884644,90,"updated stim.csv",Version90.csv,"Version 90","List 90",,,,,,,0,Instruct,-,-,"You will now start the full experiment. Press ENTER when you are ready to begin.",,,1066,,,-1,-1,,,,,1
5cedb21e6bca0c0019bc5891,f2xn1lzbnu,"Affordance Norms_Prolific",1,11,2023-05-14T19:58:05+00:00,22.992842197418,90,"updated stim.csv",Version90.csv,"Version 90","List 90",timber,,2680,4.695652174,2699,0.328081093,2681,BOI,-,-,"Please name all of the ways you could use this object. Keep in mind that one object can have many uses. Separate your responses with a comma.",,y,22627,,,1988,21668,,,,"stack, burn, fireplace, ornamental",1
5cedb21e6bca0c0019bc5891,f2xn1lzbnu,"Affordance Norms_Prolific",1,12,2023-05-14T19:58:25+00:00,19.985544919968,90,"updated stim.csv",Version90.csv,"Version 90","List 90",stepparent,,2677,5,2528,0.086567946,2678,BOI,-,-,"Please name all of the ways you could use this object. Keep in mind that one object can have many uses. Separate your responses with a comma.",,y,19641,,,4523,18890,,,,"borrow money from, ignore",1
5cedb21e6bca0c0019bc5891,f2xn1lzbnu,"Affordance Norms_Prolific",1,13,2023-05-14T19:58:37+00:00,12.437784910202,90,"updated stim.csv",Version90.csv,"Version 90","List 90",notepaper,,2692,5.392857143,1782,0.531133792,2693,BOI,-,-,"Please name all of the ways you could use this object. Keep in mind that one object can have many uses. Separate your responses with a comma.",,y,12056,,,2969,11560,,,,"use as kindling, throw away",1
5cedb21e6bca0c0019bc5891,f2xn1lzbnu,"Affordance Norms_Prolific",1,14,2023-05-14T19:58:46+00:00,8.8251881599426,90,"updated stim.csv",Version90.csv,"Version 90","List 90",cash,,2691,6.36,448,0.011316442,2692,BOI,-,-,"Please name all of the ways you could use this object. Keep in mind that one object can have many uses. Separate your responses with a comma.",,y,8485,,,1512,7957,,,,"spend, save, waste",1
5cedb21e6bca0c0019bc5891,f2xn1lzbnu,"Affordance Norms_Prolific",1,15,2023-05-14T19:58:55+00:00,8.9156768321991,90,"updated stim.csv",Version90.csv,"Version 90","List 90",gatekeeper,,2683,4.44,1087,0.244346152,2684,BOI,-,-,"Please name all of the ways you could use this object. Keep in mind that one object can have many uses. Separate your responses with a comma.",,y,8555,,,3613,7708,,,,"employ, ignore",1
5cedb21e6bca0c0019bc5891,f2xn1lzbnu,"Affordance Norms_Prolific",1,16,2023-05-14T19:59:17+00:00,21.62017416954,90,"updated stim.csv",Version90.csv,"Version 90","List 90",blister,,2700,5.2,238,0.828938488,2701,BOI,-,-,"Please name all of the ways you could use this object. Keep in mind that one object can have many uses. Separate your responses with a comma.",,y,21233,,,1970,21169,,,,"ignore, heal, put a bandage on",1
5cedb21e6bca0c0019bc5891,f2xn1lzbnu,"Affordance Norms_Prolific",1,17,2023-05-14T19:59:29+00:00,12.498369932175,90,"updated stim.csv",Version90.csv,"Version 90","List 90",poodle,,2686,5.652173913,2032,0.433975707,2687,BOI,-,-,"Please name all of the ways you could use this object. Keep in mind that one object can have many uses. Separate your responses with a comma.",,y,12138,,,7243,11499,,,,"ignore, pet, kick",1
5cedb21e6bca0c0019bc5891,f2xn1lzbnu,"Affordance Norms_Prolific",1,18,2023-05-14T19:59:35+00:00,6.1198840141296,90,"updated stim.csv",Version90.csv,"Version 90","List 90",cavalryman,,2682,4.291666667,467,0.382746925,2683,BOI,-,-,"Please name all of the ways you could use this object. Keep in mind that one object can have many uses. Separate your responses with a comma.",,y,5757,,,2399,5406,,,,"hire, display",1
5cedb21e6bca0c0019bc5891,f2xn1lzbnu,"Affordance Norms_Prolific",1,19,2023-05-14T19:59:42+00:00,6.7332699298859,90,"updated stim.csv",Version90.csv,"Version 90","List 90",glasses,,2676,6.541666667,1112,0.703319756,2677,BOI,-,-,"Please name all of the ways you could use this object. Keep in mind that one object can have many uses. Separate your responses with a comma.",,y,6360,,,1706,5961,,,,"wear, drink from",1
5cedb21e6bca0c0019bc5891,f2xn1lzbnu,"Affordance Norms_Prolific",1,20,2023-05-14T19:59:49+00:00,6.8917670249939,90,"updated stim.csv",Version90.csv,"Version 90","List 90",antiseptics,,2690,5.041666667,52,0.468172757,2691,BOI,-,-,"Please name all of the ways you could use this object. Keep in mind that one object can have many uses. Separate your responses with a comma.",,y,6545,,,1971,5988,,,,"use, ignore",1
5cedb21e6bca0c0019bc5891,f2xn1lzbnu,"Affordance Norms_Prolific",1,21,2023-05-14T20:00:01+00:00,11.811810016632,90,"updated stim.csv",Version90.csv,"Version 90","List 90",clamp,,2688,5.36,546,0.048469768,2689,BOI,-,-,"Please name all of the ways you could use this object. Keep in mind that one object can have many uses. Separate your responses with a comma.",,y,11460,,,7879,11141,,,,"use, ignore",1
5cedb21e6bca0c0019bc5891,f2xn1lzbnu,"Affordance Norms_Prolific",1,22,2023-05-14T20:00:28+00:00,27.755373954773,90,"updated stim.csv",Version90.csv,"Version 90","List 90",goggle,,2696,4.458333333,1130,0.364132405,2697,BOI,-,-,"Please name all of the ways you could use this object. Keep in mind that one object can have many uses. Separate your responses with a comma.",,y,27396,,,4790,22517,,,,"wear, ignore, use as an ornament",1
5cedb21e6bca0c0019bc5891,f2xn1lzbnu,"Affordance Norms_Prolific",1,23,2023-05-14T20:00:49+00:00,20.892317056656,90,"updated stim.csv",Version90.csv,"Version 90","List 90",putty,,2672,5,2107,0.291045062,2673,BOI,-,-,"Please name all of the ways you could use this object. Keep in mind that one object can have many uses. Separate your responses with a comma.",,y,20502,,,9878,20422,,,,"use as intended, ignore, ",1
5cedb21e6bca0c0019bc5891,f2xn1lzbnu,"Affordance Norms_Prolific",1,24,2023-05-14T20:00:55+00:00,5.5676839351654,90,"updated stim.csv",Version90.csv,"Version 90","List 90",livestock,,2671,5.041666667,1528,0.387059315,2672,BOI,-,-,"Please name all of the ways you could use this object. Keep in mind that one object can have many uses. Separate your responses with a comma.",,y,5166,,,3615,4559,,,,"use as intended, ignore, pet",1
5cedb21e6bca0c0019bc5891,f2xn1lzbnu,"Affordance Norms_Prolific",1,25,2023-05-14T20:01:02+00:00,6.7028501033783,90,"updated stim.csv",Version90.csv,"Version 90","List 90",workbench,,2674,6.208333333,2968,0.631953114,2675,BOI,-,-,"Please name all of the ways you could use this object. Keep in mind that one object can have many uses. Separate your responses with a comma.",,y,6355,,,3589,5684,,,,"use as intended, ignore, sit on",1
5cedb21e6bca0c0019bc5891,f2xn1lzbnu,"Affordance Norms_Prolific",1,26,2023-05-14T20:01:09+00:00,7.2133538722992,90,"updated stim.csv",Version90.csv,"Version 90","List 90",pipe,,2681,5.653846154,1976,0.248771995,2682,BOI,-,-,"Please name all of the ways you could use this object. Keep in mind that one object can have many uses. Separate your responses with a comma.",,y,6824,,,3449,6441,,,,"use as intended, ignore, thro away",1
5cedb21e6bca0c0019bc5891,f2xn1lzbnu,"Affordance Norms_Prolific",1,27,2023-05-14T20:01:18+00:00,9.1864819526672,90,"updated stim.csv",Version90.csv,"Version 90","List 90",blackheads,,2678,4.260869565,230,0.616208827,2679,BOI,-,-,"Please name all of the ways you could use this object. Keep in mind that one object can have many uses. Separate your responses with a comma.",,y,8854,,,2519,7031,,,,"treat, ignore",1
5cedb21e6bca0c0019bc5891,f2xn1lzbnu,"Affordance Norms_Prolific",1,28,2023-05-14T20:01:26+00:00,7.5377349853516,90,"updated stim.csv",Version90.csv,"Version 90","List 90",rye,,2687,4.407407407,2209,0.622756368,2688,BOI,-,-,"Please name all of the ways you could use this object. Keep in mind that one object can have many uses. Separate your responses with a comma.",,y,7150,,,3536,6798,,,,"use as intended, ignore, make bread",1
5cedb21e6bca0c0019bc5891,f2xn1lzbnu,"Affordance Norms_Prolific",1,29,2023-05-14T20:01:37+00:00,11.205826997757,90,"updated stim.csv",Version90.csv,"Version 90","List 90",plumber,,2699,4.44,2011,0.938041459,2700,BOI,-,-,"Please name all of the ways you could use this object. Keep in mind that one object can have many uses. Separate your responses with a comma.",,y,10811,,,2444,6940,,,,"hire, ignore",1
5cedb21e6bca0c0019bc5891,f2xn1lzbnu,"Affordance Norms_Prolific",1,30,2023-05-14T20:01:43+00:00,6.3842670917511,90,"updated stim.csv",Version90.csv,"Version 90","List 90",meadow,,2698,4.391304348,1631,0.573689476,2699,BOI,-,-,"Please name all of the ways you could use this object. Keep in mind that one object can have many uses. Separate your responses with a comma.",,y,6029,,,2496,5551,,,,"sit, admire",1
5cedb21e6bca0c0019bc5891,f2xn1lzbnu,"Affordance Norms_Prolific",1,31,2023-05-14T20:01:53+00:00,10.307548999786,90,"updated stim.csv",Version90.csv,"Version 90","List 90",serviceman,,2694,4.8,2314,0.106353628,2695,BOI,-,-,"Please name all of the ways you could use this object. Keep in mind that one object can have many uses. Separate your responses with a comma.",,y,9942,,,3224,9557,,,,"hire, ignore",1
5cedb21e6bca0c0019bc5891,f2xn1lzbnu,"Affordance Norms_Prolific",1,32,2023-05-14T20:02:05+00:00,11.702713012695,90,"updated stim.csv",Version90.csv,"Version 90","List 90",limes,,2675,5.782608696,1514,0.972887071,2676,BOI,-,-,"Please name all of the ways you could use this object. Keep in mind that one object can have many uses. Separate your responses with a comma.",,y,11326,,,4495,10000,,,,"use as intended, ignore, make a drink with",1
5cedb21e6bca0c0019bc5891,f2xn1lzbnu,"Affordance Norms_Prolific",1,33,2023-05-14T20:02:18+00:00,12.937827110291,90,"updated stim.csv",Version90.csv,"Version 90","List 90",organism,,2685,4.727272727,1821,0.127468756,2686,BOI,-,-,"Please name all of the ways you could use this object. Keep in mind that one object can have many uses. Separate your responses with a comma.",,y,12579,,,8245,11988,,,,"ignore, treat",1
5cedb21e6bca0c0019bc5891,f2xn1lzbnu,"Affordance Norms_Prolific",1,34,2023-05-14T20:02:20+00:00,2.3646268844604,90,"updated stim.csv",Version90.csv,"Version 90","List 90",curry,,2697,4.565217391,731,0.233391783,2698,BOI,-,-,"Please name all of the ways you could use this object. Keep in mind that one object can have many uses. Separate your responses with a comma.",,y,2006,,,-1,-1,,,,"use as intended, ignore,",1
5cedb21e6bca0c0019bc5891,f2xn1lzbnu,"Affordance Norms_Prolific",1,35,2023-05-14T20:02:22+00:00,1.8298110961914,90,"updated stim.csv",Version90.csv,"Version 90","List 90",Saloon,,2689,4.301480485,2225,0.952539339,2690,BOI,-,-,"Please name all of the ways you could use this object. Keep in mind that one object can have many uses. Separate your responses with a comma.",,y,1469,,,-1,-1,,,,"use as intended, ignore,",1
5cedb21e6bca0c0019bc5891,f2xn1lzbnu,"Affordance Norms_Prolific",1,36,2023-05-14T20:02:24+00:00,1.6479828357697,90,"updated stim.csv",Version90.csv,"Version 90","List 90",buttonhole,,2695,5.074074074,382,0.218069327,2696,BOI,-,-,"Please name all of the ways you could use this object. Keep in mind that one object can have many uses. Separate your responses with a comma.",,y,1298,,,-1,-1,,,,"use as intended, ignore,",1
5cedb21e6bca0c0019bc5891,f2xn1lzbnu,"Affordance Norms_Prolific",1,37,2023-05-14T20:02:26+00:00,1.79141497612,90,"updated stim.csv",Version90.csv,"Version 90","List 90",cup,,2693,6.043478261,726,0.334300936,2694,BOI,-,-,"Please name all of the ways you could use this object. Keep in mind that one object can have many uses. Separate your responses with a comma.",,y,1431,,,-1,-1,,,,"use as intended, ignore,",1
5cedb21e6bca0c0019bc5891,f2xn1lzbnu,"Affordance Norms_Prolific",1,38,2023-05-14T20:02:39+00:00,13.309212207794,90,"updated stim.csv",Version90.csv,"Version 90","List 90",reptile,,2679,5,2156,0.599015679,2680,BOI,-,-,"Please name all of the ways you could use this object. Keep in mind that one object can have many uses. Separate your responses with a comma.",,y,12943,,,5872,12496,,,,"keep as a pet, ignore",1
5cedb21e6bca0c0019bc5891,f2xn1lzbnu,"Affordance Norms_Prolific",1,39,2023-05-14T20:02:41+00:00,1.9366979598999,90,"updated stim.csv",Version90.csv,"Version 90","List 90",fig,,2684,5.083333333,972,0.270792249,2685,BOI,-,-,"Please name all of the ways you could use this object. Keep in mind that one object can have many uses. Separate your responses with a comma.",,y,1576,,,-1,-1,,,,"use as intended, ignore,",1
5cedb21e6bca0c0019bc5891,f2xn1lzbnu,"Affordance Norms_Prolific",1,40,2023-05-14T20:02:43+00:00,1.590432882309,90,"updated stim.csv",Version90.csv,"Version 90","List 90",tubing,,2673,4.625,2792,0.587863482,2674,BOI,-,-,"Please name all of the ways you could use this object. Keep in mind that one object can have many uses. Separate your responses with a comma.",,y,1247,,,-1,-1,,,,"use as intended, ignore,",1
5cedb21e6bca0c0019bc5891,f2xn1lzbnu,"Affordance Norms_Prolific",1,41,2023-05-14T20:02:48+00:00,5.844437122345,90,"updated stim.csv",Version90.csv,"Version 90","List 90",,,,,,,0,Instruct,,,"You will now be asked a few questions about your experience today.",,"Instruct 4",5497,,,-1,-1,,,,,1
