Username,ID,ExperimentName,Session,Trial,Date,TimeDif,"Condition Number","Stimuli File","Order File","Condition Description","Condition Notes",Stimuli*Cue,Stimuli*Answer,Stimuli*Shuffle,"Stimuli*Stimuli Notes",Stimuli*Value,Stimuli*Rand,Procedure*Item,"Procedure*Trial Type","Procedure*Max Time","Procedure*Min Time",Procedure*Text,"Procedure*Procedure Notes",Procedure*Shuffle,Response*RT,Response*Response,Response*Accuracy,Response*RTfirst,Response*RTlast,Response*strictAcc,Response*lenientAcc,Response*focus,Response*JOL,Response*Focus
608d247fc141c8230ce3ebdc,mzu3f2eqxt,"Affordance Norms_Prolific",1,1,2023-05-14T18:19:42+00:00,47.519895076752,49,"updated stim.csv",Version49.csv,"Version 49","List 49",,,,,,,0,Instruct,-,10,"In this section, you will be presented with a series of objects. Please name as many possible uses for this object as you can think of by typing them in the box below each object.",,Instruct1,47073,,,-1,-1,,,,,1
608d247fc141c8230ce3ebdc,mzu3f2eqxt,"Affordance Norms_Prolific",1,2,2023-05-14T18:20:03+00:00,20.88637304306,49,"updated stim.csv",Version49.csv,"Version 49","List 49",,,,,,,0,Instruct,-,10,"Please keep in mind that a single object will have more than one use. For example, a ball can be thrown or can be bounced or even stepped on. When listing multiple uses for one object, please separate each use with a comma (i.e., thrown, bounced, stepped on)",,Instruct2,20264,,,-1,-1,,,,,1
608d247fc141c8230ce3ebdc,mzu3f2eqxt,"Affordance Norms_Prolific",1,3,2023-05-14T18:20:07+00:00,4.0982158184052,49,"updated stim.csv",Version49.csv,"Version 49","List 49",,,,,,,0,Instruct,-,-,"Before starting the experiment, you will complete a short practice sesstion. Press ENTER when you are ready to begin.",,Instruct3,3328,,,-1,-1,,,,,1
608d247fc141c8230ce3ebdc,mzu3f2eqxt,"Affordance Norms_Prolific",1,4,2023-05-14T18:20:31+00:00,23.548643112183,49,"updated stim.csv",Version49.csv,"Version 49","List 49",shortening,,3002,4.92,2358,0.604328482,3003,BOI,-,-,"Please name all of the ways you could use this object. Keep in mind that one object can have many uses. Separate your responses with a comma.",,n,22822,,,9181,21775,,,,"words, pencils, wood, plastic",1
608d247fc141c8230ce3ebdc,mzu3f2eqxt,"Affordance Norms_Prolific",1,5,2023-05-14T18:20:43+00:00,12.272234916687,49,"updated stim.csv",Version49.csv,"Version 49","List 49",saucer,,3005,5.777777778,2249,0.304808074,3006,BOI,-,-,"Please name all of the ways you could use this object. Keep in mind that one object can have many uses. Separate your responses with a comma.",,n,11666,,,2485,8035,,,,"cook, boil, steam",1
608d247fc141c8230ce3ebdc,mzu3f2eqxt,"Affordance Norms_Prolific",1,6,2023-05-14T18:21:01+00:00,18.422872066498,49,"updated stim.csv",Version49.csv,"Version 49","List 49",paperwork,,3001,5.625,1866,0.124284162,3002,BOI,-,-,"Please name all of the ways you could use this object. Keep in mind that one object can have many uses. Separate your responses with a comma.",,n,17798,,,4272,16531,,,,"write on, file, design",1
608d247fc141c8230ce3ebdc,mzu3f2eqxt,"Affordance Norms_Prolific",1,7,2023-05-14T18:21:09+00:00,7.5864839553833,49,"updated stim.csv",Version49.csv,"Version 49","List 49",grain,,3004,5.217391304,1143,0.226863762,3005,BOI,-,-,"Please name all of the ways you could use this object. Keep in mind that one object can have many uses. Separate your responses with a comma.",,n,6944,,,1628,5627,,,,"cook, grow, eat",1
608d247fc141c8230ce3ebdc,mzu3f2eqxt,"Affordance Norms_Prolific",1,8,2023-05-14T18:21:20+00:00,11.114530086517,49,"updated stim.csv",Version49.csv,"Version 49","List 49",spaghetti,,3003,6,2461,0.090379998,3004,BOI,-,-,"Please name all of the ways you could use this object. Keep in mind that one object can have many uses. Separate your responses with a comma.",,n,10366,,,1675,8967,,,,"cook, eat, paint, design",1
608d247fc141c8230ce3ebdc,mzu3f2eqxt,"Affordance Norms_Prolific",1,9,2023-05-14T18:21:25+00:00,5.2178039550781,49,"updated stim.csv",Version49.csv,"Version 49","List 49",,,,,,,0,Instruct,-,-,"You have completed this section. Press ENTER to continue",,"Instruct 5",4534,,,-1,-1,,,,,1
608d247fc141c8230ce3ebdc,mzu3f2eqxt,"Affordance Norms_Prolific",1,10,2023-05-14T18:21:51+00:00,26.111926078796,49,"updated stim.csv",Version49.csv,"Version 49","List 49",,,,,,,0,Instruct,-,-,"You will now start the full experiment. Press ENTER when you are ready to begin.",,,25209,,,-1,-1,,,,,1
608d247fc141c8230ce3ebdc,mzu3f2eqxt,"Affordance Norms_Prolific",1,11,2023-05-14T18:22:03+00:00,11.754487037659,49,"updated stim.csv",Version49.csv,"Version 49","List 49",maple,,1455,4.32,1601,0.056415774,1456,BOI,-,-,"Please name all of the ways you could use this object. Keep in mind that one object can have many uses. Separate your responses with a comma.",,y,11051,,,2247,9749,,,,"drizzle, eat, cook, bake",1
608d247fc141c8230ce3ebdc,mzu3f2eqxt,"Affordance Norms_Prolific",1,12,2023-05-14T18:22:17+00:00,13.895567893982,49,"updated stim.csv",Version49.csv,"Version 49","List 49",neckwear,,1466,5.652173913,1743,0.143387279,1467,BOI,-,-,"Please name all of the ways you could use this object. Keep in mind that one object can have many uses. Separate your responses with a comma.",,y,13196,,,2227,11968,,,,"wear, warm, wrap round",1
608d247fc141c8230ce3ebdc,mzu3f2eqxt,"Affordance Norms_Prolific",1,13,2023-05-14T18:22:35+00:00,18.357971906662,49,"updated stim.csv",Version49.csv,"Version 49","List 49",lawyer,,1452,4.625,1475,0.448114174,1453,BOI,-,-,"Please name all of the ways you could use this object. Keep in mind that one object can have many uses. Separate your responses with a comma.",,y,17693,,,5298,16332,,,,"sue, protect, fight, pay",1
608d247fc141c8230ce3ebdc,mzu3f2eqxt,"Affordance Norms_Prolific",1,14,2023-05-14T18:22:47+00:00,11.10538816452,49,"updated stim.csv",Version49.csv,"Version 49","List 49",Leaf,,1450,5.584345479,1477,0.074225536,1451,BOI,-,-,"Please name all of the ways you could use this object. Keep in mind that one object can have many uses. Separate your responses with a comma.",,y,10358,,,1678,9043,,,,"blow, plant, cook",1
608d247fc141c8230ce3ebdc,mzu3f2eqxt,"Affordance Norms_Prolific",1,15,2023-05-14T18:23:01+00:00,14.842036962509,49,"updated stim.csv",Version49.csv,"Version 49","List 49",thumb,,1465,6.357142857,2687,0.252507917,1466,BOI,-,-,"Please name all of the ways you could use this object. Keep in mind that one object can have many uses. Separate your responses with a comma.",,y,14205,,,3111,12959,,,,"paint, eat, drive, play",1
608d247fc141c8230ce3ebdc,mzu3f2eqxt,"Affordance Norms_Prolific",1,16,2023-05-14T18:23:12+00:00,10.274016857147,49,"updated stim.csv",Version49.csv,"Version 49","List 49",tugboat,,1457,4.555555556,2793,0.722676779,1458,BOI,-,-,"Please name all of the ways you could use this object. Keep in mind that one object can have many uses. Separate your responses with a comma.",,y,9605,,,1982,8275,,,,"ride, sleep, float",1
608d247fc141c8230ce3ebdc,mzu3f2eqxt,"Affordance Norms_Prolific",1,17,2023-05-14T18:23:28+00:00,16.446413040161,49,"updated stim.csv",Version49.csv,"Version 49","List 49",finger,,1461,6,977,0.488160189,1462,BOI,-,-,"Please name all of the ways you could use this object. Keep in mind that one object can have many uses. Separate your responses with a comma.",,y,15844,,,6031,14678,,,,"point, paint, wriggle, dance",1
608d247fc141c8230ce3ebdc,mzu3f2eqxt,"Affordance Norms_Prolific",1,18,2023-05-14T18:23:44+00:00,16.320896148682,49,"updated stim.csv",Version49.csv,"Version 49","List 49",boathouse,,1469,4.52173913,256,0.567941903,1470,BOI,-,-,"Please name all of the ways you could use this object. Keep in mind that one object can have many uses. Separate your responses with a comma.",,y,15668,,,5055,14394,,,,"live, sleep, walk, heat",1
608d247fc141c8230ce3ebdc,mzu3f2eqxt,"Affordance Norms_Prolific",1,19,2023-05-14T18:23:55+00:00,10.373682022095,49,"updated stim.csv",Version49.csv,"Version 49","List 49",soles,,1462,4.913043478,2447,0.934824946,1463,BOI,-,-,"Please name all of the ways you could use this object. Keep in mind that one object can have many uses. Separate your responses with a comma.",,y,9580,,,2186,6072,,,,"comfort, walking ",1
608d247fc141c8230ce3ebdc,mzu3f2eqxt,"Affordance Norms_Prolific",1,20,2023-05-14T18:24:05+00:00,10.187999010086,49,"updated stim.csv",Version49.csv,"Version 49","List 49",pushcart,,1470,5.272727273,2106,0.870120036,1471,BOI,-,-,"Please name all of the ways you could use this object. Keep in mind that one object can have many uses. Separate your responses with a comma.",,y,9357,,,1548,8282,,,,"shop, push, fill",1
608d247fc141c8230ce3ebdc,mzu3f2eqxt,"Affordance Norms_Prolific",1,21,2023-05-14T18:24:13+00:00,7.8944938182831,49,"updated stim.csv",Version49.csv,"Version 49","List 49",lobe,,1447,4.47826087,1533,0.561515085,1448,BOI,-,-,"Please name all of the ways you could use this object. Keep in mind that one object can have many uses. Separate your responses with a comma.",,y,7239,,,3952,6367,,,,unsure,1
608d247fc141c8230ce3ebdc,mzu3f2eqxt,"Affordance Norms_Prolific",1,22,2023-05-14T18:24:25+00:00,12.460967063904,49,"updated stim.csv",Version49.csv,"Version 49","List 49",scissor,,1467,6.173913043,2275,0.190702019,1468,BOI,-,-,"Please name all of the ways you could use this object. Keep in mind that one object can have many uses. Separate your responses with a comma.",,y,11820,,,1628,10542,,,,"cut, shapen, throw, weapon",1
608d247fc141c8230ce3ebdc,mzu3f2eqxt,"Affordance Norms_Prolific",1,23,2023-05-14T18:24:39+00:00,13.512732028961,49,"updated stim.csv",Version49.csv,"Version 49","List 49",lady,,1448,5.32,1449,0.776370327,1449,BOI,-,-,"Please name all of the ways you could use this object. Keep in mind that one object can have many uses. Separate your responses with a comma.",,y,12830,,,2642,11555,,,,"sex, dance, walk, laugh",1
608d247fc141c8230ce3ebdc,mzu3f2eqxt,"Affordance Norms_Prolific",1,24,2023-05-14T18:24:43+00:00,4.4608359336853,49,"updated stim.csv",Version49.csv,"Version 49","List 49",latrine,,1458,6.333333333,1471,0.125724427,1459,BOI,-,-,"Please name all of the ways you could use this object. Keep in mind that one object can have many uses. Separate your responses with a comma.",,y,3760,,,1877,2564,,,,unsure,1
608d247fc141c8230ce3ebdc,mzu3f2eqxt,"Affordance Norms_Prolific",1,25,2023-05-14T18:24:47+00:00,4.0807280540466,49,"updated stim.csv",Version49.csv,"Version 49","List 49",gavel,,1463,4.545454545,1089,0.157083684,1464,BOI,-,-,"Please name all of the ways you could use this object. Keep in mind that one object can have many uses. Separate your responses with a comma.",,y,3470,,,1784,2431,,,,unsure,1
608d247fc141c8230ce3ebdc,mzu3f2eqxt,"Affordance Norms_Prolific",1,26,2023-05-14T18:25:02+00:00,15.050187110901,49,"updated stim.csv",Version49.csv,"Version 49","List 49",doghouse,,1445,5.076923077,813,0.29819541,1446,BOI,-,-,"Please name all of the ways you could use this object. Keep in mind that one object can have many uses. Separate your responses with a comma.",,y,14411,,,2159,13276,,,,"trouble, sleep, outdoors",1
608d247fc141c8230ce3ebdc,mzu3f2eqxt,"Affordance Norms_Prolific",1,27,2023-05-14T18:25:12+00:00,9.1229357719421,49,"updated stim.csv",Version49.csv,"Version 49","List 49",absinthe,,1468,4.590909091,3,0.397694971,1469,BOI,-,-,"Please name all of the ways you could use this object. Keep in mind that one object can have many uses. Separate your responses with a comma.",,y,8479,,,2525,7218,,,,"drink, throw away",1
608d247fc141c8230ce3ebdc,mzu3f2eqxt,"Affordance Norms_Prolific",1,28,2023-05-14T18:26:27+00:00,75.107638120651,49,"updated stim.csv",Version49.csv,"Version 49","List 49",Food,,1459,6.470350404,1027,0.4620995,1460,BOI,-,-,"Please name all of the ways you could use this object. Keep in mind that one object can have many uses. Separate your responses with a comma.",,y,74351,,,59237,73265,,,,"eat, grow, heat",1
608d247fc141c8230ce3ebdc,mzu3f2eqxt,"Affordance Norms_Prolific",1,29,2023-05-14T18:26:36+00:00,8.8273301124573,49,"updated stim.csv",Version49.csv,"Version 49","List 49",washstand,,1446,4.652173913,2902,0.326825996,1447,BOI,-,-,"Please name all of the ways you could use this object. Keep in mind that one object can have many uses. Separate your responses with a comma.",,y,8121,,,4572,6935,,,,"lean, stand ",1
608d247fc141c8230ce3ebdc,mzu3f2eqxt,"Affordance Norms_Prolific",1,30,2023-05-14T18:26:47+00:00,11.417486906052,49,"updated stim.csv",Version49.csv,"Version 49","List 49",sweetener,,1449,5.2,2606,0.105558644,1450,BOI,-,-,"Please name all of the ways you could use this object. Keep in mind that one object can have many uses. Separate your responses with a comma.",,y,10727,,,5751,9478,,,,"drink, eat",1
608d247fc141c8230ce3ebdc,mzu3f2eqxt,"Affordance Norms_Prolific",1,31,2023-05-14T18:26:57+00:00,10.2466609478,49,"updated stim.csv",Version49.csv,"Version 49","List 49",staff,,1454,4.928571429,2496,0.3474029,1455,BOI,-,-,"Please name all of the ways you could use this object. Keep in mind that one object can have many uses. Separate your responses with a comma.",,y,9637,,,3150,7960,,,,"work, help, support",1
608d247fc141c8230ce3ebdc,mzu3f2eqxt,"Affordance Norms_Prolific",1,32,2023-05-14T18:27:14+00:00,17.111354112625,49,"updated stim.csv",Version49.csv,"Version 49","List 49",fixture,,1451,5,994,0.042478359,1452,BOI,-,-,"Please name all of the ways you could use this object. Keep in mind that one object can have many uses. Separate your responses with a comma.",,y,16513,,,14433,15156,,,,unsure,1
608d247fc141c8230ce3ebdc,mzu3f2eqxt,"Affordance Norms_Prolific",1,33,2023-05-14T18:27:20+00:00,5.9272789955139,49,"updated stim.csv",Version49.csv,"Version 49","List 49",icing,,1460,4.76,1348,0.303228036,1461,BOI,-,-,"Please name all of the ways you could use this object. Keep in mind that one object can have many uses. Separate your responses with a comma.",,y,5323,,,2254,4116,,,,"cake, eat",1
608d247fc141c8230ce3ebdc,mzu3f2eqxt,"Affordance Norms_Prolific",1,34,2023-05-14T18:27:29+00:00,9.2254798412323,49,"updated stim.csv",Version49.csv,"Version 49","List 49",pillowcase,,1453,5.92,1963,0.856965735,1454,BOI,-,-,"Please name all of the ways you could use this object. Keep in mind that one object can have many uses. Separate your responses with a comma.",,y,8631,,,1894,7654,,,,"sleep, protect, fill",1
608d247fc141c8230ce3ebdc,mzu3f2eqxt,"Affordance Norms_Prolific",1,35,2023-05-14T18:27:48+00:00,18.969731092453,49,"updated stim.csv",Version49.csv,"Version 49","List 49",wounds,,1464,4.391304348,2977,0.663523357,1465,BOI,-,-,"Please name all of the ways you could use this object. Keep in mind that one object can have many uses. Separate your responses with a comma.",,y,18384,,,7725,17210,,,,"cover, protect",1
608d247fc141c8230ce3ebdc,mzu3f2eqxt,"Affordance Norms_Prolific",1,36,2023-05-14T18:27:58+00:00,9.2034208774567,49,"updated stim.csv",Version49.csv,"Version 49","List 49",eyedrop,,1442,5.48,932,0.351524997,1443,BOI,-,-,"Please name all of the ways you could use this object. Keep in mind that one object can have many uses. Separate your responses with a comma.",,y,8541,,,2640,7473,,,,"drop, sink",1
608d247fc141c8230ce3ebdc,mzu3f2eqxt,"Affordance Norms_Prolific",1,37,2023-05-14T18:28:03+00:00,5.3973650932312,49,"updated stim.csv",Version49.csv,"Version 49","List 49",opium,,1441,4.269230769,1812,0.710041731,1442,BOI,-,-,"Please name all of the ways you could use this object. Keep in mind that one object can have many uses. Separate your responses with a comma.",,y,4764,,,1992,3677,,,,unsure,1
608d247fc141c8230ce3ebdc,mzu3f2eqxt,"Affordance Norms_Prolific",1,38,2023-05-14T18:28:14+00:00,10.644587993622,49,"updated stim.csv",Version49.csv,"Version 49","List 49",sneaker,,1443,6.48,2427,0.380118782,1444,BOI,-,-,"Please name all of the ways you could use this object. Keep in mind that one object can have many uses. Separate your responses with a comma.",,y,9828,,,1422,8619,,,,"wear, run, walk, throw",1
608d247fc141c8230ce3ebdc,mzu3f2eqxt,"Affordance Norms_Prolific",1,39,2023-05-14T18:28:22+00:00,7.9068930149078,49,"updated stim.csv",Version49.csv,"Version 49","List 49",stomp,,1444,4.321428571,2544,0.910656975,1445,BOI,-,-,"Please name all of the ways you could use this object. Keep in mind that one object can have many uses. Separate your responses with a comma.",,y,7280,,,5873,6506,,,,unsure,1
608d247fc141c8230ce3ebdc,mzu3f2eqxt,"Affordance Norms_Prolific",1,40,2023-05-14T18:28:31+00:00,9.5846610069275,49,"updated stim.csv",Version49.csv,"Version 49","List 49",abdomen,,1456,5.434782609,2,0.326098969,1457,BOI,-,-,"Please name all of the ways you could use this object. Keep in mind that one object can have many uses. Separate your responses with a comma.",,y,8996,,,6569,7893,,,,strengthen,1
608d247fc141c8230ce3ebdc,mzu3f2eqxt,"Affordance Norms_Prolific",1,41,2023-05-14T18:28:45+00:00,13.676516056061,49,"updated stim.csv",Version49.csv,"Version 49","List 49",,,,,,,0,Instruct,,,"You will now be asked a few questions about your experience today.",,"Instruct 4",13036,,,-1,-1,,,,,1
