Username,ID,ExperimentName,Session,Trial,Date,TimeDif,"Condition Number","Stimuli File","Order File","Condition Description","Condition Notes",Stimuli*Cue,Stimuli*Answer,Stimuli*Shuffle,"Stimuli*Stimuli Notes",Stimuli*Value,Procedure*Item,"Procedure*Trial Type","Procedure*Max Time","Procedure*Min Time",Procedure*Text,"Procedure*Procedure Notes",Procedure*Shuffle,Response*RT,Response*Response,Response*Accuracy,Response*RTfirst,Response*RTlast,Response*strictAcc,Response*lenientAcc,Response*focus,Response*JOL,Response*Focus
w10039584_msc,0fziveeqja,"BOI Norms",1,1,2021-04-13T18:30:44-07:00,13.477868080139,10,"updated stim.csv",Version60.csv,"Version 60","List 60",,,,,,0,Instruct,-,10,"In this section, you will be presented with a series of objects. Please name as many possible uses for this object as you can think of by typing them in the box below each object.",,Instruct1,13182,,,-1,-1,,,,,1
w10039584_msc,0fziveeqja,"BOI Norms",1,2,2021-04-13T18:30:56-07:00,11.65681886673,10,"updated stim.csv",Version60.csv,"Version 60","List 60",,,,,,0,Instruct,-,10,"Please keep in mind that a single object will have more than one use. For example, a ball can be thrown or can be bounced or even stepped on. When listing multiple uses for one object, please separate each use with a comma (i.e., thrown, bounced, stepped on)",,Instruct2,11199,,,-1,-1,,,,,1
w10039584_msc,0fziveeqja,"BOI Norms",1,3,2021-04-13T18:30:59-07:00,3.3593511581421,10,"updated stim.csv",Version60.csv,"Version 60","List 60",,,,,,0,Instruct,-,-,"Before starting the experiment, you will complete a short practice sesstion. Press ENTER when you are ready to begin.",,Instruct3,3036,,,-1,-1,,,,,1
w10039584_msc,0fziveeqja,"BOI Norms",1,4,2021-04-13T18:31:11-07:00,11.968865871429,10,"updated stim.csv",Version60.csv,"Version 60","List 60",saucer,,3005,5.777777778,2249,3006,BOI,-,-,"Please name all of the ways you could use this object. Keep in mind that one object can have many uses. Separate your responses with a comma.",,n,11667,,,2726,7585,,,,cook,1
w10039584_msc,0fziveeqja,"BOI Norms",1,5,2021-04-13T18:31:21-07:00,9.6885859966278,10,"updated stim.csv",Version60.csv,"Version 60","List 60",paperwork,,3001,5.625,1866,3002,BOI,-,-,"Please name all of the ways you could use this object. Keep in mind that one object can have many uses. Separate your responses with a comma.",,n,9349,,,1969,6648,,,,"write, work, paper",1
w10039584_msc,0fziveeqja,"BOI Norms",1,6,2021-04-13T18:31:30-07:00,8.8642680644989,10,"updated stim.csv",Version60.csv,"Version 60","List 60",grain,,3004,5.217391304,1143,3005,BOI,-,-,"Please name all of the ways you could use this object. Keep in mind that one object can have many uses. Separate your responses with a comma.",,n,8514,,,2819,5503,,,,"food, type",1
w10039584_msc,0fziveeqja,"BOI Norms",1,7,2021-04-13T18:31:36-07:00,6.8474400043488,10,"updated stim.csv",Version60.csv,"Version 60","List 60",spaghetti,,3003,6,2461,3004,BOI,-,-,"Please name all of the ways you could use this object. Keep in mind that one object can have many uses. Separate your responses with a comma.",,n,6515,,,1413,5539,,,,"food, noodles, yummy",1
w10039584_msc,0fziveeqja,"BOI Norms",1,8,2021-04-13T18:31:42-07:00,5.4075789451599,10,"updated stim.csv",Version60.csv,"Version 60","List 60",shortening,,3002,4.92,2358,3003,BOI,-,-,"Please name all of the ways you could use this object. Keep in mind that one object can have many uses. Separate your responses with a comma.",,n,5099,,,1808,4196,,,,"short, small",1
w10039584_msc,0fziveeqja,"BOI Norms",1,9,2021-04-13T18:31:45-07:00,2.8957369327545,10,"updated stim.csv",Version60.csv,"Version 60","List 60",,,,,,0,Instruct,-,-,"You have completed this section. Press ENTER to continue",,"Instruct 5",2587,,,-1,-1,,,,,1
w10039584_msc,0fziveeqja,"BOI Norms",1,10,2021-04-13T18:31:49-07:00,3.8853640556335,10,"updated stim.csv",Version60.csv,"Version 60","List 60",,,,,,0,Instruct,-,-,"You will now start the full experiment. Press ENTER when you are ready to begin.",,,3549,,,-1,-1,,,,,1
w10039584_msc,0fziveeqja,"BOI Norms",1,11,2021-04-13T18:32:02-07:00,13.023349046707,10,"updated stim.csv",Version60.csv,"Version 60","List 60",juice,,1784,5.739130435,1393,1785,BOI,-,-,"Please name all of the ways you could use this object. Keep in mind that one object can have many uses. Separate your responses with a comma.",,y,12752,,,4399,11578,,,,"color, yummy, drink",1
w10039584_msc,0fziveeqja,"BOI Norms",1,12,2021-04-13T18:32:10-07:00,8.7890999317169,10,"updated stim.csv",Version60.csv,"Version 60","List 60",pasta,,1781,5.72,1884,1782,BOI,-,-,"Please name all of the ways you could use this object. Keep in mind that one object can have many uses. Separate your responses with a comma.",,y,8444,,,1458,7314,,,,"food, noodles, cheeese",1
w10039584_msc,0fziveeqja,"BOI Norms",1,13,2021-04-13T18:32:17-07:00,6.6395971775055,10,"updated stim.csv",Version60.csv,"Version 60","List 60",bookmarker,,1793,4.576923077,277,1794,BOI,-,-,"Please name all of the ways you could use this object. Keep in mind that one object can have many uses. Separate your responses with a comma.",,y,6285,,,1468,5248,,,,"book, marker, reading",1
w10039584_msc,0fziveeqja,"BOI Norms",1,14,2021-04-13T18:32:23-07:00,6.0157508850098,10,"updated stim.csv",Version60.csv,"Version 60","List 60",cork,,1772,5.636363636,642,1773,BOI,-,-,"Please name all of the ways you could use this object. Keep in mind that one object can have many uses. Separate your responses with a comma.",,y,5693,,,4315,4637,,,,fork,1
w10039584_msc,0fziveeqja,"BOI Norms",1,15,2021-04-13T18:32:44-07:00,20.530038118362,10,"updated stim.csv",Version60.csv,"Version 60","List 60",scrotum,,1796,5.291666667,2290,1797,BOI,-,-,"Please name all of the ways you could use this object. Keep in mind that one object can have many uses. Separate your responses with a comma.",,y,20203,,,17728,18038,,,,body,1
w10039584_msc,0fziveeqja,"BOI Norms",1,16,2021-04-13T18:32:54-07:00,10.757855892181,10,"updated stim.csv",Version60.csv,"Version 60","List 60",lounge,,1792,4.714285714,1550,1793,BOI,-,-,"Please name all of the ways you could use this object. Keep in mind that one object can have many uses. Separate your responses with a comma.",,y,10408,,,1881,9348,,,,"relax, couch, sit, lay",1
w10039584_msc,0fziveeqja,"BOI Norms",1,17,2021-04-13T18:33:02-07:00,7.4994039535522,10,"updated stim.csv",Version60.csv,"Version 60","List 60",wingman,,1773,4.391304348,2950,1774,BOI,-,-,"Please name all of the ways you could use this object. Keep in mind that one object can have many uses. Separate your responses with a comma.",,y,7164,,,2281,6113,,,,"person, man, there for you",1
w10039584_msc,0fziveeqja,"BOI Norms",1,18,2021-04-13T18:33:13-07:00,11.579131126404,10,"updated stim.csv",Version60.csv,"Version 60","List 60",woodwind,,1775,4.96,2965,1776,BOI,-,-,"Please name all of the ways you could use this object. Keep in mind that one object can have many uses. Separate your responses with a comma.",,y,11241,,,1903,9348,,,,"instrument, music, class, blow",1
w10039584_msc,0fziveeqja,"BOI Norms",1,19,2021-04-13T18:33:24-07:00,10.356086969376,10,"updated stim.csv",Version60.csv,"Version 60","List 60",bodybuilder,,1790,4.958333333,261,1791,BOI,-,-,"Please name all of the ways you could use this object. Keep in mind that one object can have many uses. Separate your responses with a comma.",,y,10043,,,1791,8353,,,,"strong, exercise, builder, guy",1
w10039584_msc,0fziveeqja,"BOI Norms",1,20,2021-04-13T18:33:32-07:00,7.8771829605103,10,"updated stim.csv",Version60.csv,"Version 60","List 60",souffle,,1797,5.571428571,2453,1798,BOI,-,-,"Please name all of the ways you could use this object. Keep in mind that one object can have many uses. Separate your responses with a comma.",,y,7535,,,2494,6473,,,,"dessert, yummy, food",1
w10039584_msc,0fziveeqja,"BOI Norms",1,21,2021-04-13T18:33:38-07:00,6.3584430217743,10,"updated stim.csv",Version60.csv,"Version 60","List 60",detonator,,1785,4.68,783,1786,BOI,-,-,"Please name all of the ways you could use this object. Keep in mind that one object can have many uses. Separate your responses with a comma.",,y,6091,,,4238,4887,,,,"not sure",1
w10039584_msc,0fziveeqja,"BOI Norms",1,22,2021-04-13T18:33:41-07:00,3.4050579071045,10,"updated stim.csv",Version60.csv,"Version 60","List 60",douche,,1783,4.652173913,832,1784,BOI,-,-,"Please name all of the ways you could use this object. Keep in mind that one object can have many uses. Separate your responses with a comma.",,y,3059,,,1725,1984,,,,food,1
w10039584_msc,0fziveeqja,"BOI Norms",1,23,2021-04-13T18:33:51-07:00,9.4621090888977,10,"updated stim.csv",Version60.csv,"Version 60","List 60",mantle,,1780,4.807692308,1597,1781,BOI,-,-,"Please name all of the ways you could use this object. Keep in mind that one object can have many uses. Separate your responses with a comma.",,y,9129,,,3801,7910,,,,"lay stuff on",1
w10039584_msc,0fziveeqja,"BOI Norms",1,24,2021-04-13T18:33:59-07:00,8.0626020431519,10,"updated stim.csv",Version60.csv,"Version 60","List 60",scraper,,1787,5.12,2283,1788,BOI,-,-,"Please name all of the ways you could use this object. Keep in mind that one object can have many uses. Separate your responses with a comma.",,y,7707,,,6068,6640,,,,remove,1
w10039584_msc,0fziveeqja,"BOI Norms",1,25,2021-04-13T18:34:03-07:00,3.559159040451,10,"updated stim.csv",Version60.csv,"Version 60","List 60",femur,,1779,4.5,961,1780,BOI,-,-,"Please name all of the ways you could use this object. Keep in mind that one object can have many uses. Separate your responses with a comma.",,y,3182,,,1469,2053,,,,"not sure",1
w10039584_msc,0fziveeqja,"BOI Norms",1,26,2021-04-13T18:34:12-07:00,9.4925029277802,10,"updated stim.csv",Version60.csv,"Version 60","List 60",pharmacy,,1776,5.083333333,1939,1777,BOI,-,-,"Please name all of the ways you could use this object. Keep in mind that one object can have many uses. Separate your responses with a comma.",,y,9123,,,2673,6060,,,,"medicane, doctor",1
w10039584_msc,0fziveeqja,"BOI Norms",1,27,2021-04-13T18:34:20-07:00,7.754467010498,10,"updated stim.csv",Version60.csv,"Version 60","List 60",helmet,,1798,6.111111111,1278,1799,BOI,-,-,"Please name all of the ways you could use this object. Keep in mind that one object can have many uses. Separate your responses with a comma.",,y,7445,,,1712,3793,,,,"safety, riding",1
w10039584_msc,0fziveeqja,"BOI Norms",1,28,2021-04-13T18:34:27-07:00,6.8501918315887,10,"updated stim.csv",Version60.csv,"Version 60","List 60",conditioner,,1774,5.130434783,621,1775,BOI,-,-,"Please name all of the ways you could use this object. Keep in mind that one object can have many uses. Separate your responses with a comma.",,y,6532,,,2110,5146,,,,"clean, shower",1
w10039584_msc,0fziveeqja,"BOI Norms",1,29,2021-04-13T18:34:35-07:00,8.5164082050323,10,"updated stim.csv",Version60.csv,"Version 60","List 60",flooring,,1795,4.565217391,1010,1796,BOI,-,-,"Please name all of the ways you could use this object. Keep in mind that one object can have many uses. Separate your responses with a comma.",,y,8198,,,1621,6346,,,,"floor, hard, color",1
w10039584_msc,0fziveeqja,"BOI Norms",1,30,2021-04-13T18:34:43-07:00,8.1839628219604,10,"updated stim.csv",Version60.csv,"Version 60","List 60",omelette,,1771,6.291666667,1808,1772,BOI,-,-,"Please name all of the ways you could use this object. Keep in mind that one object can have many uses. Separate your responses with a comma.",,y,7849,,,1922,5699,,,,"breakfast, food, yummy",1
w10039584_msc,0fziveeqja,"BOI Norms",1,31,2021-04-13T18:34:53-07:00,9.7004280090332,10,"updated stim.csv",Version60.csv,"Version 60","List 60",leaves,,1788,5.846153846,1481,1789,BOI,-,-,"Please name all of the ways you could use this object. Keep in mind that one object can have many uses. Separate your responses with a comma.",,y,9375,,,1442,5461,,,,"outside, green, soft",1
w10039584_msc,0fziveeqja,"BOI Norms",1,32,2021-04-13T18:34:59-07:00,5.7408621311188,10,"updated stim.csv",Version60.csv,"Version 60","List 60",wolfhound,,1789,4.346153846,2954,1790,BOI,-,-,"Please name all of the ways you could use this object. Keep in mind that one object can have many uses. Separate your responses with a comma.",,y,5374,,,2173,2760,,,,animal,1
w10039584_msc,0fziveeqja,"BOI Norms",1,33,2021-04-13T18:35:05-07:00,5.7137689590454,10,"updated stim.csv",Version60.csv,"Version 60","List 60",sundae,,1778,5.96,2585,1779,BOI,-,-,"Please name all of the ways you could use this object. Keep in mind that one object can have many uses. Separate your responses with a comma.",,y,5389,,,1428,3218,,,,dessert,1
w10039584_msc,0fziveeqja,"BOI Norms",1,34,2021-04-13T18:35:11-07:00,6.1535890102386,10,"updated stim.csv",Version60.csv,"Version 60","List 60",visor,,1782,5.041666667,2868,1783,BOI,-,-,"Please name all of the ways you could use this object. Keep in mind that one object can have many uses. Separate your responses with a comma.",,y,5861,,,2140,2360,,,,hat,1
w10039584_msc,0fziveeqja,"BOI Norms",1,35,2021-04-13T18:35:20-07:00,9.5802290439606,10,"updated stim.csv",Version60.csv,"Version 60","List 60",sharpener,,1800,4.785714286,2323,1801,BOI,-,-,"Please name all of the ways you could use this object. Keep in mind that one object can have many uses. Separate your responses with a comma.",,y,9248,,,1652,8119,,,,"pencil, sharp, writing",1
w10039584_msc,0fziveeqja,"BOI Norms",1,36,2021-04-13T18:35:25-07:00,4.9177339076996,10,"updated stim.csv",Version60.csv,"Version 60","List 60",lance,,1794,4.571428571,1459,1795,BOI,-,-,"Please name all of the ways you could use this object. Keep in mind that one object can have many uses. Separate your responses with a comma.",,y,4577,,,1811,2025,,,,idk,1
w10039584_msc,0fziveeqja,"BOI Norms",1,37,2021-04-13T18:35:36-07:00,10.940205097198,10,"updated stim.csv",Version60.csv,"Version 60","List 60",beard,,1777,5.565217391,182,1778,BOI,-,-,"Please name all of the ways you could use this object. Keep in mind that one object can have many uses. Separate your responses with a comma.",,y,10574,,,2317,5919,,,,"face, hair, men",1
w10039584_msc,0fziveeqja,"BOI Norms",1,38,2021-04-13T18:35:42-07:00,5.7035310268402,10,"updated stim.csv",Version60.csv,"Version 60","List 60",pacemaker,,1786,4.363636364,1835,1787,BOI,-,-,"Please name all of the ways you could use this object. Keep in mind that one object can have many uses. Separate your responses with a comma.",,y,5378,,,4096,4524,,,,help,1
w10039584_msc,0fziveeqja,"BOI Norms",1,39,2021-04-13T18:35:47-07:00,5.2451739311218,10,"updated stim.csv",Version60.csv,"Version 60","List 60",spreader,,1799,4.375,2487,1800,BOI,-,-,"Please name all of the ways you could use this object. Keep in mind that one object can have many uses. Separate your responses with a comma.",,y,4917,,,3487,3804,,,,move,1
w10039584_msc,0fziveeqja,"BOI Norms",1,40,2021-04-13T18:36:00-07:00,12.652023077011,10,"updated stim.csv",Version60.csv,"Version 60","List 60",ear,,1791,6.652173913,875,1792,BOI,-,-,"Please name all of the ways you could use this object. Keep in mind that one object can have many uses. Separate your responses with a comma.",,y,12374,,,1984,11377,,,,"body part, roudish",1
w10039584_msc,0fziveeqja,"BOI Norms",1,41,2021-04-13T18:36:03-07:00,2.8806948661804,10,"updated stim.csv",Version60.csv,"Version 60","List 60",,,,,,0,Instruct,,,"You will now be asked a few questions about your experience today.",,"Instruct 4",2536,,,-1,-1,,,,,1
