Username,ID,ExperimentName,Session,Trial,Date,TimeDif,"Condition Number","Stimuli File","Order File","Condition Description","Condition Notes",Stimuli*Cue,Stimuli*Answer,Stimuli*Shuffle,"Stimuli*Stimuli Notes",Stimuli*Value,Procedure*Item,"Procedure*Trial Type","Procedure*Max Time","Procedure*Min Time",Procedure*Text,"Procedure*Procedure Notes",Procedure*Shuffle,Response*RT,Response*Response,Response*Accuracy,Response*RTfirst,Response*RTlast,Response*strictAcc,Response*lenientAcc,Response*focus,Response*JOL,Response*Focus
w10049570_jrb,k3cvfpf0yu,"BOI Norms",1,1,2021-10-30T04:24:25+00:00,14.173559904099,17,"updated stim.csv",Version17.csv,"Version 17","List 17",,,,,,0,Instruct,-,10,"In this section, you will be presented with a series of objects. Please name as many possible uses for this object as you can think of by typing them in the box below each object.",,Instruct1,13916,,,-1,-1,,,,,1
w10049570_jrb,k3cvfpf0yu,"BOI Norms",1,2,2021-10-30T04:24:37+00:00,11.971672058105,17,"updated stim.csv",Version17.csv,"Version 17","List 17",,,,,,0,Instruct,-,10,"Please keep in mind that a single object will have more than one use. For example, a ball can be thrown or can be bounced or even stepped on. When listing multiple uses for one object, please separate each use with a comma (i.e., thrown, bounced, stepped on)",,Instruct2,11331,,,-1,-1,,,,,1
w10049570_jrb,k3cvfpf0yu,"BOI Norms",1,3,2021-10-30T04:24:39+00:00,2.1363599300385,17,"updated stim.csv",Version17.csv,"Version 17","List 17",,,,,,0,Instruct,-,-,"Before starting the experiment, you will complete a short practice sesstion. Press ENTER when you are ready to begin.",,Instruct3,1923,,,-1,-1,,,,,1
w10049570_jrb,k3cvfpf0yu,"BOI Norms",1,4,2021-10-30T04:24:48+00:00,9.0919399261475,17,"updated stim.csv",Version17.csv,"Version 17","List 17",spaghetti,,3003,6,2461,3004,BOI,-,-,"Please name all of the ways you could use this object. Keep in mind that one object can have many uses. Separate your responses with a comma.",,n,8778,,,2321,7433,,,,"Chew, cook",1
w10049570_jrb,k3cvfpf0yu,"BOI Norms",1,5,2021-10-30T04:24:57+00:00,9.136999130249,17,"updated stim.csv",Version17.csv,"Version 17","List 17",grain,,3004,5.217391304,1143,3005,BOI,-,-,"Please name all of the ways you could use this object. Keep in mind that one object can have many uses. Separate your responses with a comma.",,n,8793,,,2495,7519,,,,"Eat, boil, harvest",1
w10049570_jrb,k3cvfpf0yu,"BOI Norms",1,6,2021-10-30T04:25:06+00:00,8.7390558719635,17,"updated stim.csv",Version17.csv,"Version 17","List 17",shortening,,3002,4.92,2358,3003,BOI,-,-,"Please name all of the ways you could use this object. Keep in mind that one object can have many uses. Separate your responses with a comma.",,n,8393,,,2955,7441,,,,"Cook, bake, grease",1
w10049570_jrb,k3cvfpf0yu,"BOI Norms",1,7,2021-10-30T04:25:14+00:00,8.7515690326691,17,"updated stim.csv",Version17.csv,"Version 17","List 17",saucer,,3005,5.777777778,2249,3006,BOI,-,-,"Please name all of the ways you could use this object. Keep in mind that one object can have many uses. Separate your responses with a comma.",,n,8414,,,4091,6848,,,,"Hold, use",1
w10049570_jrb,k3cvfpf0yu,"BOI Norms",1,8,2021-10-30T04:25:24+00:00,9.9252150058746,17,"updated stim.csv",Version17.csv,"Version 17","List 17",paperwork,,3001,5.625,1866,3002,BOI,-,-,"Please name all of the ways you could use this object. Keep in mind that one object can have many uses. Separate your responses with a comma.",,n,9577,,,1851,8673,,,,"File, organize, stack",1
w10049570_jrb,k3cvfpf0yu,"BOI Norms",1,9,2021-10-30T04:25:27+00:00,2.3232419490814,17,"updated stim.csv",Version17.csv,"Version 17","List 17",,,,,,0,Instruct,-,-,"You have completed this section. Press ENTER to continue",,"Instruct 5",2106,,,-1,-1,,,,,1
w10049570_jrb,k3cvfpf0yu,"BOI Norms",1,10,2021-10-30T04:25:29+00:00,1.8938980102539,17,"updated stim.csv",Version17.csv,"Version 17","List 17",,,,,,0,Instruct,-,-,"You will now start the full experiment. Press ENTER when you are ready to begin.",,,1699,,,-1,-1,,,,,1
w10049570_jrb,k3cvfpf0yu,"BOI Norms",1,11,2021-10-30T04:25:53+00:00,24.833359003067,17,"updated stim.csv",Version17.csv,"Version 17","List 17",frame,,502,4.956521739,1053,503,BOI,-,-,"Please name all of the ways you could use this object. Keep in mind that one object can have many uses. Separate your responses with a comma.",,y,24331,,,2974,23248,,,,"Hang, hold",1
w10049570_jrb,k3cvfpf0yu,"BOI Norms",1,12,2021-10-30T04:26:05+00:00,11.949463129044,17,"updated stim.csv",Version17.csv,"Version 17","List 17",leech,,498,4.291666667,1484,499,BOI,-,-,"Please name all of the ways you could use this object. Keep in mind that one object can have many uses. Separate your responses with a comma.",,y,11580,,,3014,9323,,,,"Suck, move ",1
w10049570_jrb,k3cvfpf0yu,"BOI Norms",1,13,2021-10-30T04:26:20+00:00,14.706862926483,17,"updated stim.csv",Version17.csv,"Version 17","List 17",colander,,501,6,598,502,BOI,-,-,"Please name all of the ways you could use this object. Keep in mind that one object can have many uses. Separate your responses with a comma.",,y,14363,,,3405,13481,,,,"Cook, strain, buy, hold, use",1
w10049570_jrb,k3cvfpf0yu,"BOI Norms",1,14,2021-10-30T04:26:37+00:00,17.055071115494,17,"updated stim.csv",Version17.csv,"Version 17","List 17",headphones,,486,6.083333333,1269,487,BOI,-,-,"Please name all of the ways you could use this object. Keep in mind that one object can have many uses. Separate your responses with a comma.",,y,16705,,,2958,15803,,,,"Listen, buy, speak, clean",1
w10049570_jrb,k3cvfpf0yu,"BOI Norms",1,15,2021-10-30T04:26:52+00:00,14.428547859192,17,"updated stim.csv",Version17.csv,"Version 17","List 17",spice,,509,5.125,2470,510,BOI,-,-,"Please name all of the ways you could use this object. Keep in mind that one object can have many uses. Separate your responses with a comma.",,y,14081,,,1855,13238,,,,"Cooking, smelling, baking",1
w10049570_jrb,k3cvfpf0yu,"BOI Norms",1,16,2021-10-30T04:27:04+00:00,11.99750494957,17,"updated stim.csv",Version17.csv,"Version 17","List 17",jacket,,493,6.333333333,1370,494,BOI,-,-,"Please name all of the ways you could use this object. Keep in mind that one object can have many uses. Separate your responses with a comma.",,y,11632,,,1730,10755,,,,"Wear, buy, wash, throw away",1
w10049570_jrb,k3cvfpf0yu,"BOI Norms",1,17,2021-10-30T04:27:13+00:00,9.7007350921631,17,"updated stim.csv",Version17.csv,"Version 17","List 17",sleigh,,507,4.84,2410,508,BOI,-,-,"Please name all of the ways you could use this object. Keep in mind that one object can have many uses. Separate your responses with a comma.",,y,9334,,,1811,6135,,,,"Ride, sit",1
w10049570_jrb,k3cvfpf0yu,"BOI Norms",1,18,2021-10-30T04:27:29+00:00,15.722547054291,17,"updated stim.csv",Version17.csv,"Version 17","List 17",doorknob,,508,6.518518519,824,509,BOI,-,-,"Please name all of the ways you could use this object. Keep in mind that one object can have many uses. Separate your responses with a comma.",,y,15389,,,1823,14356,,,,"Pull, close, open, clean, hold, lock",1
w10049570_jrb,k3cvfpf0yu,"BOI Norms",1,19,2021-10-30T04:27:37+00:00,8.0476129055023,17,"updated stim.csv",Version17.csv,"Version 17","List 17",gingersnap,,488,4.703703704,1106,489,BOI,-,-,"Please name all of the ways you could use this object. Keep in mind that one object can have many uses. Separate your responses with a comma.",,y,7709,,,1758,6187,,,,"Eat, bake, crush",1
w10049570_jrb,k3cvfpf0yu,"BOI Norms",1,20,2021-10-30T04:27:50+00:00,12.8831179142,17,"updated stim.csv",Version17.csv,"Version 17","List 17",bookseller,,483,5,278,484,BOI,-,-,"Please name all of the ways you could use this object. Keep in mind that one object can have many uses. Separate your responses with a comma.",,y,12510,,,3271,10355,,,,"Talk to, listen, sell, read",1
w10049570_jrb,k3cvfpf0yu,"BOI Norms",1,21,2021-10-30T04:28:03+00:00,13.077871084213,17,"updated stim.csv",Version17.csv,"Version 17","List 17",kid,,496,5.68,1414,497,BOI,-,-,"Please name all of the ways you could use this object. Keep in mind that one object can have many uses. Separate your responses with a comma.",,y,12729,,,2179,11306,,,,"Play, listen, learn, love ",1
w10049570_jrb,k3cvfpf0yu,"BOI Norms",1,22,2021-10-30T04:28:22+00:00,19.001410007477,17,"updated stim.csv",Version17.csv,"Version 17","List 17",feline,,494,5.458333333,959,495,BOI,-,-,"Please name all of the ways you could use this object. Keep in mind that one object can have many uses. Separate your responses with a comma.",,y,18219,,,3080,17178,,,,"Run away, scratch, poop, meow, purr",1
w10049570_jrb,k3cvfpf0yu,"BOI Norms",1,23,2021-10-30T04:28:32+00:00,9.9147920608521,17,"updated stim.csv",Version17.csv,"Version 17","List 17",memorabilia,,490,4.434782609,1643,491,BOI,-,-,"Please name all of the ways you could use this object. Keep in mind that one object can have many uses. Separate your responses with a comma.",,y,9559,,,2804,7896,,,,"Sell, buy, use, admire",1
w10049570_jrb,k3cvfpf0yu,"BOI Norms",1,24,2021-10-30T04:28:39+00:00,6.9293069839478,17,"updated stim.csv",Version17.csv,"Version 17","List 17",parka,,481,5.875,1876,482,BOI,-,-,"Please name all of the ways you could use this object. Keep in mind that one object can have many uses. Separate your responses with a comma.",,y,6590,,,2014,5408,,,,"Wear, sell, wash",1
w10049570_jrb,k3cvfpf0yu,"BOI Norms",1,25,2021-10-30T04:29:14+00:00,35.561930894852,17,"updated stim.csv",Version17.csv,"Version 17","List 17",rum,,491,5.64,2206,492,BOI,-,-,"Please name all of the ways you could use this object. Keep in mind that one object can have many uses. Separate your responses with a comma.",,y,10810,,,2728,9521,,,,"Drink, use, bottle ",1
w10049570_jrb,k3cvfpf0yu,"BOI Norms",1,26,2021-10-30T04:29:24+00:00,9.7887392044067,17,"updated stim.csv",Version17.csv,"Version 17","List 17",mincemeat,,504,5.083333333,1662,505,BOI,-,-,"Please name all of the ways you could use this object. Keep in mind that one object can have many uses. Separate your responses with a comma.",,y,9468,,,2367,8453,,,,"Eat, bake, chop, chew",1
w10049570_jrb,k3cvfpf0yu,"BOI Norms",1,27,2021-10-30T04:29:34+00:00,9.4629948139191,17,"updated stim.csv",Version17.csv,"Version 17","List 17",wart,,503,4.56,2894,504,BOI,-,-,"Please name all of the ways you could use this object. Keep in mind that one object can have many uses. Separate your responses with a comma.",,y,9102,,,2120,7323,,,,"Freeze, feel, pick at",1
w10049570_jrb,k3cvfpf0yu,"BOI Norms",1,28,2021-10-30T04:29:41+00:00,7.2718160152435,17,"updated stim.csv",Version17.csv,"Version 17","List 17",bubble,,495,4.64,339,496,BOI,-,-,"Please name all of the ways you could use this object. Keep in mind that one object can have many uses. Separate your responses with a comma.",,y,6936,,,2252,5971,,,,"Blow, pop, chase",1
w10049570_jrb,k3cvfpf0yu,"BOI Norms",1,29,2021-10-30T04:29:54+00:00,12.873512029648,17,"updated stim.csv",Version17.csv,"Version 17","List 17",handbook,,499,5.782608696,1231,500,BOI,-,-,"Please name all of the ways you could use this object. Keep in mind that one object can have many uses. Separate your responses with a comma.",,y,12517,,,2612,11085,,,,"Read, write, memorize, learn",1
w10049570_jrb,k3cvfpf0yu,"BOI Norms",1,30,2021-10-30T04:30:10+00:00,15.8812251091,17,"updated stim.csv",Version17.csv,"Version 17","List 17",nutshell,,500,4.375,1793,501,BOI,-,-,"Please name all of the ways you could use this object. Keep in mind that one object can have many uses. Separate your responses with a comma.",,y,15541,,,3143,14492,,,,"Crack, metaphor, throw away",1
w10049570_jrb,k3cvfpf0yu,"BOI Norms",1,31,2021-10-30T04:30:19+00:00,9.0157339572906,17,"updated stim.csv",Version17.csv,"Version 17","List 17",gearbox,,487,5.041666667,1092,488,BOI,-,-,"Please name all of the ways you could use this object. Keep in mind that one object can have many uses. Separate your responses with a comma.",,y,8667,,,2143,7071,,,,"Hold, use, store",1
w10049570_jrb,k3cvfpf0yu,"BOI Norms",1,32,2021-10-30T04:30:32+00:00,12.808380842209,17,"updated stim.csv",Version17.csv,"Version 17","List 17",aftershave,,505,5.375,18,506,BOI,-,-,"Please name all of the ways you could use this object. Keep in mind that one object can have many uses. Separate your responses with a comma.",,y,12443,,,1734,11442,,,,"Use, smell, rub in",1
w10049570_jrb,k3cvfpf0yu,"BOI Norms",1,33,2021-10-30T04:30:43+00:00,11.513151168823,17,"updated stim.csv",Version17.csv,"Version 17","List 17",kitten,,492,6.4,1428,493,BOI,-,-,"Please name all of the ways you could use this object. Keep in mind that one object can have many uses. Separate your responses with a comma.",,y,11166,,,1659,9893,,,,"Purr, pet, eat, sleep",1
w10049570_jrb,k3cvfpf0yu,"BOI Norms",1,34,2021-10-30T04:30:57+00:00,13.89461684227,17,"updated stim.csv",Version17.csv,"Version 17","List 17",chapel,,497,4.52,494,498,BOI,-,-,"Please name all of the ways you could use this object. Keep in mind that one object can have many uses. Separate your responses with a comma.",,y,13553,,,2604,12568,,,,"Pray, sit, listen, learn, sing",1
w10049570_jrb,k3cvfpf0yu,"BOI Norms",1,35,2021-10-30T04:31:05+00:00,8.3672671318054,17,"updated stim.csv",Version17.csv,"Version 17","List 17",caddy,,489,4.913043478,393,490,BOI,-,-,"Please name all of the ways you could use this object. Keep in mind that one object can have many uses. Separate your responses with a comma.",,y,8027,,,1994,7069,,,,"Hold, carry, store",1
w10049570_jrb,k3cvfpf0yu,"BOI Norms",1,36,2021-10-30T04:31:13+00:00,8.1105198860168,17,"updated stim.csv",Version17.csv,"Version 17","List 17",fingerboard,,506,5.15,978,507,BOI,-,-,"Please name all of the ways you could use this object. Keep in mind that one object can have many uses. Separate your responses with a comma.",,y,7760,,,4594,6760,,,,"Write, use",1
w10049570_jrb,k3cvfpf0yu,"BOI Norms",1,37,2021-10-30T04:31:32+00:00,18.461660146713,17,"updated stim.csv",Version17.csv,"Version 17","List 17",drill,,485,5.739130435,848,486,BOI,-,-,"Please name all of the ways you could use this object. Keep in mind that one object can have many uses. Separate your responses with a comma.",,y,18122,,,1915,15076,,,,"Hold, fix, power on, shut off",1
w10049570_jrb,k3cvfpf0yu,"BOI Norms",1,38,2021-10-30T04:31:51+00:00,19.354380846024,17,"updated stim.csv",Version17.csv,"Version 17","List 17",groom,,482,5,1181,483,BOI,-,-,"Please name all of the ways you could use this object. Keep in mind that one object can have many uses. Separate your responses with a comma.",,y,19009,,,3854,17270,,,,"Marry, dance, smile, dress up, take pictures",1
w10049570_jrb,k3cvfpf0yu,"BOI Norms",1,39,2021-10-30T04:32:06+00:00,15.236268997192,17,"updated stim.csv",Version17.csv,"Version 17","List 17",wastebasket,,484,6.217391304,2904,485,BOI,-,-,"Please name all of the ways you could use this object. Keep in mind that one object can have many uses. Separate your responses with a comma.",,y,14892,,,2491,13834,,,,"Hold, trash, clean, take out",1
w10049570_jrb,k3cvfpf0yu,"BOI Norms",1,40,2021-10-30T04:32:19+00:00,12.47575211525,17,"updated stim.csv",Version17.csv,"Version 17","List 17",washerwoman,,510,4.55,2900,511,BOI,-,-,"Please name all of the ways you could use this object. Keep in mind that one object can have many uses. Separate your responses with a comma.",,y,12133,,,4177,5328,,,,Wash,1
w10049570_jrb,k3cvfpf0yu,"BOI Norms",1,41,2021-10-30T04:32:22+00:00,2.9914169311523,17,"updated stim.csv",Version17.csv,"Version 17","List 17",,,,,,0,Instruct,,,"You will now be asked a few questions about your experience today.",,"Instruct 4",2792,,,-1,-1,,,,,1
