Username,ID,ExperimentName,Session,Trial,Date,TimeDif,"Condition Number","Stimuli File","Order File","Condition Description","Condition Notes",Stimuli*Cue,Stimuli*Answer,Stimuli*Shuffle,"Stimuli*Stimuli Notes",Stimuli*Value,Procedure*Item,"Procedure*Trial Type","Procedure*Max Time","Procedure*Min Time",Procedure*Text,"Procedure*Procedure Notes",Procedure*Shuffle,Response*RT,Response*Response,Response*Accuracy,Response*RTfirst,Response*RTlast,Response*strictAcc,Response*lenientAcc,Response*focus,Response*JOL,Response*Focus
w10018831_ks,kqs5jsrnoq,"BOI Norms",1,1,2021-09-18T11:57:19-07:00,13.07167506218,5,"updated stim.csv",Version55.csv,"Version 55","List 55",,,,,,0,Instruct,-,10,"In this section, you will be presented with a series of objects. Please name as many possible uses for this object as you can think of by typing them in the box below each object.",,Instruct1,11075,,,-1,-1,,,,,1
w10018831_ks,kqs5jsrnoq,"BOI Norms",1,2,2021-09-18T11:57:30-07:00,11.165738105774,5,"updated stim.csv",Version55.csv,"Version 55","List 55",,,,,,0,Instruct,-,10,"Please keep in mind that a single object will have more than one use. For example, a ball can be thrown or can be bounced or even stepped on. When listing multiple uses for one object, please separate each use with a comma (i.e., thrown, bounced, stepped on)",,Instruct2,10732,,,-1,-1,,,,,1
w10018831_ks,kqs5jsrnoq,"BOI Norms",1,3,2021-09-18T11:57:34-07:00,3.6018187999725,5,"updated stim.csv",Version55.csv,"Version 55","List 55",,,,,,0,Instruct,-,-,"Before starting the experiment, you will complete a short practice sesstion. Press ENTER when you are ready to begin.",,Instruct3,3286,,,-1,-1,,,,,1
w10018831_ks,kqs5jsrnoq,"BOI Norms",1,4,2021-09-18T11:57:41-07:00,7.7832870483398,5,"updated stim.csv",Version55.csv,"Version 55","List 55",shortening,,3002,4.92,2358,3003,BOI,-,-,"Please name all of the ways you could use this object. Keep in mind that one object can have many uses. Separate your responses with a comma.",,n,7367,,,-1,-1,,,,,1
w10018831_ks,kqs5jsrnoq,"BOI Norms",1,5,2021-09-18T11:57:50-07:00,8.0525460243225,5,"updated stim.csv",Version55.csv,"Version 55","List 55",grain,,3004,5.217391304,1143,3005,BOI,-,-,"Please name all of the ways you could use this object. Keep in mind that one object can have many uses. Separate your responses with a comma.",,n,7718,,,2001,6579,,,,"eat, facemask",1
w10018831_ks,kqs5jsrnoq,"BOI Norms",1,6,2021-09-18T11:58:03-07:00,13.576895952225,5,"updated stim.csv",Version55.csv,"Version 55","List 55",paperwork,,3001,5.625,1866,3002,BOI,-,-,"Please name all of the ways you could use this object. Keep in mind that one object can have many uses. Separate your responses with a comma.",,n,13259,,,3399,12313,,,,"start, finish, edit, turn in",1
w10018831_ks,kqs5jsrnoq,"BOI Norms",1,7,2021-09-18T11:58:13-07:00,9.7056930065155,5,"updated stim.csv",Version55.csv,"Version 55","List 55",spaghetti,,3003,6,2461,3004,BOI,-,-,"Please name all of the ways you could use this object. Keep in mind that one object can have many uses. Separate your responses with a comma.",,n,7428,,,1646,6408,,,,"eat, toy",1
w10018831_ks,kqs5jsrnoq,"BOI Norms",1,8,2021-09-18T11:58:32-07:00,18.815461158752,5,"updated stim.csv",Version55.csv,"Version 55","List 55",saucer,,3005,5.777777778,2249,3006,BOI,-,-,"Please name all of the ways you could use this object. Keep in mind that one object can have many uses. Separate your responses with a comma.",,n,18494,,,14112,17075,,,,"flying, ",1
w10018831_ks,kqs5jsrnoq,"BOI Norms",1,9,2021-09-18T11:58:43-07:00,11.780495882034,5,"updated stim.csv",Version55.csv,"Version 55","List 55",,,,,,0,Instruct,-,-,"You have completed this section. Press ENTER to continue",,"Instruct 5",9260,,,-1,-1,,,,,1
w10018831_ks,kqs5jsrnoq,"BOI Norms",1,10,2021-09-18T11:58:47-07:00,3.3163740634918,5,"updated stim.csv",Version55.csv,"Version 55","List 55",,,,,,0,Instruct,-,-,"You will now start the full experiment. Press ENTER when you are ready to begin.",,,2563,,,-1,-1,,,,,1
w10018831_ks,kqs5jsrnoq,"BOI Norms",1,11,2021-09-18T11:58:54-07:00,7.4921410083771,5,"updated stim.csv",Version55.csv,"Version 55","List 55",computer,,1627,6.714285714,616,1628,BOI,-,-,"Please name all of the ways you could use this object. Keep in mind that one object can have many uses. Separate your responses with a comma.",,y,6994,,,2868,5161,,,,"use, carry ",1
w10018831_ks,kqs5jsrnoq,"BOI Norms",1,12,2021-09-18T11:59:03-07:00,8.6887140274048,5,"updated stim.csv",Version55.csv,"Version 55","List 55",brandy,,1632,5.64,304,1633,BOI,-,-,"Please name all of the ways you could use this object. Keep in mind that one object can have many uses. Separate your responses with a comma.",,y,8303,,,2034,6695,,,,"drink, pour, lick",1
w10018831_ks,kqs5jsrnoq,"BOI Norms",1,13,2021-09-18T11:59:09-07:00,6.4117510318756,5,"updated stim.csv",Version55.csv,"Version 55","List 55",chowder,,1633,4.96,537,1634,BOI,-,-,"Please name all of the ways you could use this object. Keep in mind that one object can have many uses. Separate your responses with a comma.",,y,6057,,,1684,5005,,,,"eat, play,",1
w10018831_ks,kqs5jsrnoq,"BOI Norms",1,14,2021-09-18T11:59:20-07:00,10.442436933517,5,"updated stim.csv",Version55.csv,"Version 55","List 55",pearl,,1621,5.555555556,1896,1622,BOI,-,-,"Please name all of the ways you could use this object. Keep in mind that one object can have many uses. Separate your responses with a comma.",,y,10042,,,2323,9413,,,,"wear,wash",1
w10018831_ks,kqs5jsrnoq,"BOI Norms",1,15,2021-09-18T11:59:26-07:00,5.7461130619049,5,"updated stim.csv",Version55.csv,"Version 55","List 55",soy,,1647,4.785714286,2457,1648,BOI,-,-,"Please name all of the ways you could use this object. Keep in mind that one object can have many uses. Separate your responses with a comma.",,y,5249,,,2706,4697,,,,"drink,eat",1
w10018831_ks,kqs5jsrnoq,"BOI Norms",1,16,2021-09-18T11:59:30-07:00,4.4253118038177,5,"updated stim.csv",Version55.csv,"Version 55","List 55",steel,,1649,4.884615385,2517,1650,BOI,-,-,"Please name all of the ways you could use this object. Keep in mind that one object can have many uses. Separate your responses with a comma.",,y,4098,,,1711,3855,,,,"wear,create",1
w10018831_ks,kqs5jsrnoq,"BOI Norms",1,17,2021-09-18T11:59:32-07:00,1.7877950668335,5,"updated stim.csv",Version55.csv,"Version 55","List 55",colt,,1650,4.916666667,605,1651,BOI,-,-,"Please name all of the ways you could use this object. Keep in mind that one object can have many uses. Separate your responses with a comma.",,y,1431,,,-1,-1,,,,,1
w10018831_ks,kqs5jsrnoq,"BOI Norms",1,18,2021-09-18T11:59:40-07:00,7.7924790382385,5,"updated stim.csv",Version55.csv,"Version 55","List 55",stairs,,1643,5.88,2501,1644,BOI,-,-,"Please name all of the ways you could use this object. Keep in mind that one object can have many uses. Separate your responses with a comma.",,y,7352,,,1320,7077,,,,"walk on, run on, fall on",1
w10018831_ks,kqs5jsrnoq,"BOI Norms",1,19,2021-09-18T11:59:50-07:00,9.9783420562744,5,"updated stim.csv",Version55.csv,"Version 55","List 55",altar,,1639,4.782608696,30,1640,BOI,-,-,"Please name all of the ways you could use this object. Keep in mind that one object can have many uses. Separate your responses with a comma.",,y,7553,,,2112,7336,,,,"marry, cry, praise",1
w10018831_ks,kqs5jsrnoq,"BOI Norms",1,20,2021-09-18T11:59:52-07:00,2.901960849762,5,"updated stim.csv",Version55.csv,"Version 55","List 55",breeches,,1622,4.666666667,316,1623,BOI,-,-,"Please name all of the ways you could use this object. Keep in mind that one object can have many uses. Separate your responses with a comma.",,y,2551,,,-1,-1,,,,,1
w10018831_ks,kqs5jsrnoq,"BOI Norms",1,21,2021-09-18T12:00:13-07:00,20.359525203705,5,"updated stim.csv",Version55.csv,"Version 55","List 55",customer,,1642,5.541666667,736,1643,BOI,-,-,"Please name all of the ways you could use this object. Keep in mind that one object can have many uses. Separate your responses with a comma.",,y,9665,,,2155,9220,,,,"talk to, serve, listen to",1
w10018831_ks,kqs5jsrnoq,"BOI Norms",1,22,2021-09-18T12:00:20-07:00,7.719144821167,5,"updated stim.csv",Version55.csv,"Version 55","List 55",library,,1629,4.391304348,1499,1630,BOI,-,-,"Please name all of the ways you could use this object. Keep in mind that one object can have many uses. Separate your responses with a comma.",,y,7219,,,1530,6930,,,,"read, computer, print",1
w10018831_ks,kqs5jsrnoq,"BOI Norms",1,23,2021-09-18T12:00:27-07:00,6.8949420452118,5,"updated stim.csv",Version55.csv,"Version 55","List 55",chicken,,1630,5.5,517,1631,BOI,-,-,"Please name all of the ways you could use this object. Keep in mind that one object can have many uses. Separate your responses with a comma.",,y,6507,,,2989,5775,,,,"eat, season",1
w10018831_ks,kqs5jsrnoq,"BOI Norms",1,24,2021-09-18T12:00:39-07:00,11.286417961121,5,"updated stim.csv",Version55.csv,"Version 55","List 55",entertainer,,1623,4.964285714,910,1624,BOI,-,-,"Please name all of the ways you could use this object. Keep in mind that one object can have many uses. Separate your responses with a comma.",,y,10880,,,2135,9441,,,,"listen to, laugh with",1
w10018831_ks,kqs5jsrnoq,"BOI Norms",1,25,2021-09-18T12:00:48-07:00,9.2901680469513,5,"updated stim.csv",Version55.csv,"Version 55","List 55",leash,,1645,5.708333333,1479,1646,BOI,-,-,"Please name all of the ways you could use this object. Keep in mind that one object can have many uses. Separate your responses with a comma.",,y,8913,,,3218,4958,,,,"dog, ",1
w10018831_ks,kqs5jsrnoq,"BOI Norms",1,26,2021-09-18T12:00:49-07:00,1.4262020587921,5,"updated stim.csv",Version55.csv,"Version 55","List 55",shuffleboard,,1646,5.130434783,2370,1647,BOI,-,-,"Please name all of the ways you could use this object. Keep in mind that one object can have many uses. Separate your responses with a comma.",,y,1001,,,-1,-1,,,,,1
w10018831_ks,kqs5jsrnoq,"BOI Norms",1,27,2021-09-18T12:01:01-07:00,11.757881879807,5,"updated stim.csv",Version55.csv,"Version 55","List 55",teammate,,1624,5.074074074,2648,1625,BOI,-,-,"Please name all of the ways you could use this object. Keep in mind that one object can have many uses. Separate your responses with a comma.",,y,9433,,,3128,9142,,,,"play with, play against",1
w10018831_ks,kqs5jsrnoq,"BOI Norms",1,28,2021-09-18T12:01:12-07:00,11.112054109573,5,"updated stim.csv",Version55.csv,"Version 55","List 55",basement,,1637,4.6,159,1638,BOI,-,-,"Please name all of the ways you could use this object. Keep in mind that one object can have many uses. Separate your responses with a comma.",,y,10768,,,1900,9429,,,,"bottom of home, gameroom",1
w10018831_ks,kqs5jsrnoq,"BOI Norms",1,29,2021-09-18T12:01:14-07:00,1.4637498855591,5,"updated stim.csv",Version55.csv,"Version 55","List 55",valve,,1628,4.869565217,2835,1629,BOI,-,-,"Please name all of the ways you could use this object. Keep in mind that one object can have many uses. Separate your responses with a comma.",,y,1149,,,-1,-1,,,,,1
w10018831_ks,kqs5jsrnoq,"BOI Norms",1,30,2021-09-18T12:01:29-07:00,14.882596969604,5,"updated stim.csv",Version55.csv,"Version 55","List 55",dishwater,,1638,5.2,804,1639,BOI,-,-,"Please name all of the ways you could use this object. Keep in mind that one object can have many uses. Separate your responses with a comma.",,y,14568,,,5959,14144,,,,"wash dishes, empty",1
w10018831_ks,kqs5jsrnoq,"BOI Norms",1,31,2021-09-18T12:01:32-07:00,3.7030951976776,5,"updated stim.csv",Version55.csv,"Version 55","List 55",scab,,1631,4.958333333,2258,1632,BOI,-,-,"Please name all of the ways you could use this object. Keep in mind that one object can have many uses. Separate your responses with a comma.",,y,1282,,,-1,-1,,,,,1
w10018831_ks,kqs5jsrnoq,"BOI Norms",1,32,2021-09-18T12:01:39-07:00,6.9416048526764,5,"updated stim.csv",Version55.csv,"Version 55","List 55",stationery,,1644,4.608695652,2511,1645,BOI,-,-,"Please name all of the ways you could use this object. Keep in mind that one object can have many uses. Separate your responses with a comma.",,y,6628,,,2338,6279,,,,"sit, talk, stay",1
w10018831_ks,kqs5jsrnoq,"BOI Norms",1,33,2021-09-18T12:01:41-07:00,1.3397409915924,5,"updated stim.csv",Version55.csv,"Version 55","List 55",rook,,1636,4.772727273,2188,1637,BOI,-,-,"Please name all of the ways you could use this object. Keep in mind that one object can have many uses. Separate your responses with a comma.",,y,1051,,,-1,-1,,,,,1
w10018831_ks,kqs5jsrnoq,"BOI Norms",1,34,2021-09-18T12:01:50-07:00,9.6991989612579,5,"updated stim.csv",Version55.csv,"Version 55","List 55",pouch,,1648,5.178571429,2052,1649,BOI,-,-,"Please name all of the ways you could use this object. Keep in mind that one object can have many uses. Separate your responses with a comma.",,y,9381,,,1895,9099,,,,"hold, carry, move",1
w10018831_ks,kqs5jsrnoq,"BOI Norms",1,35,2021-09-18T12:01:58-07:00,7.6831040382385,5,"updated stim.csv",Version55.csv,"Version 55","List 55",ship,,1635,5.2,2343,1636,BOI,-,-,"Please name all of the ways you could use this object. Keep in mind that one object can have many uses. Separate your responses with a comma.",,y,7345,,,2293,7026,,,,"cruise, dock",1
w10018831_ks,kqs5jsrnoq,"BOI Norms",1,36,2021-09-18T12:02:06-07:00,8.3169980049133,5,"updated stim.csv",Version55.csv,"Version 55","List 55",shrimp,,1625,4.909090909,2366,1626,BOI,-,-,"Please name all of the ways you could use this object. Keep in mind that one object can have many uses. Separate your responses with a comma.",,y,7889,,,1333,7403,,,,"eat, count, peel",1
w10018831_ks,kqs5jsrnoq,"BOI Norms",1,37,2021-09-18T12:02:08-07:00,1.8059501647949,5,"updated stim.csv",Version55.csv,"Version 55","List 55",fawn,,1634,4.535714286,954,1635,BOI,-,-,"Please name all of the ways you could use this object. Keep in mind that one object can have many uses. Separate your responses with a comma.",,y,1440,,,-1,-1,,,,,1
w10018831_ks,kqs5jsrnoq,"BOI Norms",1,38,2021-09-18T12:02:09-07:00,1.1622397899628,5,"updated stim.csv",Version55.csv,"Version 55","List 55",appendage,,1640,5,59,1641,BOI,-,-,"Please name all of the ways you could use this object. Keep in mind that one object can have many uses. Separate your responses with a comma.",,y,839,,,-1,-1,,,,,1
w10018831_ks,kqs5jsrnoq,"BOI Norms",1,39,2021-09-18T12:02:16-07:00,7.2100570201874,5,"updated stim.csv",Version55.csv,"Version 55","List 55",bunion,,1641,4.36,359,1642,BOI,-,-,"Please name all of the ways you could use this object. Keep in mind that one object can have many uses. Separate your responses with a comma.",,y,6921,,,2868,6402,,,,"smell, see",1
w10018831_ks,kqs5jsrnoq,"BOI Norms",1,40,2021-09-18T12:02:18-07:00,1.1834230422974,5,"updated stim.csv",Version55.csv,"Version 55","List 55",frankfurter,,1626,5.708333333,1054,1627,BOI,-,-,"Please name all of the ways you could use this object. Keep in mind that one object can have many uses. Separate your responses with a comma.",,y,854,,,-1,-1,,,,,1
w10018831_ks,kqs5jsrnoq,"BOI Norms",1,41,2021-09-18T12:02:51-07:00,33.435975074768,5,"updated stim.csv",Version55.csv,"Version 55","List 55",,,,,,0,Instruct,,,"You will now be asked a few questions about your experience today.",,"Instruct 4",2870,,,-1,-1,,,,,1
