Username,ID,ExperimentName,Session,Trial,Date,TimeDif,"Condition Number","Stimuli File","Order File","Condition Description","Condition Notes",Stimuli*Cue,Stimuli*Answer,Stimuli*Shuffle,"Stimuli*Stimuli Notes",Stimuli*Value,Procedure*Item,"Procedure*Trial Type","Procedure*Max Time","Procedure*Min Time",Procedure*Text,"Procedure*Procedure Notes",Procedure*Shuffle,Response*RT,Response*Response,Response*Accuracy,Response*RTfirst,Response*RTlast,Response*strictAcc,Response*lenientAcc,Response*focus,Response*JOL,Response*Focus
w10001646,oyu6jgoib9,"BOI Norms",1,1,2021-04-15T15:08:19-07:00,11.642340898514,19,"updated stim.csv",Version69.csv,"Version 69","List 69",,,,,,0,Instruct,-,10,"In this section, you will be presented with a series of objects. Please name as many possible uses for this object as you can think of by typing them in the box below each object.",,Instruct1,11340,,,-1,-1,,,,,1
w10001646,oyu6jgoib9,"BOI Norms",1,2,2021-04-15T15:08:33-07:00,14.033689022064,19,"updated stim.csv",Version69.csv,"Version 69","List 69",,,,,,0,Instruct,-,10,"Please keep in mind that a single object will have more than one use. For example, a ball can be thrown or can be bounced or even stepped on. When listing multiple uses for one object, please separate each use with a comma (i.e., thrown, bounced, stepped on)",,Instruct2,13573,,,-1,-1,,,,,1
w10001646,oyu6jgoib9,"BOI Norms",1,3,2021-04-15T15:08:36-07:00,2.508199930191,19,"updated stim.csv",Version69.csv,"Version 69","List 69",,,,,,0,Instruct,-,-,"Before starting the experiment, you will complete a short practice sesstion. Press ENTER when you are ready to begin.",,Instruct3,2158,,,-1,-1,,,,,1
w10001646,oyu6jgoib9,"BOI Norms",1,4,2021-04-15T15:09:40-07:00,64.427828073502,19,"updated stim.csv",Version69.csv,"Version 69","List 69",shortening,,3002,4.92,2358,3003,BOI,-,-,"Please name all of the ways you could use this object. Keep in mind that one object can have many uses. Separate your responses with a comma.",,n,63938,,,2672,61764,,,,"baking, making fit, quicker route, frying meat in, ",1
w10001646,oyu6jgoib9,"BOI Norms",1,5,2021-04-15T15:10:35-07:00,55.095122098923,19,"updated stim.csv",Version69.csv,"Version 69","List 69",paperwork,,3001,5.625,1866,3002,BOI,-,-,"Please name all of the ways you could use this object. Keep in mind that one object can have many uses. Separate your responses with a comma.",,n,54629,,,6863,51216,,,,"data, reports, keep track of things, legal purposes, school work, applications, getting jobs, portfolio, ",1
w10001646,oyu6jgoib9,"BOI Norms",1,6,2021-04-15T15:11:18-07:00,42.718055963516,19,"updated stim.csv",Version69.csv,"Version 69","List 69",saucer,,3005,5.777777778,2249,3006,BOI,-,-,"Please name all of the ways you could use this object. Keep in mind that one object can have many uses. Separate your responses with a comma.",,n,42225,,,3128,40712,,,,"eat off of, catch water under plant, throw like a frisby, make artwork out of, ufo, ",1
w10001646,oyu6jgoib9,"BOI Norms",1,7,2021-04-15T15:11:48-07:00,30.185466051102,19,"updated stim.csv",Version69.csv,"Version 69","List 69",grain,,3004,5.217391304,1143,3005,BOI,-,-,"Please name all of the ways you could use this object. Keep in mind that one object can have many uses. Separate your responses with a comma.",,n,29679,,,2529,26399,,,,"plant, grow, wheat, eat, small amount such as grain of salt, ",1
w10001646,oyu6jgoib9,"BOI Norms",1,8,2021-04-15T15:12:07-07:00,19.250522851944,19,"updated stim.csv",Version69.csv,"Version 69","List 69",spaghetti,,3003,6,2461,3004,BOI,-,-,"Please name all of the ways you could use this object. Keep in mind that one object can have many uses. Separate your responses with a comma.",,n,18751,,,2426,14856,,,,"eat, throw, cut, cover in sauce, serve, order, ",1
w10001646,oyu6jgoib9,"BOI Norms",1,9,2021-04-15T15:12:09-07:00,1.5914440155029,19,"updated stim.csv",Version69.csv,"Version 69","List 69",,,,,,0,Instruct,-,-,"You have completed this section. Press ENTER to continue",,"Instruct 5",1272,,,-1,-1,,,,,1
w10001646,oyu6jgoib9,"BOI Norms",1,10,2021-04-15T15:12:10-07:00,1.5218889713287,19,"updated stim.csv",Version69.csv,"Version 69","List 69",,,,,,0,Instruct,-,-,"You will now start the full experiment. Press ENTER when you are ready to begin.",,,1190,,,-1,-1,,,,,1
w10001646,oyu6jgoib9,"BOI Norms",1,11,2021-04-15T15:12:50-07:00,39.985938072205,19,"updated stim.csv",Version69.csv,"Version 69","List 69",home,,2058,5.434782609,1299,2059,BOI,-,-,"Please name all of the ways you could use this object. Keep in mind that one object can have many uses. Separate your responses with a comma.",,y,39527,,,2579,38038,,,,"sleep, eat, relax, travel home, give tour, work from home, ",1
w10001646,oyu6jgoib9,"BOI Norms",1,12,2021-04-15T15:13:13-07:00,22.689295053482,19,"updated stim.csv",Version69.csv,"Version 69","List 69",crop,,2050,4.833333333,700,2051,BOI,-,-,"Please name all of the ways you could use this object. Keep in mind that one object can have many uses. Separate your responses with a comma.",,y,22182,,,7321,20517,,,,"grow, cut, plant, fertilize",1
w10001646,oyu6jgoib9,"BOI Norms",1,13,2021-04-15T15:13:25-07:00,11.81082201004,19,"updated stim.csv",Version69.csv,"Version 69","List 69",neckerchief,,2051,5.347826087,1740,2052,BOI,-,-,"Please name all of the ways you could use this object. Keep in mind that one object can have many uses. Separate your responses with a comma.",,y,11390,,,4103,10115,,,,"I don't know what this is",1
w10001646,oyu6jgoib9,"BOI Norms",1,14,2021-04-15T15:13:50-07:00,24.948832988739,19,"updated stim.csv",Version69.csv,"Version 69","List 69",mascara,,2057,5.703703704,1612,2058,BOI,-,-,"Please name all of the ways you could use this object. Keep in mind that one object can have many uses. Separate your responses with a comma.",,y,24563,,,3832,22277,,,,"wear, darken hair, paint on, ",1
w10001646,oyu6jgoib9,"BOI Norms",1,15,2021-04-15T15:14:06-07:00,16.387487888336,19,"updated stim.csv",Version69.csv,"Version 69","List 69",rubbish,,2049,4.666666667,2201,2050,BOI,-,-,"Please name all of the ways you could use this object. Keep in mind that one object can have many uses. Separate your responses with a comma.",,y,15917,,,2618,9881,,,,"throw away, slang word, ",1
w10001646,oyu6jgoib9,"BOI Norms",1,16,2021-04-15T15:14:14-07:00,7.6371440887451,19,"updated stim.csv",Version69.csv,"Version 69","List 69",cuff,,2067,5.333333333,724,2068,BOI,-,-,"Please name all of the ways you could use this object. Keep in mind that one object can have many uses. Separate your responses with a comma.",,y,7305,,,1988,6082,,,,"roll up, button",1
w10001646,oyu6jgoib9,"BOI Norms",1,17,2021-04-15T15:14:35-07:00,21.128037929535,19,"updated stim.csv",Version69.csv,"Version 69","List 69",cape,,2053,5.416666667,424,2054,BOI,-,-,"Please name all of the ways you could use this object. Keep in mind that one object can have many uses. Separate your responses with a comma.",,y,20735,,,4885,14519,,,,"wear on shoulders, cover up with it, ",1
w10001646,oyu6jgoib9,"BOI Norms",1,18,2021-04-15T15:14:56-07:00,20.811300992966,19,"updated stim.csv",Version69.csv,"Version 69","List 69",medicine,,2063,5.692307692,1638,2064,BOI,-,-,"Please name all of the ways you could use this object. Keep in mind that one object can have many uses. Separate your responses with a comma.",,y,20380,,,5178,19125,,,,"take orally, inject, drops ",1
w10001646,oyu6jgoib9,"BOI Norms",1,19,2021-04-15T15:15:09-07:00,13.687652111053,19,"updated stim.csv",Version69.csv,"Version 69","List 69",battery,,2061,4.8,172,2062,BOI,-,-,"Please name all of the ways you could use this object. Keep in mind that one object can have many uses. Separate your responses with a comma.",,y,13299,,,4320,12079,,,,"throw away, recharge, replace ",1
w10001646,oyu6jgoib9,"BOI Norms",1,20,2021-04-15T15:15:20-07:00,10.81084895134,19,"updated stim.csv",Version69.csv,"Version 69","List 69",phone,,2046,6.5,1940,2047,BOI,-,-,"Please name all of the ways you could use this object. Keep in mind that one object can have many uses. Separate your responses with a comma.",,y,10416,,,1717,9104,,,,"charge, answer, mute, hang up",1
w10001646,oyu6jgoib9,"BOI Norms",1,21,2021-04-15T15:15:26-07:00,5.5366520881653,19,"updated stim.csv",Version69.csv,"Version 69","List 69",masseur,,2068,5.6,1615,2069,BOI,-,-,"Please name all of the ways you could use this object. Keep in mind that one object can have many uses. Separate your responses with a comma.",,y,5103,,,3703,3703,,,,?,1
w10001646,oyu6jgoib9,"BOI Norms",1,22,2021-04-15T15:15:45-07:00,19.386900901794,19,"updated stim.csv",Version69.csv,"Version 69","List 69",bunk,,2066,4.260869565,360,2067,BOI,-,-,"Please name all of the ways you could use this object. Keep in mind that one object can have many uses. Separate your responses with a comma.",,y,18999,,,2852,17812,,,,"lay on, sleep in, sit on, read on, play on ",1
w10001646,oyu6jgoib9,"BOI Norms",1,23,2021-04-15T15:15:51-07:00,5.4684131145477,19,"updated stim.csv",Version69.csv,"Version 69","List 69",nightie,,2042,5.62962963,1771,2043,BOI,-,-,"Please name all of the ways you could use this object. Keep in mind that one object can have many uses. Separate your responses with a comma.",,y,5089,,,2171,3727,,,,"wear, wash",1
w10001646,oyu6jgoib9,"BOI Norms",1,24,2021-04-15T15:16:06-07:00,15.566942930222,19,"updated stim.csv",Version69.csv,"Version 69","List 69",moonshine,,2064,5.260869565,1682,2065,BOI,-,-,"Please name all of the ways you could use this object. Keep in mind that one object can have many uses. Separate your responses with a comma.",,y,15006,,,2181,13576,,,,"drink, throw away, pour out, start a fire, run an engine",1
w10001646,oyu6jgoib9,"BOI Norms",1,25,2021-04-15T15:16:29-07:00,22.842396020889,19,"updated stim.csv",Version69.csv,"Version 69","List 69",sponge,,2069,6.5,2480,2070,BOI,-,-,"Please name all of the ways you could use this object. Keep in mind that one object can have many uses. Separate your responses with a comma.",,y,22467,,,4944,20499,,,,"wipe down counters, clean dishes, use for painting",1
w10001646,oyu6jgoib9,"BOI Norms",1,26,2021-04-15T15:16:39-07:00,10.285830020905,19,"updated stim.csv",Version69.csv,"Version 69","List 69",snack,,2043,6.142857143,2425,2044,BOI,-,-,"Please name all of the ways you could use this object. Keep in mind that one object can have many uses. Separate your responses with a comma.",,y,9907,,,1189,7775,,,,"eat, skip, ",1
w10001646,oyu6jgoib9,"BOI Norms",1,27,2021-04-15T15:16:57-07:00,17.170135974884,19,"updated stim.csv",Version69.csv,"Version 69","List 69",armoire,,2041,4.904761905,73,2042,BOI,-,-,"Please name all of the ways you could use this object. Keep in mind that one object can have many uses. Separate your responses with a comma.",,y,16683,,,2498,14520,,,,"place clothes in, on, or hang up ",1
w10001646,oyu6jgoib9,"BOI Norms",1,28,2021-04-15T15:17:07-07:00,10.796676874161,19,"updated stim.csv",Version69.csv,"Version 69","List 69",firecracker,,2047,4.916666667,985,2048,BOI,-,-,"Please name all of the ways you could use this object. Keep in mind that one object can have many uses. Separate your responses with a comma.",,y,10369,,,2664,8917,,,,"light, throw, hold, ",1
w10001646,oyu6jgoib9,"BOI Norms",1,29,2021-04-15T15:17:15-07:00,8.0394480228424,19,"updated stim.csv",Version69.csv,"Version 69","List 69",medallion,,2059,5.541666667,1635,2060,BOI,-,-,"Please name all of the ways you could use this object. Keep in mind that one object can have many uses. Separate your responses with a comma.",,y,7525,,,2177,5650,,,,"wear, hold, ",1
w10001646,oyu6jgoib9,"BOI Norms",1,30,2021-04-15T15:17:25-07:00,9.5938291549683,19,"updated stim.csv",Version69.csv,"Version 69","List 69",farmhouse,,2055,5.068965517,949,2056,BOI,-,-,"Please name all of the ways you could use this object. Keep in mind that one object can have many uses. Separate your responses with a comma.",,y,9208,,,3822,7283,,,,"live in, sale",1
w10001646,oyu6jgoib9,"BOI Norms",1,31,2021-04-15T15:17:36-07:00,11.036943912506,19,"updated stim.csv",Version69.csv,"Version 69","List 69",candidate,,2056,4.739130435,409,2057,BOI,-,-,"Please name all of the ways you could use this object. Keep in mind that one object can have many uses. Separate your responses with a comma.",,y,10636,,,3789,7529,,,,"runner up, winner, ",1
w10001646,oyu6jgoib9,"BOI Norms",1,32,2021-04-15T15:17:53-07:00,16.684767007828,19,"updated stim.csv",Version69.csv,"Version 69","List 69",foot,,2060,6,1029,2061,BOI,-,-,"Please name all of the ways you could use this object. Keep in mind that one object can have many uses. Separate your responses with a comma.",,y,16265,,,1955,15044,,,,"walk on, put shoes on, cut off, kick",1
w10001646,oyu6jgoib9,"BOI Norms",1,33,2021-04-15T15:18:10-07:00,17.226458072662,19,"updated stim.csv",Version69.csv,"Version 69","List 69",bleach,,2065,5.32,234,2066,BOI,-,-,"Please name all of the ways you could use this object. Keep in mind that one object can have many uses. Separate your responses with a comma.",,y,16834,,,2810,15317,,,,"wash clothes, clean tubs, dye clothes",1
w10001646,oyu6jgoib9,"BOI Norms",1,34,2021-04-15T15:18:18-07:00,8.5044569969177,19,"updated stim.csv",Version69.csv,"Version 69","List 69",lily,,2052,4.884615385,1510,2053,BOI,-,-,"Please name all of the ways you could use this object. Keep in mind that one object can have many uses. Separate your responses with a comma.",,y,8128,,,1546,6885,,,,"smell, pick, plant",1
w10001646,oyu6jgoib9,"BOI Norms",1,35,2021-04-15T15:18:34-07:00,15.170167922974,19,"updated stim.csv",Version69.csv,"Version 69","List 69",cheekbone,,2045,4.88,504,2046,BOI,-,-,"Please name all of the ways you could use this object. Keep in mind that one object can have many uses. Separate your responses with a comma.",,y,14639,,,3063,13286,,,,"put blush on, touch, scratch",1
w10001646,oyu6jgoib9,"BOI Norms",1,36,2021-04-15T15:18:43-07:00,9.8134088516235,19,"updated stim.csv",Version69.csv,"Version 69","List 69",radiator,,2054,5.217391304,2121,2055,BOI,-,-,"Please name all of the ways you could use this object. Keep in mind that one object can have many uses. Separate your responses with a comma.",,y,9394,,,3097,8040,,,,"turn on, put water in ",1
w10001646,oyu6jgoib9,"BOI Norms",1,37,2021-04-15T15:18:58-07:00,14.583030223846,19,"updated stim.csv",Version69.csv,"Version 69","List 69",cloth,,2070,5.961538462,568,2071,BOI,-,-,"Please name all of the ways you could use this object. Keep in mind that one object can have many uses. Separate your responses with a comma.",,y,14107,,,2307,12668,,,,"wear, wash, throw, pick up, sew",1
w10001646,oyu6jgoib9,"BOI Norms",1,38,2021-04-15T15:19:13-07:00,14.597012996674,19,"updated stim.csv",Version69.csv,"Version 69","List 69",thimble,,2048,5.347826087,2681,2049,BOI,-,-,"Please name all of the ways you could use this object. Keep in mind that one object can have many uses. Separate your responses with a comma.",,y,14043,,,4308,10986,,,,"place on thumb, throw, ",1
w10001646,oyu6jgoib9,"BOI Norms",1,39,2021-04-15T15:19:24-07:00,11.688965797424,19,"updated stim.csv",Version69.csv,"Version 69","List 69",brace,,2062,5.04,299,2063,BOI,-,-,"Please name all of the ways you could use this object. Keep in mind that one object can have many uses. Separate your responses with a comma.",,y,11264,,,3831,6819,,,,"lean on , wear, ",1
w10001646,oyu6jgoib9,"BOI Norms",1,40,2021-04-15T15:19:35-07:00,10.705222129822,19,"updated stim.csv",Version69.csv,"Version 69","List 69",kite,,2044,5.8,1427,2045,BOI,-,-,"Please name all of the ways you could use this object. Keep in mind that one object can have many uses. Separate your responses with a comma.",,y,10317,,,1622,4156,,,,"fly, crash, ",1
w10001646,oyu6jgoib9,"BOI Norms",1,41,2021-04-15T15:19:37-07:00,1.6233570575714,19,"updated stim.csv",Version69.csv,"Version 69","List 69",,,,,,0,Instruct,,,"You will now be asked a few questions about your experience today.",,"Instruct 4",1217,,,-1,-1,,,,,1
