Username,ID,ExperimentName,Session,Trial,Date,TimeDif,"Condition Number","Stimuli File","Order File","Condition Description","Condition Notes",Stimuli*Cue,Stimuli*Answer,Stimuli*Shuffle,"Stimuli*Stimuli Notes",Stimuli*Value,Procedure*Item,"Procedure*Trial Type","Procedure*Max Time","Procedure*Min Time",Procedure*Text,"Procedure*Procedure Notes",Procedure*Shuffle,Response*RT,Response*Response,Response*Accuracy,Response*RTfirst,Response*RTlast,Response*strictAcc,Response*lenientAcc,Response*focus,Response*JOL,Response*Focus
w10078459FM,6qzwni4sgu,"BOI Norms",1,1,2021-10-26T21:52:16+00:00,17.176951885223,6,"updated stim.csv",Version6.csv,"Version 6","List 6",,,,,,0,Instruct,-,10,"In this section, you will be presented with a series of objects. Please name as many possible uses for this object as you can think of by typing them in the box below each object.",,Instruct1,15805,,,-1,-1,,,,,1
w10078459FM,6qzwni4sgu,"BOI Norms",1,2,2021-10-26T21:52:36+00:00,19.319271087646,6,"updated stim.csv",Version6.csv,"Version 6","List 6",,,,,,0,Instruct,-,10,"Please keep in mind that a single object will have more than one use. For example, a ball can be thrown or can be bounced or even stepped on. When listing multiple uses for one object, please separate each use with a comma (i.e., thrown, bounced, stepped on)",,Instruct2,18738,,,-1,-1,,,,,1
w10078459FM,6qzwni4sgu,"BOI Norms",1,3,2021-10-26T21:52:49+00:00,13.156508922577,6,"updated stim.csv",Version6.csv,"Version 6","List 6",,,,,,0,Instruct,-,-,"Before starting the experiment, you will complete a short practice sesstion. Press ENTER when you are ready to begin.",,Instruct3,12749,,,-1,-1,,,,,1
w10078459FM,6qzwni4sgu,"BOI Norms",1,4,2021-10-26T21:54:24+00:00,94.919743061066,6,"updated stim.csv",Version6.csv,"Version 6","List 6",paperwork,,3001,5.625,1866,3002,BOI,-,-,"Please name all of the ways you could use this object. Keep in mind that one object can have many uses. Separate your responses with a comma.",,n,94435,,,73156,93620,,,,"Storage, keep information, document, records",1
w10078459FM,6qzwni4sgu,"BOI Norms",1,5,2021-10-26T21:56:10+00:00,106.35793495178,6,"updated stim.csv",Version6.csv,"Version 6","List 6",spaghetti,,3003,6,2461,3004,BOI,-,-,"Please name all of the ways you could use this object. Keep in mind that one object can have many uses. Separate your responses with a comma.",,n,105517,,,32526,34272,,,,Eat,0.991
w10078459FM,6qzwni4sgu,"BOI Norms",1,6,2021-10-26T21:57:25+00:00,74.616600036621,6,"updated stim.csv",Version6.csv,"Version 6","List 6",grain,,3004,5.217391304,1143,3005,BOI,-,-,"Please name all of the ways you could use this object. Keep in mind that one object can have many uses. Separate your responses with a comma.",,n,73656,,,2288,72025,,,,"Feed animals, use to cook, medicinal purposes ",1
w10078459FM,6qzwni4sgu,"BOI Norms",1,7,2021-10-26T21:57:38+00:00,12.801100969315,6,"updated stim.csv",Version6.csv,"Version 6","List 6",shortening,,3002,4.92,2358,3003,BOI,-,-,"Please name all of the ways you could use this object. Keep in mind that one object can have many uses. Separate your responses with a comma.",,n,12220,,,10136,11806,,,,Length,1
w10078459FM,6qzwni4sgu,"BOI Norms",1,8,2021-10-26T21:58:45+00:00,67.510480880737,6,"updated stim.csv",Version6.csv,"Version 6","List 6",saucer,,3005,5.777777778,2249,3006,BOI,-,-,"Please name all of the ways you could use this object. Keep in mind that one object can have many uses. Separate your responses with a comma.",,n,67122,,,1998,65834,,,,"Eat, cook, protect surfaces, catch overflow, holds cup",1
w10078459FM,6qzwni4sgu,"BOI Norms",1,9,2021-10-26T21:59:09+00:00,23.963833093643,6,"updated stim.csv",Version6.csv,"Version 6","List 6",,,,,,0,Instruct,-,-,"You have completed this section. Press ENTER to continue",,"Instruct 5",23582,,,-1,-1,,,,,1
w10078459FM,6qzwni4sgu,"BOI Norms",1,10,2021-10-26T21:59:17+00:00,8.3349211215973,6,"updated stim.csv",Version6.csv,"Version 6","List 6",,,,,,0,Instruct,-,-,"You will now start the full experiment. Press ENTER when you are ready to begin.",,,7946,,,-1,-1,,,,,1
w10078459FM,6qzwni4sgu,"BOI Norms",1,11,2021-10-26T21:59:22+00:00,4.578136920929,6,"updated stim.csv",Version6.csv,"Version 6","List 6",tofu,,180,5.555555556,2717,181,BOI,-,-,"Please name all of the ways you could use this object. Keep in mind that one object can have many uses. Separate your responses with a comma.",,y,4186,,,2574,3118,,,,Eat,1
w10078459FM,6qzwni4sgu,"BOI Norms",1,12,2021-10-26T22:00:02+00:00,40.168776035309,6,"updated stim.csv",Version6.csv,"Version 6","List 6",chronograph,,154,4.684210526,538,155,BOI,-,-,"Please name all of the ways you could use this object. Keep in mind that one object can have many uses. Separate your responses with a comma.",,y,39734,,,30976,38052,,,,"Measure time ",1
w10078459FM,6qzwni4sgu,"BOI Norms",1,13,2021-10-26T22:00:46+00:00,44.19378900528,6,"updated stim.csv",Version6.csv,"Version 6","List 6",chinaware,,158,5.913043478,527,159,BOI,-,-,"Please name all of the ways you could use this object. Keep in mind that one object can have many uses. Separate your responses with a comma.",,y,43751,,,15487,43038,,,,"Tableware,decoration, insulators",1
w10078459FM,6qzwni4sgu,"BOI Norms",1,14,2021-10-26T22:01:19+00:00,32.373571872711,6,"updated stim.csv",Version6.csv,"Version 6","List 6",pilaf,,157,4.7,1959,158,BOI,-,-,"Please name all of the ways you could use this object. Keep in mind that one object can have many uses. Separate your responses with a comma.",,y,31793,,,30680,31152,,,,Eat,1
w10078459FM,6qzwni4sgu,"BOI Norms",1,15,2021-10-26T22:01:34+00:00,15.449018955231,6,"updated stim.csv",Version6.csv,"Version 6","List 6",van,,163,6.28,2836,164,BOI,-,-,"Please name all of the ways you could use this object. Keep in mind that one object can have many uses. Separate your responses with a comma.",,y,15071,,,12120,13451,,,,"Transportation ",1
w10078459FM,6qzwni4sgu,"BOI Norms",1,16,2021-10-26T22:01:52+00:00,17.75696516037,6,"updated stim.csv",Version6.csv,"Version 6","List 6",footballer,,165,5.041666667,1031,166,BOI,-,-,"Please name all of the ways you could use this object. Keep in mind that one object can have many uses. Separate your responses with a comma.",,y,17189,,,3169,13546,,,,"Tackle, run, hit, catch",1
w10078459FM,6qzwni4sgu,"BOI Norms",1,17,2021-10-26T22:02:42+00:00,49.628486871719,6,"updated stim.csv",Version6.csv,"Version 6","List 6",ginger,,178,5.32,1104,179,BOI,-,-,"Please name all of the ways you could use this object. Keep in mind that one object can have many uses. Separate your responses with a comma.",,y,48543,,,8269,47546,,,,"Cook, hair products, medicine",1
w10078459FM,6qzwni4sgu,"BOI Norms",1,18,2021-10-26T22:02:54+00:00,12.605353116989,6,"updated stim.csv",Version6.csv,"Version 6","List 6",harvest,,168,4.464285714,1256,169,BOI,-,-,"Please name all of the ways you could use this object. Keep in mind that one object can have many uses. Separate your responses with a comma.",,y,12087,,,6475,11675,,,,"Keep, store",1
w10078459FM,6qzwni4sgu,"BOI Norms",1,19,2021-10-26T22:03:38+00:00,44.13392496109,6,"updated stim.csv",Version6.csv,"Version 6","List 6",whisky,,174,5.857142857,2931,175,BOI,-,-,"Please name all of the ways you could use this object. Keep in mind that one object can have many uses. Separate your responses with a comma.",,y,43743,,,39132,42552,,,,"Drink, medicine ",1
w10078459FM,6qzwni4sgu,"BOI Norms",1,20,2021-10-26T22:04:04+00:00,25.757925033569,6,"updated stim.csv",Version6.csv,"Version 6","List 6",tinfoil,,155,5.458333333,2703,156,BOI,-,-,"Please name all of the ways you could use this object. Keep in mind that one object can have many uses. Separate your responses with a comma.",,y,25386,,,14098,24667,,,,"Cover food,store food",1
w10078459FM,6qzwni4sgu,"BOI Norms",1,21,2021-10-26T22:04:53+00:00,48.570994853973,6,"updated stim.csv",Version6.csv,"Version 6","List 6",physician,,161,5.12,1945,162,BOI,-,-,"Please name all of the ways you could use this object. Keep in mind that one object can have many uses. Separate your responses with a comma.",,y,48214,,,27026,46678,,,,"Promote, maintain, restore health ",1
w10078459FM,6qzwni4sgu,"BOI Norms",1,22,2021-10-26T22:05:30+00:00,37.336589097977,6,"updated stim.csv",Version6.csv,"Version 6","List 6",myself,,162,5.038461538,1731,163,BOI,-,-,"Please name all of the ways you could use this object. Keep in mind that one object can have many uses. Separate your responses with a comma.",,y,36993,,,19614,32663,,,,"Cook, clean, stay healthy",1
w10078459FM,6qzwni4sgu,"BOI Norms",1,23,2021-10-26T22:05:41+00:00,11.175942897797,6,"updated stim.csv",Version6.csv,"Version 6","List 6",snowfall,,166,4.347826087,2433,167,BOI,-,-,"Please name all of the ways you could use this object. Keep in mind that one object can have many uses. Separate your responses with a comma.",,y,10778,,,7526,9987,,,,Slide,1
w10078459FM,6qzwni4sgu,"BOI Norms",1,24,2021-10-26T22:06:27+00:00,46.357460021973,6,"updated stim.csv",Version6.csv,"Version 6","List 6",crystal,,170,4.37037037,720,171,BOI,-,-,"Please name all of the ways you could use this object. Keep in mind that one object can have many uses. Separate your responses with a comma.",,y,45959,,,38153,43050,,,,"Promote energy",1
w10078459FM,6qzwni4sgu,"BOI Norms",1,25,2021-10-26T22:07:05+00:00,38.04424905777,6,"updated stim.csv",Version6.csv,"Version 6","List 6",canvass,,177,4.347826087,421,178,BOI,-,-,"Please name all of the ways you could use this object. Keep in mind that one object can have many uses. Separate your responses with a comma.",,y,37641,,,21647,33988,,,,"Tally votes, account votes",1
w10078459FM,6qzwni4sgu,"BOI Norms",1,26,2021-10-26T22:07:30+00:00,24.188832044601,6,"updated stim.csv",Version6.csv,"Version 6","List 6",bird,,171,4.896551724,220,172,BOI,-,-,"Please name all of the ways you could use this object. Keep in mind that one object can have many uses. Separate your responses with a comma.",,y,23444,,,16313,17592,,,,Feed,1
w10078459FM,6qzwni4sgu,"BOI Norms",1,27,2021-10-26T22:07:50+00:00,20.359401941299,6,"updated stim.csv",Version6.csv,"Version 6","List 6",negligee,,172,4.75,1749,173,BOI,-,-,"Please name all of the ways you could use this object. Keep in mind that one object can have many uses. Separate your responses with a comma.",,y,19763,,,14111,14708,,,,Wear,1
w10078459FM,6qzwni4sgu,"BOI Norms",1,28,2021-10-26T22:08:10+00:00,19.92779302597,6,"updated stim.csv",Version6.csv,"Version 6","List 6",screw,,152,5.708333333,2286,153,BOI,-,-,"Please name all of the ways you could use this object. Keep in mind that one object can have many uses. Separate your responses with a comma.",,y,19550,,,5560,10766,,,,"Hold things in place",1
w10078459FM,6qzwni4sgu,"BOI Norms",1,29,2021-10-26T22:08:39+00:00,28.974599123001,6,"updated stim.csv",Version6.csv,"Version 6","List 6",tabasco,,173,5.260869565,2615,174,BOI,-,-,"Please name all of the ways you could use this object. Keep in mind that one object can have many uses. Separate your responses with a comma.",,y,28577,,,18831,22370,,,,"Add flavor",1
w10078459FM,6qzwni4sgu,"BOI Norms",1,30,2021-10-26T22:09:21+00:00,41.552670001984,6,"updated stim.csv",Version6.csv,"Version 6","List 6",family,,153,5.291666667,944,154,BOI,-,-,"Please name all of the ways you could use this object. Keep in mind that one object can have many uses. Separate your responses with a comma.",,y,41160,,,15871,39096,,,,"Provide, continuation of society ",1
w10078459FM,6qzwni4sgu,"BOI Norms",1,31,2021-10-26T22:09:39+00:00,18.054397821426,6,"updated stim.csv",Version6.csv,"Version 6","List 6",bathe,,156,5.214285714,168,157,BOI,-,-,"Please name all of the ways you could use this object. Keep in mind that one object can have many uses. Separate your responses with a comma.",,y,17651,,,9064,16520,,,,"Personal hygiene",1
w10078459FM,6qzwni4sgu,"BOI Norms",1,32,2021-10-26T22:09:52+00:00,13.777834177017,6,"updated stim.csv",Version6.csv,"Version 6","List 6",berry,,179,5.523809524,205,180,BOI,-,-,"Please name all of the ways you could use this object. Keep in mind that one object can have many uses. Separate your responses with a comma.",,y,13413,,,9400,11385,,,,"Heart healthy ",1
w10078459FM,6qzwni4sgu,"BOI Norms",1,33,2021-10-26T22:10:06+00:00,13.479863882065,6,"updated stim.csv",Version6.csv,"Version 6","List 6",blindfold,,167,5.125,237,168,BOI,-,-,"Please name all of the ways you could use this object. Keep in mind that one object can have many uses. Separate your responses with a comma.",,y,13002,,,2700,10321,,,,"Cover eyes, surprise",1
w10078459FM,6qzwni4sgu,"BOI Norms",1,34,2021-10-26T22:10:32+00:00,25.940035104752,6,"updated stim.csv",Version6.csv,"Version 6","List 6",wand,,169,5.08,2892,170,BOI,-,-,"Please name all of the ways you could use this object. Keep in mind that one object can have many uses. Separate your responses with a comma.",,y,25517,,,10960,22643,,,,"Reaching, pointing, drawing",1
w10078459FM,6qzwni4sgu,"BOI Norms",1,35,2021-10-26T22:10:47+00:00,15.582327842712,6,"updated stim.csv",Version6.csv,"Version 6","List 6",ticket,,164,5.333333333,2692,165,BOI,-,-,"Please name all of the ways you could use this object. Keep in mind that one object can have many uses. Separate your responses with a comma.",,y,15199,,,11240,12677,,,,"Admission ",1
w10078459FM,6qzwni4sgu,"BOI Norms",1,36,2021-10-26T22:11:15+00:00,27.211317062378,6,"updated stim.csv",Version6.csv,"Version 6","List 6",parsnip,,159,5.666666667,1878,160,BOI,-,-,"Please name all of the ways you could use this object. Keep in mind that one object can have many uses. Separate your responses with a comma.",,y,26594,,,18376,24764,,,,"Heart function ",1
w10078459FM,6qzwni4sgu,"BOI Norms",1,37,2021-10-26T22:11:56+00:00,41.819191932678,6,"updated stim.csv",Version6.csv,"Version 6","List 6",bicep,,151,5.666666667,209,152,BOI,-,-,"Please name all of the ways you could use this object. Keep in mind that one object can have many uses. Separate your responses with a comma.",,y,41396,,,22522,40705,,,,"Flex elbow, rotate the forearm",1
w10078459FM,6qzwni4sgu,"BOI Norms",1,38,2021-10-26T22:12:27+00:00,30.929306030273,6,"updated stim.csv",Version6.csv,"Version 6","List 6",desert,,160,4.291666667,779,161,BOI,-,-,"Please name all of the ways you could use this object. Keep in mind that one object can have many uses. Separate your responses with a comma.",,y,30481,,,16217,28601,,,,"Promote energy ",1
w10078459FM,6qzwni4sgu,"BOI Norms",1,39,2021-10-26T22:12:37+00:00,9.6766271591187,6,"updated stim.csv",Version6.csv,"Version 6","List 6",balcony,,176,4.739130435,127,177,BOI,-,-,"Please name all of the ways you could use this object. Keep in mind that one object can have many uses. Separate your responses with a comma.",,y,9200,,,4330,8412,,,,"Sit, cook",1
w10078459FM,6qzwni4sgu,"BOI Norms",1,40,2021-10-26T22:12:51+00:00,13.800246953964,6,"updated stim.csv",Version6.csv,"Version 6","List 6",scale,,175,5.652173913,2259,176,BOI,-,-,"Please name all of the ways you could use this object. Keep in mind that one object can have many uses. Separate your responses with a comma.",,y,13389,,,6338,12761,,,,"Weight things",1
w10078459FM,6qzwni4sgu,"BOI Norms",1,41,2021-10-26T22:13:42+00:00,51.030185937881,6,"updated stim.csv",Version6.csv,"Version 6","List 6",,,,,,0,Instruct,,,"You will now be asked a few questions about your experience today.",,"Instruct 4",50534,,,-1,-1,,,,,1
