Username,ID,ExperimentName,Session,Trial,Date,TimeDif,"Condition Number","Stimuli File","Order File","Condition Description","Condition Notes",Stimuli*Cue,Stimuli*Answer,Stimuli*Shuffle,"Stimuli*Stimuli Notes",Stimuli*Value,Procedure*Item,"Procedure*Trial Type","Procedure*Max Time","Procedure*Min Time",Procedure*Text,"Procedure*Procedure Notes",Procedure*Shuffle,Response*RT,Response*Response,Response*Accuracy,Response*RTfirst,Response*RTlast,Response*strictAcc,Response*lenientAcc,Response*focus,Response*JOL,Response*Focus
w969469,l3gkll4axp,"BOI Norms",1,1,2021-06-21T14:17:30-07:00,13.599007129669,15,"updated stim.csv",Version90.csv,"Version 90","List 90",,,,,,0,Instruct,-,10,"In this section, you will be presented with a series of objects. Please name as many possible uses for this object as you can think of by typing them in the box below each object.",,Instruct1,13365,,,-1,-1,,,,,1
w969469,l3gkll4axp,"BOI Norms",1,2,2021-06-21T14:17:42-07:00,12.021182060242,15,"updated stim.csv",Version90.csv,"Version 90","List 90",,,,,,0,Instruct,-,10,"Please keep in mind that a single object will have more than one use. For example, a ball can be thrown or can be bounced or even stepped on. When listing multiple uses for one object, please separate each use with a comma (i.e., thrown, bounced, stepped on)",,Instruct2,11616,,,-1,-1,,,,,1
w969469,l3gkll4axp,"BOI Norms",1,3,2021-06-21T14:17:47-07:00,4.0398979187012,15,"updated stim.csv",Version90.csv,"Version 90","List 90",,,,,,0,Instruct,-,-,"Before starting the experiment, you will complete a short practice sesstion. Press ENTER when you are ready to begin.",,Instruct3,3220,,,-1,-1,,,,,1
w969469,l3gkll4axp,"BOI Norms",1,4,2021-06-21T14:18:08-07:00,21.576457023621,15,"updated stim.csv",Version90.csv,"Version 90","List 90",shortening,,3002,4.92,2358,3003,BOI,-,-,"Please name all of the ways you could use this object. Keep in mind that one object can have many uses. Separate your responses with a comma.",,n,20732,,,4732,17865,,,,"cooking, for burns",1
w969469,l3gkll4axp,"BOI Norms",1,5,2021-06-21T14:18:42-07:00,33.468404054642,15,"updated stim.csv",Version90.csv,"Version 90","List 90",saucer,,3005,5.777777778,2249,3006,BOI,-,-,"Please name all of the ways you could use this object. Keep in mind that one object can have many uses. Separate your responses with a comma.",,n,32665,,,6859,31361,,,,"to put food on, to throw at a party, to thaw stuff on, for decoration",1
w969469,l3gkll4axp,"BOI Norms",1,6,2021-06-21T14:18:55-07:00,12.955165863037,15,"updated stim.csv",Version90.csv,"Version 90","List 90",spaghetti,,3003,6,2461,3004,BOI,-,-,"Please name all of the ways you could use this object. Keep in mind that one object can have many uses. Separate your responses with a comma.",,n,12616,,,1591,6441,,,,"to eat, to throw",1
w969469,l3gkll4axp,"BOI Norms",1,7,2021-06-21T14:19:26-07:00,31.744177103043,15,"updated stim.csv",Version90.csv,"Version 90","List 90",grain,,3004,5.217391304,1143,3005,BOI,-,-,"Please name all of the ways you could use this object. Keep in mind that one object can have many uses. Separate your responses with a comma.",,n,31366,,,2733,29976,,,,"to make bread, make crackers, make pasta",1
w969469,l3gkll4axp,"BOI Norms",1,8,2021-06-21T14:19:55-07:00,29.227183818817,15,"updated stim.csv",Version90.csv,"Version 90","List 90",paperwork,,3001,5.625,1866,3002,BOI,-,-,"Please name all of the ways you could use this object. Keep in mind that one object can have many uses. Separate your responses with a comma.",,n,28829,,,6366,26984,,,,"to file, to shred, to make a paper airplane",1
w969469,l3gkll4axp,"BOI Norms",1,9,2021-06-21T14:19:59-07:00,3.2038860321045,15,"updated stim.csv",Version90.csv,"Version 90","List 90",,,,,,0,Instruct,-,-,"You have completed this section. Press ENTER to continue",,"Instruct 5",1948,,,-1,-1,,,,,1
w969469,l3gkll4axp,"BOI Norms",1,10,2021-06-21T14:20:01-07:00,2.3441851139069,15,"updated stim.csv",Version90.csv,"Version 90","List 90",,,,,,0,Instruct,-,-,"You will now start the full experiment. Press ENTER when you are ready to begin.",,,1772,,,-1,-1,,,,,1
w969469,l3gkll4axp,"BOI Norms",1,11,2021-06-21T14:20:29-07:00,27.617255926132,15,"updated stim.csv",Version90.csv,"Version 90","List 90",timber,,2680,4.695652174,2699,2681,BOI,-,-,"Please name all of the ways you could use this object. Keep in mind that one object can have many uses. Separate your responses with a comma.",,y,27063,,,1619,25687,,,,"sand, saw, chiseled, to make fire ",1
w969469,l3gkll4axp,"BOI Norms",1,12,2021-06-21T14:20:49-07:00,20.047595024109,15,"updated stim.csv",Version90.csv,"Version 90","List 90",reptile,,2679,5,2156,2680,BOI,-,-,"Please name all of the ways you could use this object. Keep in mind that one object can have many uses. Separate your responses with a comma.",,y,19655,,,3286,18150,,,,"to pet, to eat crickets ",1
w969469,l3gkll4axp,"BOI Norms",1,13,2021-06-21T14:21:13-07:00,24.090604066849,15,"updated stim.csv",Version90.csv,"Version 90","List 90",organism,,2685,4.727272727,1821,2686,BOI,-,-,"Please name all of the ways you could use this object. Keep in mind that one object can have many uses. Separate your responses with a comma.",,y,20692,,,9602,19874,,,,"plants, animals, humans, bacteria",1
w969469,l3gkll4axp,"BOI Norms",1,14,2021-06-21T14:21:30-07:00,17.122483968735,15,"updated stim.csv",Version90.csv,"Version 90","List 90",serviceman,,2694,4.8,2314,2695,BOI,-,-,"Please name all of the ways you could use this object. Keep in mind that one object can have many uses. Separate your responses with a comma.",,y,16727,,,2635,13502,,,,delivery,1
w969469,l3gkll4axp,"BOI Norms",1,15,2021-06-21T14:21:45-07:00,15.008671045303,15,"updated stim.csv",Version90.csv,"Version 90","List 90",meadow,,2698,4.391304348,1631,2699,BOI,-,-,"Please name all of the ways you could use this object. Keep in mind that one object can have many uses. Separate your responses with a comma.",,y,14612,,,3729,12926,,,,"pick flowers, find bugs",1
w969469,l3gkll4axp,"BOI Norms",1,16,2021-06-21T14:21:57-07:00,12.268798828125,15,"updated stim.csv",Version90.csv,"Version 90","List 90",goggle,,2696,4.458333333,1130,2697,BOI,-,-,"Please name all of the ways you could use this object. Keep in mind that one object can have many uses. Separate your responses with a comma.",,y,11865,,,3758,10183,,,,"to swim, to protect eyes",1
w969469,l3gkll4axp,"BOI Norms",1,17,2021-06-21T14:22:05-07:00,7.8379261493683,15,"updated stim.csv",Version90.csv,"Version 90","List 90",gatekeeper,,2683,4.44,1087,2684,BOI,-,-,"Please name all of the ways you could use this object. Keep in mind that one object can have many uses. Separate your responses with a comma.",,y,7007,,,2515,6192,,,,security,1
w969469,l3gkll4axp,"BOI Norms",1,18,2021-06-21T14:22:14-07:00,8.9669899940491,15,"updated stim.csv",Version90.csv,"Version 90","List 90",buttonhole,,2695,5.074074074,382,2696,BOI,-,-,"Please name all of the ways you could use this object. Keep in mind that one object can have many uses. Separate your responses with a comma.",,y,8561,,,3625,7867,,,,"to hold a jacket closed",1
w969469,l3gkll4axp,"BOI Norms",1,19,2021-06-21T14:22:39-07:00,25.191920042038,15,"updated stim.csv",Version90.csv,"Version 90","List 90",notepaper,,2692,5.392857143,1782,2693,BOI,-,-,"Please name all of the ways you could use this object. Keep in mind that one object can have many uses. Separate your responses with a comma.",,y,24341,,,2360,23705,,,,"notes, quiz, research paper",1
w969469,l3gkll4axp,"BOI Norms",1,20,2021-06-21T14:22:58-07:00,18.474016904831,15,"updated stim.csv",Version90.csv,"Version 90","List 90",limes,,2675,5.782608696,1514,2676,BOI,-,-,"Please name all of the ways you could use this object. Keep in mind that one object can have many uses. Separate your responses with a comma.",,y,18086,,,2078,17379,,,,"margarita, salsa, guacamole, keylime pie",1
w969469,l3gkll4axp,"BOI Norms",1,21,2021-06-21T14:23:21-07:00,23.237962007523,15,"updated stim.csv",Version90.csv,"Version 90","List 90",workbench,,2674,6.208333333,2968,2675,BOI,-,-,"Please name all of the ways you could use this object. Keep in mind that one object can have many uses. Separate your responses with a comma.",,y,22839,,,9349,17410,,,,"keep organized",1
w969469,l3gkll4axp,"BOI Norms",1,22,2021-06-21T14:23:26-07:00,5.5636599063873,15,"updated stim.csv",Version90.csv,"Version 90","List 90",rye,,2687,4.407407407,2209,2688,BOI,-,-,"Please name all of the ways you could use this object. Keep in mind that one object can have many uses. Separate your responses with a comma.",,y,5173,,,1882,2559,,,,bread,1
w969469,l3gkll4axp,"BOI Norms",1,23,2021-06-21T14:23:36-07:00,9.7454869747162,15,"updated stim.csv",Version90.csv,"Version 90","List 90",blister,,2700,5.2,238,2701,BOI,-,-,"Please name all of the ways you could use this object. Keep in mind that one object can have many uses. Separate your responses with a comma.",,y,9367,,,5370,8786,,,,none,1
w969469,l3gkll4axp,"BOI Norms",1,24,2021-06-21T14:24:00-07:00,23.889602184296,15,"updated stim.csv",Version90.csv,"Version 90","List 90",putty,,2672,5,2107,2673,BOI,-,-,"Please name all of the ways you could use this object. Keep in mind that one object can have many uses. Separate your responses with a comma.",,y,23067,,,5714,21559,,,,"to play with, for holes in construction",1
w969469,l3gkll4axp,"BOI Norms",1,25,2021-06-21T14:24:15-07:00,15.030220031738,15,"updated stim.csv",Version90.csv,"Version 90","List 90",cash,,2691,6.36,448,2692,BOI,-,-,"Please name all of the ways you could use this object. Keep in mind that one object can have many uses. Separate your responses with a comma.",,y,14631,,,4191,13980,,,,"bills, groceries, clothing, family",1
w969469,l3gkll4axp,"BOI Norms",1,26,2021-06-21T14:24:25-07:00,9.8947830200195,15,"updated stim.csv",Version90.csv,"Version 90","List 90",cavalryman,,2682,4.291666667,467,2683,BOI,-,-,"Please name all of the ways you could use this object. Keep in mind that one object can have many uses. Separate your responses with a comma.",,y,9494,,,6423,8896,,,,security,1
w969469,l3gkll4axp,"BOI Norms",1,27,2021-06-21T14:24:39-07:00,13.817848920822,15,"updated stim.csv",Version90.csv,"Version 90","List 90",antiseptics,,2690,5.041666667,52,2691,BOI,-,-,"Please name all of the ways you could use this object. Keep in mind that one object can have many uses. Separate your responses with a comma.",,y,13423,,,2266,8832,,,,"clean, disinfect ",1
w969469,l3gkll4axp,"BOI Norms",1,28,2021-06-21T14:24:44-07:00,4.9897248744965,15,"updated stim.csv",Version90.csv,"Version 90","List 90",glasses,,2676,6.541666667,1112,2677,BOI,-,-,"Please name all of the ways you could use this object. Keep in mind that one object can have many uses. Separate your responses with a comma.",,y,4600,,,1743,2678,,,,"to see",1
w969469,l3gkll4axp,"BOI Norms",1,29,2021-06-21T14:24:56-07:00,12.595662117004,15,"updated stim.csv",Version90.csv,"Version 90","List 90",livestock,,2671,5.041666667,1528,2672,BOI,-,-,"Please name all of the ways you could use this object. Keep in mind that one object can have many uses. Separate your responses with a comma.",,y,12209,,,1824,5323,,,,"eat, pet",1
w969469,l3gkll4axp,"BOI Norms",1,30,2021-06-21T14:25:06-07:00,9.9297769069672,15,"updated stim.csv",Version90.csv,"Version 90","List 90",cup,,2693,6.043478261,726,2694,BOI,-,-,"Please name all of the ways you could use this object. Keep in mind that one object can have many uses. Separate your responses with a comma.",,y,9546,,,1866,8905,,,,"hold drink, hold cleaner",1
w969469,l3gkll4axp,"BOI Norms",1,31,2021-06-21T14:25:11-07:00,5.0116641521454,15,"updated stim.csv",Version90.csv,"Version 90","List 90",curry,,2697,4.565217391,731,2698,BOI,-,-,"Please name all of the ways you could use this object. Keep in mind that one object can have many uses. Separate your responses with a comma.",,y,4632,,,3147,3933,,,,eat,1
w969469,l3gkll4axp,"BOI Norms",1,32,2021-06-21T14:25:25-07:00,13.593305826187,15,"updated stim.csv",Version90.csv,"Version 90","List 90",clamp,,2688,5.36,546,2689,BOI,-,-,"Please name all of the ways you could use this object. Keep in mind that one object can have many uses. Separate your responses with a comma.",,y,13194,,,1883,9544,,,,"chip clip",1
w969469,l3gkll4axp,"BOI Norms",1,33,2021-06-21T14:25:37-07:00,11.725797176361,15,"updated stim.csv",Version90.csv,"Version 90","List 90",poodle,,2686,5.652173913,2032,2687,BOI,-,-,"Please name all of the ways you could use this object. Keep in mind that one object can have many uses. Separate your responses with a comma.",,y,11332,,,2724,9828,,,,"to pet, snuggle",1
w969469,l3gkll4axp,"BOI Norms",1,34,2021-06-21T14:25:50-07:00,12.842618942261,15,"updated stim.csv",Version90.csv,"Version 90","List 90",pipe,,2681,5.653846154,1976,2682,BOI,-,-,"Please name all of the ways you could use this object. Keep in mind that one object can have many uses. Separate your responses with a comma.",,y,12443,,,2107,5270,,,,"smoke, ",1
w969469,l3gkll4axp,"BOI Norms",1,35,2021-06-21T14:26:08-07:00,18.741642951965,15,"updated stim.csv",Version90.csv,"Version 90","List 90",tubing,,2673,4.625,2792,2674,BOI,-,-,"Please name all of the ways you could use this object. Keep in mind that one object can have many uses. Separate your responses with a comma.",,y,18349,,,9396,12951,,,,"tire inflate ",1
w969469,l3gkll4axp,"BOI Norms",1,36,2021-06-21T14:26:15-07:00,6.2835419178009,15,"updated stim.csv",Version90.csv,"Version 90","List 90",plumber,,2699,4.44,2011,2700,BOI,-,-,"Please name all of the ways you could use this object. Keep in mind that one object can have many uses. Separate your responses with a comma.",,y,5895,,,1695,4509,,,,"fix pipes",1
w969469,l3gkll4axp,"BOI Norms",1,37,2021-06-21T14:26:23-07:00,8.9128592014313,15,"updated stim.csv",Version90.csv,"Version 90","List 90",stepparent,,2677,5,2528,2678,BOI,-,-,"Please name all of the ways you could use this object. Keep in mind that one object can have many uses. Separate your responses with a comma.",,y,8099,,,2564,5919,,,,"love children",1
w969469,l3gkll4axp,"BOI Norms",1,38,2021-06-21T14:26:32-07:00,8.1085078716278,15,"updated stim.csv",Version90.csv,"Version 90","List 90",Saloon,,2689,4.301480485,2225,2690,BOI,-,-,"Please name all of the ways you could use this object. Keep in mind that one object can have many uses. Separate your responses with a comma.",,y,7721,,,3134,6614,,,,"drinks, gamble",1
w969469,l3gkll4axp,"BOI Norms",1,39,2021-06-21T14:26:36-07:00,4.5298800468445,15,"updated stim.csv",Version90.csv,"Version 90","List 90",fig,,2684,5.083333333,972,2685,BOI,-,-,"Please name all of the ways you could use this object. Keep in mind that one object can have many uses. Separate your responses with a comma.",,y,4136,,,2046,3475,,,,"eat, cook",1
w969469,l3gkll4axp,"BOI Norms",1,40,2021-06-21T14:26:43-07:00,6.5295009613037,15,"updated stim.csv",Version90.csv,"Version 90","List 90",blackheads,,2678,4.260869565,230,2679,BOI,-,-,"Please name all of the ways you could use this object. Keep in mind that one object can have many uses. Separate your responses with a comma.",,y,6138,,,4103,5510,,,,pop,1
w969469,l3gkll4axp,"BOI Norms",1,41,2021-06-21T14:26:45-07:00,2.078999042511,15,"updated stim.csv",Version90.csv,"Version 90","List 90",,,,,,0,Instruct,,,"You will now be asked a few questions about your experience today.",,"Instruct 4",1709,,,-1,-1,,,,,1
