Username,ID,ExperimentName,Session,Trial,Date,TimeDif,"Condition Number","Stimuli File","Order File","Condition Description","Condition Notes",Stimuli*Cue,Stimuli*Answer,Stimuli*Shuffle,"Stimuli*Stimuli Notes",Stimuli*Value,Procedure*Item,"Procedure*Trial Type","Procedure*Max Time","Procedure*Min Time",Procedure*Text,"Procedure*Procedure Notes",Procedure*Shuffle,Response*RT,Response*Response,Response*Accuracy,Response*RTfirst,Response*RTlast,Response*strictAcc,Response*lenientAcc,Response*focus,Response*JOL,Response*Focus
W10058771_rnc,6jp4k8lzn5,"BOI Norms",1,1,2021-08-24T20:07:40-07:00,11.92981505394,3,"updated stim.csv",Version3.csv,"Version 3","List 3",,,,,,0,Instruct,-,10,"In this section, you will be presented with a series of objects. Please name as many possible uses for this object as you can think of by typing them in the box below each object.",,Instruct1,11458,,,-1,-1,,,,,1
W10058771_rnc,6jp4k8lzn5,"BOI Norms",1,2,2021-08-24T20:07:52-07:00,12.26566696167,3,"updated stim.csv",Version3.csv,"Version 3","List 3",,,,,,0,Instruct,-,10,"Please keep in mind that a single object will have more than one use. For example, a ball can be thrown or can be bounced or even stepped on. When listing multiple uses for one object, please separate each use with a comma (i.e., thrown, bounced, stepped on)",,Instruct2,11847,,,-1,-1,,,,,1
W10058771_rnc,6jp4k8lzn5,"BOI Norms",1,3,2021-08-24T20:07:57-07:00,4.5979809761047,3,"updated stim.csv",Version3.csv,"Version 3","List 3",,,,,,0,Instruct,-,-,"Before starting the experiment, you will complete a short practice sesstion. Press ENTER when you are ready to begin.",,Instruct3,3779,,,-1,-1,,,,,1
W10058771_rnc,6jp4k8lzn5,"BOI Norms",1,4,2021-08-24T20:09:08-07:00,70.878873109818,3,"updated stim.csv",Version3.csv,"Version 3","List 3",paperwork,,3001,5.625,1866,3002,BOI,-,-,"Please name all of the ways you could use this object. Keep in mind that one object can have many uses. Separate your responses with a comma.",,n,69660,,,7658,67845,,,,"homework, job, documents, letters, records, forms ",1
W10058771_rnc,6jp4k8lzn5,"BOI Norms",1,5,2021-08-24T20:09:59-07:00,50.973972797394,3,"updated stim.csv",Version3.csv,"Version 3","List 3",shortening,,3002,4.92,2358,3003,BOI,-,-,"Please name all of the ways you could use this object. Keep in mind that one object can have many uses. Separate your responses with a comma.",,n,50440,,,24941,49534,,,,"food, butter, margarine",1
W10058771_rnc,6jp4k8lzn5,"BOI Norms",1,6,2021-08-24T20:11:07-07:00,68.105136156082,3,"updated stim.csv",Version3.csv,"Version 3","List 3",saucer,,3005,5.777777778,2249,3006,BOI,-,-,"Please name all of the ways you could use this object. Keep in mind that one object can have many uses. Separate your responses with a comma.",,n,67523,,,21315,54867,,,,"plate, bowl",1
W10058771_rnc,6jp4k8lzn5,"BOI Norms",1,7,2021-08-24T20:11:53-07:00,45.72079205513,3,"updated stim.csv",Version3.csv,"Version 3","List 3",spaghetti,,3003,6,2461,3004,BOI,-,-,"Please name all of the ways you could use this object. Keep in mind that one object can have many uses. Separate your responses with a comma.",,n,45095,,,5066,45012,,,,"noodles, meatballs, red sauce, dinner, arts and craft",1
W10058771_rnc,6jp4k8lzn5,"BOI Norms",1,8,2021-08-24T20:12:29-07:00,36.697378873825,3,"updated stim.csv",Version3.csv,"Version 3","List 3",grain,,3004,5.217391304,1143,3005,BOI,-,-,"Please name all of the ways you could use this object. Keep in mind that one object can have many uses. Separate your responses with a comma.",,n,36220,,,2121,35995,,,,"bread, rice, crop",1
W10058771_rnc,6jp4k8lzn5,"BOI Norms",1,9,2021-08-24T20:12:31-07:00,1.7802400588989,3,"updated stim.csv",Version3.csv,"Version 3","List 3",,,,,,0,Instruct,-,-,"You have completed this section. Press ENTER to continue",,"Instruct 5",1456,,,-1,-1,,,,,1
W10058771_rnc,6jp4k8lzn5,"BOI Norms",1,10,2021-08-24T20:12:33-07:00,2.3265879154205,3,"updated stim.csv",Version3.csv,"Version 3","List 3",,,,,,0,Instruct,-,-,"You will now start the full experiment. Press ENTER when you are ready to begin.",,,1658,,,-1,-1,,,,,1
W10058771_rnc,6jp4k8lzn5,"BOI Norms",1,11,2021-08-24T20:13:15-07:00,41.835613965988,3,"updated stim.csv",Version3.csv,"Version 3","List 3",lumber,,88,5.217391304,1557,89,BOI,-,-,"Please name all of the ways you could use this object. Keep in mind that one object can have many uses. Separate your responses with a comma.",,y,41031,,,32058,40634,,,,"wood, beams, planks",1
W10058771_rnc,6jp4k8lzn5,"BOI Norms",1,12,2021-08-24T20:13:53-07:00,37.813049077988,3,"updated stim.csv",Version3.csv,"Version 3","List 3",limestone,,81,4.565217391,1515,82,BOI,-,-,"Please name all of the ways you could use this object. Keep in mind that one object can have many uses. Separate your responses with a comma.",,y,37348,,,17394,28384,,,,rock,1
W10058771_rnc,6jp4k8lzn5,"BOI Norms",1,13,2021-08-24T20:14:41-07:00,47.445914983749,3,"updated stim.csv",Version3.csv,"Version 3","List 3",lilac,,80,5,1508,81,BOI,-,-,"Please name all of the ways you could use this object. Keep in mind that one object can have many uses. Separate your responses with a comma.",,y,47025,,,18837,32743,,,,"color, flower",1
W10058771_rnc,6jp4k8lzn5,"BOI Norms",1,14,2021-08-24T20:15:00-07:00,19.53887295723,3,"updated stim.csv",Version3.csv,"Version 3","List 3",postage,,83,4.32,2041,84,BOI,-,-,"Please name all of the ways you could use this object. Keep in mind that one object can have many uses. Separate your responses with a comma.",,y,19034,,,9470,14807,,,,"mail, stamps",1
W10058771_rnc,6jp4k8lzn5,"BOI Norms",1,15,2021-08-24T20:15:43-07:00,43.296596050262,3,"updated stim.csv",Version3.csv,"Version 3","List 3",rack,,73,4.68,2119,74,BOI,-,-,"Please name all of the ways you could use this object. Keep in mind that one object can have many uses. Separate your responses with a comma.",,y,42630,,,27209,42130,,,,"storage, money",1
W10058771_rnc,6jp4k8lzn5,"BOI Norms",1,16,2021-08-24T20:16:50-07:00,67.014122962952,3,"updated stim.csv",Version3.csv,"Version 3","List 3",sash,,79,4.916666667,2244,80,BOI,-,-,"Please name all of the ways you could use this object. Keep in mind that one object can have many uses. Separate your responses with a comma.",,y,65841,,,30044,62961,,,,"belt, one shoulder, waistband",1
W10058771_rnc,6jp4k8lzn5,"BOI Norms",1,17,2021-08-24T20:17:24-07:00,33.121598005295,3,"updated stim.csv",Version3.csv,"Version 3","List 3",crumb,,89,4.45,714,90,BOI,-,-,"Please name all of the ways you could use this object. Keep in mind that one object can have many uses. Separate your responses with a comma.",,y,31900,,,21953,30841,,,,"piece of food, small",1
W10058771_rnc,6jp4k8lzn5,"BOI Norms",1,18,2021-08-24T20:18:09-07:00,45.9175760746,3,"updated stim.csv",Version3.csv,"Version 3","List 3",stuff,,77,4.391304348,2574,78,BOI,-,-,"Please name all of the ways you could use this object. Keep in mind that one object can have many uses. Separate your responses with a comma.",,y,45044,,,20048,44672,,,,"objects, things, belongings, items",1
W10058771_rnc,6jp4k8lzn5,"BOI Norms",1,19,2021-08-24T20:18:28-07:00,18.619997024536,3,"updated stim.csv",Version3.csv,"Version 3","List 3",perfume,,78,4.96,1926,79,BOI,-,-,"Please name all of the ways you could use this object. Keep in mind that one object can have many uses. Separate your responses with a comma.",,y,18102,,,3053,17840,,,,"spray, smell good, scent",1
W10058771_rnc,6jp4k8lzn5,"BOI Norms",1,20,2021-08-24T20:19:21-07:00,52.812795877457,3,"updated stim.csv",Version3.csv,"Version 3","List 3",rink,,71,4.333333333,2171,72,BOI,-,-,"Please name all of the ways you could use this object. Keep in mind that one object can have many uses. Separate your responses with a comma.",,y,51955,,,2603,50197,,,,"skate, ice, stats",1
W10058771_rnc,6jp4k8lzn5,"BOI Norms",1,21,2021-08-24T20:19:46-07:00,25.00740814209,3,"updated stim.csv",Version3.csv,"Version 3","List 3",police,,72,4.739130435,2021,73,BOI,-,-,"Please name all of the ways you could use this object. Keep in mind that one object can have many uses. Separate your responses with a comma.",,y,24480,,,2018,24349,,,,"help, arrest, hurt",1
W10058771_rnc,6jp4k8lzn5,"BOI Norms",1,22,2021-08-24T20:20:27-07:00,41.274125814438,3,"updated stim.csv",Version3.csv,"Version 3","List 3",stone,,67,5.875,2545,68,BOI,-,-,"Please name all of the ways you could use this object. Keep in mind that one object can have many uses. Separate your responses with a comma.",,y,40751,,,24584,40375,,,,"rock, building material, stone ",1
W10058771_rnc,6jp4k8lzn5,"BOI Norms",1,23,2021-08-24T20:20:48-07:00,20.335247039795,3,"updated stim.csv",Version3.csv,"Version 3","List 3",footplate,,90,4.875,1038,91,BOI,-,-,"Please name all of the ways you could use this object. Keep in mind that one object can have many uses. Separate your responses with a comma.",,y,19818,,,18987,19557,,,,train,1
W10058771_rnc,6jp4k8lzn5,"BOI Norms",1,24,2021-08-24T20:21:18-07:00,30.183230161667,3,"updated stim.csv",Version3.csv,"Version 3","List 3",sportswriter,,69,4.32,2484,70,BOI,-,-,"Please name all of the ways you could use this object. Keep in mind that one object can have many uses. Separate your responses with a comma.",,y,29597,,,14948,28614,,,,"informative, news, blogs, wedsites",1
W10058771_rnc,6jp4k8lzn5,"BOI Norms",1,25,2021-08-24T20:21:55-07:00,37.054040908813,3,"updated stim.csv",Version3.csv,"Version 3","List 3",delicatessen,,87,4.347826087,768,88,BOI,-,-,"Please name all of the ways you could use this object. Keep in mind that one object can have many uses. Separate your responses with a comma.",,y,36434,,,17663,31112,,,,"salads, cold cuts, cheeses ",1
W10058771_rnc,6jp4k8lzn5,"BOI Norms",1,26,2021-08-24T20:22:19-07:00,24.728147983551,3,"updated stim.csv",Version3.csv,"Version 3","List 3",businesswoman,,86,5.08,371,87,BOI,-,-,"Please name all of the ways you could use this object. Keep in mind that one object can have many uses. Separate your responses with a comma.",,y,24107,,,2706,9989,,,,"work, file, office, ",1
W10058771_rnc,6jp4k8lzn5,"BOI Norms",1,27,2021-08-24T20:22:55-07:00,35.13654589653,3,"updated stim.csv",Version3.csv,"Version 3","List 3",dogcatcher,,74,4.72,812,75,BOI,-,-,"Please name all of the ways you could use this object. Keep in mind that one object can have many uses. Separate your responses with a comma.",,y,34339,,,24904,31841,,,,"stray dogs, walk, run ",1
W10058771_rnc,6jp4k8lzn5,"BOI Norms",1,28,2021-08-24T20:23:35-07:00,40.557965040207,3,"updated stim.csv",Version3.csv,"Version 3","List 3",pinecone,,62,5.821428571,1972,63,BOI,-,-,"Please name all of the ways you could use this object. Keep in mind that one object can have many uses. Separate your responses with a comma.",,y,40225,,,1988,39597,,,,"tree, seeds",1
W10058771_rnc,6jp4k8lzn5,"BOI Norms",1,29,2021-08-24T20:24:06-07:00,30.695209980011,3,"updated stim.csv",Version3.csv,"Version 3","List 3",overcoat,,85,6.52,1832,86,BOI,-,-,"Please name all of the ways you could use this object. Keep in mind that one object can have many uses. Separate your responses with a comma.",,y,30078,,,13457,29362,,,,"long, winter, warm",1
W10058771_rnc,6jp4k8lzn5,"BOI Norms",1,30,2021-08-24T20:24:51-07:00,45.513001203537,3,"updated stim.csv",Version3.csv,"Version 3","List 3",stake,,66,4.36,2503,67,BOI,-,-,"Please name all of the ways you could use this object. Keep in mind that one object can have many uses. Separate your responses with a comma.",,y,44911,,,20040,44553,,,,"support, pole, stick, hold up",1
W10058771_rnc,6jp4k8lzn5,"BOI Norms",1,31,2021-08-24T20:25:02-07:00,10.1264128685,3,"updated stim.csv",Version3.csv,"Version 3","List 3",litter,,75,5.034482759,1526,76,BOI,-,-,"Please name all of the ways you could use this object. Keep in mind that one object can have many uses. Separate your responses with a comma.",,y,9766,,,-1,-1,,,,,1
W10058771_rnc,6jp4k8lzn5,"BOI Norms",1,32,2021-08-24T20:25:52-07:00,50.38814496994,3,"updated stim.csv",Version3.csv,"Version 3","List 3",curtain,,84,5.875,732,85,BOI,-,-,"Please name all of the ways you could use this object. Keep in mind that one object can have many uses. Separate your responses with a comma.",,y,49439,,,9406,42158,,,,"shade, block light, air drafts",1
W10058771_rnc,6jp4k8lzn5,"BOI Norms",1,33,2021-08-24T20:26:03-07:00,11.380705118179,3,"updated stim.csv",Version3.csv,"Version 3","List 3",plow,,68,5,2008,69,BOI,-,-,"Please name all of the ways you could use this object. Keep in mind that one object can have many uses. Separate your responses with a comma.",,y,11112,,,8332,10928,,,,"farm tool",1
W10058771_rnc,6jp4k8lzn5,"BOI Norms",1,34,2021-08-24T20:27:07-07:00,63.222626924515,3,"updated stim.csv",Version3.csv,"Version 3","List 3",backbone,,65,4.64,113,66,BOI,-,-,"Please name all of the ways you could use this object. Keep in mind that one object can have many uses. Separate your responses with a comma.",,y,62420,,,2009,62089,,,,"support, spine, foundation",1
W10058771_rnc,6jp4k8lzn5,"BOI Norms",1,35,2021-08-24T20:27:48-07:00,41.473012924194,3,"updated stim.csv",Version3.csv,"Version 3","List 3",tights,,63,5.956521739,2696,64,BOI,-,-,"Please name all of the ways you could use this object. Keep in mind that one object can have many uses. Separate your responses with a comma.",,y,40978,,,16741,40850,,,,"cloth garment, tight fit, sheer legs",1
W10058771_rnc,6jp4k8lzn5,"BOI Norms",1,36,2021-08-24T20:28:33-07:00,45.459516048431,3,"updated stim.csv",Version3.csv,"Version 3","List 3",fastener,,82,4.347826087,950,83,BOI,-,-,"Please name all of the ways you could use this object. Keep in mind that one object can have many uses. Separate your responses with a comma.",,y,44735,,,15590,44283,,,,"hardware, bolts, nails",1
W10058771_rnc,6jp4k8lzn5,"BOI Norms",1,37,2021-08-24T20:29:04-07:00,30.717606067657,3,"updated stim.csv",Version3.csv,"Version 3","List 3",spit,,76,4.391304348,2476,77,BOI,-,-,"Please name all of the ways you could use this object. Keep in mind that one object can have many uses. Separate your responses with a comma.",,y,30011,,,11465,29879,,,,"saliva, slobber",1
W10058771_rnc,6jp4k8lzn5,"BOI Norms",1,38,2021-08-24T20:29:24-07:00,20.032021999359,3,"updated stim.csv",Version3.csv,"Version 3","List 3",cart,,70,5.4,442,71,BOI,-,-,"Please name all of the ways you could use this object. Keep in mind that one object can have many uses. Separate your responses with a comma.",,y,19487,,,2161,18435,,,,"grocery, push, carrier ",1
W10058771_rnc,6jp4k8lzn5,"BOI Norms",1,39,2021-08-24T20:29:46-07:00,22.144224882126,3,"updated stim.csv",Version3.csv,"Version 3","List 3",postmaster,,64,5.2,2045,65,BOI,-,-,"Please name all of the ways you could use this object. Keep in mind that one object can have many uses. Separate your responses with a comma.",,y,21603,,,14093,20861,,,,"post office ",1
W10058771_rnc,6jp4k8lzn5,"BOI Norms",1,40,2021-08-24T20:30:24-07:00,37.403120994568,3,"updated stim.csv",Version3.csv,"Version 3","List 3",plastics,,61,5,1995,62,BOI,-,-,"Please name all of the ways you could use this object. Keep in mind that one object can have many uses. Separate your responses with a comma.",,y,37076,,,2034,36759,,,,"plates, forks, spoons, synthetic, natural",1
W10058771_rnc,6jp4k8lzn5,"BOI Norms",1,41,2021-08-24T20:30:26-07:00,2.7419312000275,3,"updated stim.csv",Version3.csv,"Version 3","List 3",,,,,,0,Instruct,,,"You will now be asked a few questions about your experience today.",,"Instruct 4",2300,,,-1,-1,,,,,1
