Username,ID,ExperimentName,Session,Trial,Date,TimeDif,"Condition Number","Stimuli File","Order File","Condition Description","Condition Notes",Stimuli*Cue,Stimuli*Answer,Stimuli*Shuffle,"Stimuli*Stimuli Notes",Stimuli*Value,Procedure*Item,"Procedure*Trial Type","Procedure*Max Time","Procedure*Min Time",Procedure*Text,"Procedure*Procedure Notes",Procedure*Shuffle,Response*RT,Response*Response,Response*Accuracy,Response*RTfirst,Response*RTlast,Response*strictAcc,Response*lenientAcc,Response*focus,Response*JOL,Response*Focus
w10081611,krfghprrhc,"BOI Norms",1,1,2020-11-19T15:59:15-08:00,10.84493803978,25,"updated stim.csv",Version75.csv,"Version 75","List 75",,,,,,0,Instruct,-,10,"In this section, you will be presented with a series of objects. Please name as many possible uses for this object as you can think of by typing them in the box below each object.",,Instruct1,10556,,,-1,-1,,,,,1
w10081611,krfghprrhc,"BOI Norms",1,2,2020-11-19T15:59:27-08:00,11.78112077713,25,"updated stim.csv",Version75.csv,"Version 75","List 75",,,,,,0,Instruct,-,10,"Please keep in mind that a single object will have more than one use. For example, a ball can be thrown or can be bounced or even stepped on. When listing multiple uses for one object, please separate each use with a comma (i.e., thrown, bounced, stepped on)",,Instruct2,11347,,,-1,-1,,,,,1
w10081611,krfghprrhc,"BOI Norms",1,3,2020-11-19T15:59:29-08:00,2.0820231437683,25,"updated stim.csv",Version75.csv,"Version 75","List 75",,,,,,0,Instruct,-,-,"Before starting the experiment, you will complete a short practice sesstion. Press ENTER when you are ready to begin.",,Instruct3,1700,,,-1,-1,,,,,1
w10081611,krfghprrhc,"BOI Norms",1,4,2020-11-19T16:00:04-08:00,35.097789049149,25,"updated stim.csv",Version75.csv,"Version 75","List 75",grain,,3004,5.217391304,1143,3005,BOI,-,-,"Please name all of the ways you could use this object. Keep in mind that one object can have many uses. Separate your responses with a comma.",,n,34706,,,3780,28370,,,,food,1
w10081611,krfghprrhc,"BOI Norms",1,5,2020-11-19T16:00:58-08:00,53.82008099556,25,"updated stim.csv",Version75.csv,"Version 75","List 75",paperwork,,3001,5.625,1866,3002,BOI,-,-,"Please name all of the ways you could use this object. Keep in mind that one object can have many uses. Separate your responses with a comma.",,n,53422,,,6602,46297,,,,"job, school, volunteering, going to the doctors, applications",1
w10081611,krfghprrhc,"BOI Norms",1,6,2020-11-19T16:01:03-08:00,5.6000168323517,25,"updated stim.csv",Version75.csv,"Version 75","List 75",shortening,,3002,4.92,2358,3003,BOI,-,-,"Please name all of the ways you could use this object. Keep in mind that one object can have many uses. Separate your responses with a comma.",,n,5262,,,3956,4709,,,,baking,1
w10081611,krfghprrhc,"BOI Norms",1,7,2020-11-19T16:01:30-08:00,26.382421016693,25,"updated stim.csv",Version75.csv,"Version 75","List 75",spaghetti,,3003,6,2461,3004,BOI,-,-,"Please name all of the ways you could use this object. Keep in mind that one object can have many uses. Separate your responses with a comma.",,n,26132,,,1733,25948,,,,"eating, selling, buying, bribing, donating",1
w10081611,krfghprrhc,"BOI Norms",1,8,2020-11-19T16:01:40-08:00,10.644082069397,25,"updated stim.csv",Version75.csv,"Version 75","List 75",saucer,,3005,5.777777778,2249,3006,BOI,-,-,"Please name all of the ways you could use this object. Keep in mind that one object can have many uses. Separate your responses with a comma.",,n,10210,,,2053,8991,,,,"flying, cooking ",1
w10081611,krfghprrhc,"BOI Norms",1,9,2020-11-19T16:01:41-08:00,1.1333520412445,25,"updated stim.csv",Version75.csv,"Version 75","List 75",,,,,,0,Instruct,-,-,"You have completed this section. Press ENTER to continue",,"Instruct 5",856,,,-1,-1,,,,,1
w10081611,krfghprrhc,"BOI Norms",1,10,2020-11-19T16:01:44-08:00,2.269063949585,25,"updated stim.csv",Version75.csv,"Version 75","List 75",,,,,,0,Instruct,-,-,"You will now start the full experiment. Press ENTER when you are ready to begin.",,,1857,,,-1,-1,,,,,1
w10081611,krfghprrhc,"BOI Norms",1,11,2020-11-19T16:02:20-08:00,36.558679103851,25,"updated stim.csv",Version75.csv,"Version 75","List 75",pottery,,2241,5.458333333,2050,2242,BOI,-,-,"Please name all of the ways you could use this object. Keep in mind that one object can have many uses. Separate your responses with a comma.",,y,36178,,,3785,35641,,,,"gifts, kitchenware, decoration, art",1
w10081611,krfghprrhc,"BOI Norms",1,12,2020-11-19T16:03:11-08:00,51.139504909515,25,"updated stim.csv",Version75.csv,"Version 75","List 75",laundry,,2221,6.208333333,1472,2222,BOI,-,-,"Please name all of the ways you could use this object. Keep in mind that one object can have many uses. Separate your responses with a comma.",,y,50714,,,6279,50414,,,," folding, washing, drying, cleaning,",1
w10081611,krfghprrhc,"BOI Norms",1,13,2020-11-19T16:03:14-08:00,2.9034929275513,25,"updated stim.csv",Version75.csv,"Version 75","List 75",cookhouse,,2237,4.423076923,632,2238,BOI,-,-,"Please name all of the ways you could use this object. Keep in mind that one object can have many uses. Separate your responses with a comma.",,y,2554,,,-1,-1,,,,,1
w10081611,krfghprrhc,"BOI Norms",1,14,2020-11-19T16:04:04-08:00,49.245000123978,25,"updated stim.csv",Version75.csv,"Version 75","List 75",veterinarian,,2231,5.074074074,2854,2232,BOI,-,-,"Please name all of the ways you could use this object. Keep in mind that one object can have many uses. Separate your responses with a comma.",,y,48907,,,8592,48148,,,,"vaccines, pet care, check-up, emergency care, running a clinic",1
w10081611,krfghprrhc,"BOI Norms",1,15,2020-11-19T16:04:34-08:00,30.85018491745,25,"updated stim.csv",Version75.csv,"Version 75","List 75",vehicle,,2239,6.173913043,2843,2240,BOI,-,-,"Please name all of the ways you could use this object. Keep in mind that one object can have many uses. Separate your responses with a comma.",,y,30501,,,1772,30295,,,,"driving, transportation, selling, buying, gife",1
w10081611,krfghprrhc,"BOI Norms",1,16,2020-11-19T16:05:00-08:00,25.854955911636,25,"updated stim.csv",Version75.csv,"Version 75","List 75",lice,,2229,5,1500,2230,BOI,-,-,"Please name all of the ways you could use this object. Keep in mind that one object can have many uses. Separate your responses with a comma.",,y,25389,,,5351,25177,,,,"parasite, washing hair, revenge",1
w10081611,krfghprrhc,"BOI Norms",1,17,2020-11-19T16:05:46-08:00,45.254288196564,25,"updated stim.csv",Version75.csv,"Version 75","List 75",mousetrap,,2226,4.916666667,1702,2227,BOI,-,-,"Please name all of the ways you could use this object. Keep in mind that one object can have many uses. Separate your responses with a comma.",,y,44760,,,3700,44511,,,,"killing, trapping, revenge, eradication",1
w10081611,krfghprrhc,"BOI Norms",1,18,2020-11-19T16:06:00-08:00,14.489741802216,25,"updated stim.csv",Version75.csv,"Version 75","List 75",washboard,,2250,5.208333333,2896,2251,BOI,-,-,"Please name all of the ways you could use this object. Keep in mind that one object can have many uses. Separate your responses with a comma.",,y,14112,,,1360,9642,,,,"decoration, cleaning",1
w10081611,krfghprrhc,"BOI Norms",1,19,2020-11-19T16:06:25-08:00,25.079240083694,25,"updated stim.csv",Version75.csv,"Version 75","List 75",ingredients,,2227,4.958333333,1355,2228,BOI,-,-,"Please name all of the ways you could use this object. Keep in mind that one object can have many uses. Separate your responses with a comma.",,y,24594,,,2704,24461,,,,"cooking, baking, cleaning, smoothies",1
w10081611,krfghprrhc,"BOI Norms",1,20,2020-11-19T16:06:41-08:00,15.602144956589,25,"updated stim.csv",Version75.csv,"Version 75","List 75",moth,,2225,4.84,1690,2226,BOI,-,-,"Please name all of the ways you could use this object. Keep in mind that one object can have many uses. Separate your responses with a comma.",,y,15165,,,3244,13884,,,,"eating clothing",1
w10081611,krfghprrhc,"BOI Norms",1,21,2020-11-19T16:06:54-08:00,12.938318967819,25,"updated stim.csv",Version75.csv,"Version 75","List 75",doornail,,2244,5.4,827,2245,BOI,-,-,"Please name all of the ways you could use this object. Keep in mind that one object can have many uses. Separate your responses with a comma.",,y,12585,,,4877,12491,,,,"holding door in place",1
w10081611,krfghprrhc,"BOI Norms",1,22,2020-11-19T16:07:32-08:00,38.439595222473,25,"updated stim.csv",Version75.csv,"Version 75","List 75",denim,,2238,5.416666667,773,2239,BOI,-,-,"Please name all of the ways you could use this object. Keep in mind that one object can have many uses. Separate your responses with a comma.",,y,37949,,,1351,30597,,,,"wearing, clothes, bags, product",1
w10081611,krfghprrhc,"BOI Norms",1,23,2020-11-19T16:07:57-08:00,25.227000951767,25,"updated stim.csv",Version75.csv,"Version 75","List 75",wig,,2242,5.913043478,2935,2243,BOI,-,-,"Please name all of the ways you could use this object. Keep in mind that one object can have many uses. Separate your responses with a comma.",,y,24743,,,2335,24478,,,,"wearing, enhancing hair, costume, disguise ",1
w10081611,krfghprrhc,"BOI Norms",1,24,2020-11-19T16:08:03-08:00,5.7922370433807,25,"updated stim.csv",Version75.csv,"Version 75","List 75",housefly,,2245,4.541666667,1330,2246,BOI,-,-,"Please name all of the ways you could use this object. Keep in mind that one object can have many uses. Separate your responses with a comma.",,y,5290,,,-1,-1,,,,,1
w10081611,krfghprrhc,"BOI Norms",1,25,2020-11-19T16:08:22-08:00,19.251595973969,25,"updated stim.csv",Version75.csv,"Version 75","List 75",model,,2235,5.086956522,1674,2236,BOI,-,-,"Please name all of the ways you could use this object. Keep in mind that one object can have many uses. Separate your responses with a comma.",,y,18832,,,1786,18607,,,,"pictures, example, instructions, visual aide",1
w10081611,krfghprrhc,"BOI Norms",1,26,2020-11-19T16:08:30-08:00,7.771075963974,25,"updated stim.csv",Version75.csv,"Version 75","List 75",kindle,,2243,4.4,1420,2244,BOI,-,-,"Please name all of the ways you could use this object. Keep in mind that one object can have many uses. Separate your responses with a comma.",,y,6989,,,3910,6727,,,,"fire, reading",1
w10081611,krfghprrhc,"BOI Norms",1,27,2020-11-19T16:08:46-08:00,16.087229967117,25,"updated stim.csv",Version75.csv,"Version 75","List 75",lavatory,,2249,5.620689655,1473,2250,BOI,-,-,"Please name all of the ways you could use this object. Keep in mind that one object can have many uses. Separate your responses with a comma.",,y,15741,,,4099,15523,,,,"using the bathroom, getting ready",1
w10081611,krfghprrhc,"BOI Norms",1,28,2020-11-19T16:08:53-08:00,6.6500689983368,25,"updated stim.csv",Version75.csv,"Version 75","List 75",primate,,2236,4.375,2063,2237,BOI,-,-,"Please name all of the ways you could use this object. Keep in mind that one object can have many uses. Separate your responses with a comma.",,y,6251,,,4320,4931,,,,,1
w10081611,krfghprrhc,"BOI Norms",1,29,2020-11-19T16:08:57-08:00,3.9224009513855,25,"updated stim.csv",Version75.csv,"Version 75","List 75",shinbone,,2222,4.826086957,2340,2223,BOI,-,-,"Please name all of the ways you could use this object. Keep in mind that one object can have many uses. Separate your responses with a comma.",,y,3523,,,2137,3320,,,,pain,1
w10081611,krfghprrhc,"BOI Norms",1,30,2020-11-19T16:08:59-08:00,1.9239890575409,25,"updated stim.csv",Version75.csv,"Version 75","List 75",waxwork,,2228,4.3,2913,2229,BOI,-,-,"Please name all of the ways you could use this object. Keep in mind that one object can have many uses. Separate your responses with a comma.",,y,1518,,,-1,-1,,,,,1
w10081611,krfghprrhc,"BOI Norms",1,31,2020-11-19T16:09:08-08:00,8.8188529014587,25,"updated stim.csv",Version75.csv,"Version 75","List 75",fudge,,2224,5.68,1063,2225,BOI,-,-,"Please name all of the ways you could use this object. Keep in mind that one object can have many uses. Separate your responses with a comma.",,y,8333,,,2224,8072,,,,"decoration, baking",1
w10081611,krfghprrhc,"BOI Norms",1,32,2020-11-19T16:09:19-08:00,11.752794027328,25,"updated stim.csv",Version75.csv,"Version 75","List 75",motorbike,,2223,6.347826087,1694,2224,BOI,-,-,"Please name all of the ways you could use this object. Keep in mind that one object can have many uses. Separate your responses with a comma.",,y,11160,,,1124,11041,,,,"driving, transportation, sport",1
w10081611,krfghprrhc,"BOI Norms",1,33,2020-11-19T16:09:27-08:00,8.1170380115509,25,"updated stim.csv",Version75.csv,"Version 75","List 75",metalworker,,2230,4.8,1651,2231,BOI,-,-,"Please name all of the ways you could use this object. Keep in mind that one object can have many uses. Separate your responses with a comma.",,y,7758,,,2876,7264,,,,"metal making",1
w10081611,krfghprrhc,"BOI Norms",1,34,2020-11-19T16:09:36-08:00,8.8791470527649,25,"updated stim.csv",Version75.csv,"Version 75","List 75",cheddar,,2246,5.291666667,502,2247,BOI,-,-,"Please name all of the ways you could use this object. Keep in mind that one object can have many uses. Separate your responses with a comma.",,y,8504,,,4902,7700,,,,cooking,1
w10081611,krfghprrhc,"BOI Norms",1,35,2020-11-19T16:09:46-08:00,10.059130907059,25,"updated stim.csv",Version75.csv,"Version 75","List 75",shotgun,,2234,5.826086957,2361,2235,BOI,-,-,"Please name all of the ways you could use this object. Keep in mind that one object can have many uses. Separate your responses with a comma.",,y,9723,,,1512,9490,,,,"killing, weapon, sport",1
w10081611,krfghprrhc,"BOI Norms",1,36,2020-11-19T16:09:49-08:00,3.0486130714417,25,"updated stim.csv",Version75.csv,"Version 75","List 75",quiche,,2233,5.727272727,2114,2234,BOI,-,-,"Please name all of the ways you could use this object. Keep in mind that one object can have many uses. Separate your responses with a comma.",,y,2682,,,1614,2502,,,,eating,1
w10081611,krfghprrhc,"BOI Norms",1,37,2020-11-19T16:10:01-08:00,11.27549290657,25,"updated stim.csv",Version75.csv,"Version 75","List 75",rattle,,2248,4.409090909,2140,2249,BOI,-,-,"Please name all of the ways you could use this object. Keep in mind that one object can have many uses. Separate your responses with a comma.",,y,10915,,,3031,7926,,,,"warning, baby",1
w10081611,krfghprrhc,"BOI Norms",1,38,2020-11-19T16:10:15-08:00,13.87909913063,25,"updated stim.csv",Version75.csv,"Version 75","List 75",whisk,,2247,6,2927,2248,BOI,-,-,"Please name all of the ways you could use this object. Keep in mind that one object can have many uses. Separate your responses with a comma.",,y,13382,,,5041,12768,,,,"cooking, baking, incorporation",1
w10081611,krfghprrhc,"BOI Norms",1,39,2020-11-19T16:10:34-08:00,19.069740056992,25,"updated stim.csv",Version75.csv,"Version 75","List 75",anchor,,2232,5.739130435,39,2233,BOI,-,-,"Please name all of the ways you could use this object. Keep in mind that one object can have many uses. Separate your responses with a comma.",,y,18592,,,2945,18437,,,,"sailing, swimming, building houses",1
w10081611,krfghprrhc,"BOI Norms",1,40,2020-11-19T16:10:52-08:00,18.100751876831,25,"updated stim.csv",Version75.csv,"Version 75","List 75",substance,,2240,4.47826087,2576,2241,BOI,-,-,"Please name all of the ways you could use this object. Keep in mind that one object can have many uses. Separate your responses with a comma.",,y,17716,,,8913,17371,,,,"cooking, experimenting, painting",1
w10081611,krfghprrhc,"BOI Norms",1,41,2020-11-19T16:10:54-08:00,2.4194259643555,25,"updated stim.csv",Version75.csv,"Version 75","List 75",,,,,,0,Instruct,,,"You will now be asked a few questions about your experience today.",,"Instruct 4",2100,,,-1,-1,,,,,1
