Username,ID,ExperimentName,Session,Trial,Date,TimeDif,"Condition Number","Stimuli File","Order File","Condition Description","Condition Notes",Stimuli*Cue,Stimuli*Answer,Stimuli*Shuffle,"Stimuli*Stimuli Notes",Stimuli*Value,Procedure*Item,"Procedure*Trial Type","Procedure*Max Time","Procedure*Min Time",Procedure*Text,"Procedure*Procedure Notes",Procedure*Shuffle,Response*RT,Response*Response,Response*Accuracy,Response*RTfirst,Response*RTlast,Response*strictAcc,Response*lenientAcc,Response*focus,Response*JOL,Response*Focus
w10045361_MBM,wp6v0xmlfq,"BOI Norms",1,1,2021-06-21T07:47:29-07:00,11.001832962036,11,"updated stim.csv",Version86.csv,"Version 86","List 86",,,,,,0,Instruct,-,10,"In this section, you will be presented with a series of objects. Please name as many possible uses for this object as you can think of by typing them in the box below each object.",,Instruct1,10758,,,-1,-1,,,,,1
w10045361_MBM,wp6v0xmlfq,"BOI Norms",1,2,2021-06-21T07:47:40-07:00,10.965474128723,11,"updated stim.csv",Version86.csv,"Version 86","List 86",,,,,,0,Instruct,-,10,"Please keep in mind that a single object will have more than one use. For example, a ball can be thrown or can be bounced or even stepped on. When listing multiple uses for one object, please separate each use with a comma (i.e., thrown, bounced, stepped on)",,Instruct2,10553,,,-1,-1,,,,,1
w10045361_MBM,wp6v0xmlfq,"BOI Norms",1,3,2021-06-21T07:47:45-07:00,4.6041798591614,11,"updated stim.csv",Version86.csv,"Version 86","List 86",,,,,,0,Instruct,-,-,"Before starting the experiment, you will complete a short practice sesstion. Press ENTER when you are ready to begin.",,Instruct3,4274,,,-1,-1,,,,,1
w10045361_MBM,wp6v0xmlfq,"BOI Norms",1,4,2021-06-21T07:48:04-07:00,18.598160028458,11,"updated stim.csv",Version86.csv,"Version 86","List 86",grain,,3004,5.217391304,1143,3005,BOI,-,-,"Please name all of the ways you could use this object. Keep in mind that one object can have many uses. Separate your responses with a comma.",,n,17597,,,4520,14837,,,,"eat, weight, bread",1
w10045361_MBM,wp6v0xmlfq,"BOI Norms",1,5,2021-06-21T07:48:15-07:00,11.219601154327,11,"updated stim.csv",Version86.csv,"Version 86","List 86",saucer,,3005,5.777777778,2249,3006,BOI,-,-,"Please name all of the ways you could use this object. Keep in mind that one object can have many uses. Separate your responses with a comma.",,n,10880,,,3306,9163,,,,"sauce, plate, food",1
w10045361_MBM,wp6v0xmlfq,"BOI Norms",1,6,2021-06-21T07:48:32-07:00,17.398862838745,11,"updated stim.csv",Version86.csv,"Version 86","List 86",shortening,,3002,4.92,2358,3003,BOI,-,-,"Please name all of the ways you could use this object. Keep in mind that one object can have many uses. Separate your responses with a comma.",,n,17071,,,5403,12249,,,,"cooking, losing height",1
w10045361_MBM,wp6v0xmlfq,"BOI Norms",1,7,2021-06-21T07:48:52-07:00,19.462071180344,11,"updated stim.csv",Version86.csv,"Version 86","List 86",paperwork,,3001,5.625,1866,3002,BOI,-,-,"Please name all of the ways you could use this object. Keep in mind that one object can have many uses. Separate your responses with a comma.",,n,19117,,,3490,17500,,,,"school, work, medical",1
w10045361_MBM,wp6v0xmlfq,"BOI Norms",1,8,2021-06-21T07:49:05-07:00,13.016852855682,11,"updated stim.csv",Version86.csv,"Version 86","List 86",spaghetti,,3003,6,2461,3004,BOI,-,-,"Please name all of the ways you could use this object. Keep in mind that one object can have many uses. Separate your responses with a comma.",,n,12659,,,5906,10381,,,,"food, cooking",1
w10045361_MBM,wp6v0xmlfq,"BOI Norms",1,9,2021-06-21T07:49:07-07:00,2.5818240642548,11,"updated stim.csv",Version86.csv,"Version 86","List 86",,,,,,0,Instruct,-,-,"You have completed this section. Press ENTER to continue",,"Instruct 5",2236,,,-1,-1,,,,,1
w10045361_MBM,wp6v0xmlfq,"BOI Norms",1,10,2021-06-21T07:49:11-07:00,3.659551858902,11,"updated stim.csv",Version86.csv,"Version 86","List 86",,,,,,0,Instruct,-,-,"You will now start the full experiment. Press ENTER when you are ready to begin.",,,2937,,,-1,-1,,,,,1
w10045361_MBM,wp6v0xmlfq,"BOI Norms",1,11,2021-06-21T07:49:21-07:00,10.403117179871,11,"updated stim.csv",Version86.csv,"Version 86","List 86",toastmaster,,2561,4.652173913,2711,2562,BOI,-,-,"Please name all of the ways you could use this object. Keep in mind that one object can have many uses. Separate your responses with a comma.",,y,10088,,,3961,8443,,,,"making toast, heating",1
w10045361_MBM,wp6v0xmlfq,"BOI Norms",1,12,2021-06-21T07:49:46-07:00,24.738654851913,11,"updated stim.csv",Version86.csv,"Version 86","List 86",chip,,2563,5.181818182,529,2564,BOI,-,-,"Please name all of the ways you could use this object. Keep in mind that one object can have many uses. Separate your responses with a comma.",,y,24390,,,1431,21786,,,,"eating, cut, california highway patrol",1
w10045361_MBM,wp6v0xmlfq,"BOI Norms",1,13,2021-06-21T07:49:59-07:00,13.041932106018,11,"updated stim.csv",Version86.csv,"Version 86","List 86",fillet,,2554,4.32,975,2555,BOI,-,-,"Please name all of the ways you could use this object. Keep in mind that one object can have many uses. Separate your responses with a comma.",,y,12678,,,4601,9242,,,,"knife, fish",1
w10045361_MBM,wp6v0xmlfq,"BOI Norms",1,14,2021-06-21T07:50:11-07:00,11.717380046844,11,"updated stim.csv",Version86.csv,"Version 86","List 86",sapling,,2555,4.304347826,2240,2556,BOI,-,-,"Please name all of the ways you could use this object. Keep in mind that one object can have many uses. Separate your responses with a comma.",,y,11389,,,9309,9825,,,,tree,1
w10045361_MBM,wp6v0xmlfq,"BOI Norms",1,15,2021-06-21T07:50:22-07:00,11.07778096199,11,"updated stim.csv",Version86.csv,"Version 86","List 86",navel,,2570,5,1737,2571,BOI,-,-,"Please name all of the ways you could use this object. Keep in mind that one object can have many uses. Separate your responses with a comma.",,y,10747,,,4419,8675,,,,"body, drink",1
w10045361_MBM,wp6v0xmlfq,"BOI Norms",1,16,2021-06-21T07:50:41-07:00,18.760653018951,11,"updated stim.csv",Version86.csv,"Version 86","List 86",pug,,2572,5.965517241,2090,2573,BOI,-,-,"Please name all of the ways you could use this object. Keep in mind that one object can have many uses. Separate your responses with a comma.",,y,18441,,,2844,16663,,,,"pet, feed, love",1
w10045361_MBM,wp6v0xmlfq,"BOI Norms",1,17,2021-06-21T07:51:09-07:00,28.357877016068,11,"updated stim.csv",Version86.csv,"Version 86","List 86",plaything,,2560,4.92,2004,2561,BOI,-,-,"Please name all of the ways you could use this object. Keep in mind that one object can have many uses. Separate your responses with a comma.",,y,27876,,,15816,26329,,,,"friend, BDSM, date",1
w10045361_MBM,wp6v0xmlfq,"BOI Norms",1,18,2021-06-21T07:51:20-07:00,10.683775901794,11,"updated stim.csv",Version86.csv,"Version 86","List 86",rainfall,,2577,4.88,2132,2578,BOI,-,-,"Please name all of the ways you could use this object. Keep in mind that one object can have many uses. Separate your responses with a comma.",,y,10354,,,2485,8755,,,,"collect, wash, water",1
w10045361_MBM,wp6v0xmlfq,"BOI Norms",1,19,2021-06-21T07:51:36-07:00,15.836905002594,11,"updated stim.csv",Version86.csv,"Version 86","List 86",crate,,2567,5.304347826,684,2568,BOI,-,-,"Please name all of the ways you could use this object. Keep in mind that one object can have many uses. Separate your responses with a comma.",,y,15488,,,3413,10938,,,,"animals, storage",1
w10045361_MBM,wp6v0xmlfq,"BOI Norms",1,20,2021-06-21T07:52:00-07:00,24.26026892662,11,"updated stim.csv",Version86.csv,"Version 86","List 86",barn,,2569,5.173913043,151,2570,BOI,-,-,"Please name all of the ways you could use this object. Keep in mind that one object can have many uses. Separate your responses with a comma.",,y,23921,,,5490,21687,,,,"storage, workplace, can't hit",1
w10045361_MBM,wp6v0xmlfq,"BOI Norms",1,21,2021-06-21T07:52:18-07:00,18.378760099411,11,"updated stim.csv",Version86.csv,"Version 86","List 86",gravestone,,2564,4.875,1165,2565,BOI,-,-,"Please name all of the ways you could use this object. Keep in mind that one object can have many uses. Separate your responses with a comma.",,y,18016,,,3258,16285,,,,"grieving, celebration, rest ",1
w10045361_MBM,wp6v0xmlfq,"BOI Norms",1,22,2021-06-21T07:52:50-07:00,31.860126972198,11,"updated stim.csv",Version86.csv,"Version 86","List 86",cryptographer,,2575,4.583333333,719,2576,BOI,-,-,"Please name all of the ways you could use this object. Keep in mind that one object can have many uses. Separate your responses with a comma.",,y,31486,,,18282,30154,,,,"security, code, encription",1
w10045361_MBM,wp6v0xmlfq,"BOI Norms",1,23,2021-06-21T07:53:03-07:00,12.890147924423,11,"updated stim.csv",Version86.csv,"Version 86","List 86",snowman,,2553,4.916666667,2435,2554,BOI,-,-,"Please name all of the ways you could use this object. Keep in mind that one object can have many uses. Separate your responses with a comma.",,y,12545,,,2266,10700,,,,"build, destroy, carrot",1
w10045361_MBM,wp6v0xmlfq,"BOI Norms",1,24,2021-06-21T07:53:42-07:00,39.192198038101,11,"updated stim.csv",Version86.csv,"Version 86","List 86",football,,2559,6.12,1030,2560,BOI,-,-,"Please name all of the ways you could use this object. Keep in mind that one object can have many uses. Separate your responses with a comma.",,y,38838,,,2198,37492,,,,"soccer, american, throw, kick, punt",1
w10045361_MBM,wp6v0xmlfq,"BOI Norms",1,25,2021-06-21T07:53:57-07:00,14.87703704834,11,"updated stim.csv",Version86.csv,"Version 86","List 86",wax,,2573,5.291666667,2912,2574,BOI,-,-,"Please name all of the ways you could use this object. Keep in mind that one object can have many uses. Separate your responses with a comma.",,y,14543,,,4115,12846,,,,"candle, remove hair, storage",1
w10045361_MBM,wp6v0xmlfq,"BOI Norms",1,26,2021-06-21T07:54:28-07:00,31.032117128372,11,"updated stim.csv",Version86.csv,"Version 86","List 86",tapioca,,2552,4.454545455,2634,2553,BOI,-,-,"Please name all of the ways you could use this object. Keep in mind that one object can have many uses. Separate your responses with a comma.",,y,30671,,,24490,28337,,,,"eat, make",1
w10045361_MBM,wp6v0xmlfq,"BOI Norms",1,27,2021-06-21T07:54:39-07:00,11.270300865173,11,"updated stim.csv",Version86.csv,"Version 86","List 86",gumbo,,2556,4.619047619,1196,2557,BOI,-,-,"Please name all of the ways you could use this object. Keep in mind that one object can have many uses. Separate your responses with a comma.",,y,10905,,,4145,9673,,,,"celebration, cook, eat",1
w10045361_MBM,wp6v0xmlfq,"BOI Norms",1,28,2021-06-21T07:55:03-07:00,23.981297016144,11,"updated stim.csv",Version86.csv,"Version 86","List 86",dove,,2580,4.333333333,835,2581,BOI,-,-,"Please name all of the ways you could use this object. Keep in mind that one object can have many uses. Separate your responses with a comma.",,y,23647,,,2533,22226,,,,"bird, duck",1
w10045361_MBM,wp6v0xmlfq,"BOI Norms",1,29,2021-06-21T07:55:20-07:00,16.317445039749,11,"updated stim.csv",Version86.csv,"Version 86","List 86",assassin,,2579,4.32,88,2580,BOI,-,-,"Please name all of the ways you could use this object. Keep in mind that one object can have many uses. Separate your responses with a comma.",,y,15973,,,9803,14577,,,,murder-for-hire,1
w10045361_MBM,wp6v0xmlfq,"BOI Norms",1,30,2021-06-21T07:55:41-07:00,20.946657896042,11,"updated stim.csv",Version86.csv,"Version 86","List 86",soldier,,2558,4.56,2446,2559,BOI,-,-,"Please name all of the ways you could use this object. Keep in mind that one object can have many uses. Separate your responses with a comma.",,y,20445,,,4402,19221,,,,"security, war, disaster ",1
w10045361_MBM,wp6v0xmlfq,"BOI Norms",1,31,2021-06-21T07:55:48-07:00,7.8994560241699,11,"updated stim.csv",Version86.csv,"Version 86","List 86",searchlight,,2562,4.391304348,2298,2563,BOI,-,-,"Please name all of the ways you could use this object. Keep in mind that one object can have many uses. Separate your responses with a comma.",,y,7563,,,3987,6215,,,,"see in dark",1
w10045361_MBM,wp6v0xmlfq,"BOI Norms",1,32,2021-06-21T07:56:41-07:00,52.649708986282,11,"updated stim.csv",Version86.csv,"Version 86","List 86",taxpayer,,2571,4.583333333,2640,2572,BOI,-,-,"Please name all of the ways you could use this object. Keep in mind that one object can have many uses. Separate your responses with a comma.",,y,52267,,,8942,51322,,,,"unnecesary ",1
w10045361_MBM,wp6v0xmlfq,"BOI Norms",1,33,2021-06-21T07:56:51-07:00,10.298072099686,11,"updated stim.csv",Version86.csv,"Version 86","List 86",tumbler,,2551,5.136363636,2795,2552,BOI,-,-,"Please name all of the ways you could use this object. Keep in mind that one object can have many uses. Separate your responses with a comma.",,y,9960,,,1874,8752,,,,"drink, store, cool",1
w10045361_MBM,wp6v0xmlfq,"BOI Norms",1,34,2021-06-21T07:57:02-07:00,10.829873085022,11,"updated stim.csv",Version86.csv,"Version 86","List 86",wrench,,2565,6.181818182,2980,2566,BOI,-,-,"Please name all of the ways you could use this object. Keep in mind that one object can have many uses. Separate your responses with a comma.",,y,10331,,,4151,8732,,,,"cars, trucks, planes",1
w10045361_MBM,wp6v0xmlfq,"BOI Norms",1,35,2021-06-21T07:57:21-07:00,19.016207933426,11,"updated stim.csv",Version86.csv,"Version 86","List 86",forearm,,2576,5.782608696,1043,2577,BOI,-,-,"Please name all of the ways you could use this object. Keep in mind that one object can have many uses. Separate your responses with a comma.",,y,18634,,,2978,17416,,,,"strength, working out, shaking hands",1
w10045361_MBM,wp6v0xmlfq,"BOI Norms",1,36,2021-06-21T07:57:34-07:00,12.804136037827,11,"updated stim.csv",Version86.csv,"Version 86","List 86",riverboat,,2574,5.52,2174,2575,BOI,-,-,"Please name all of the ways you could use this object. Keep in mind that one object can have many uses. Separate your responses with a comma.",,y,12469,,,3114,11301,,,,"sleep, fish, party",1
w10045361_MBM,wp6v0xmlfq,"BOI Norms",1,37,2021-06-21T07:57:49-07:00,14.636162996292,11,"updated stim.csv",Version86.csv,"Version 86","List 86",alcohol,,2568,5.833333333,24,2569,BOI,-,-,"Please name all of the ways you could use this object. Keep in mind that one object can have many uses. Separate your responses with a comma.",,y,14310,,,2332,12601,,,,"drink, cooking, sanitation",1
w10045361_MBM,wp6v0xmlfq,"BOI Norms",1,38,2021-06-21T07:57:55-07:00,6.6200358867645,11,"updated stim.csv",Version86.csv,"Version 86","List 86",boutique,,2566,4.692307692,291,2567,BOI,-,-,"Please name all of the ways you could use this object. Keep in mind that one object can have many uses. Separate your responses with a comma.",,y,6249,,,1964,4648,,,,"shop, sell",1
w10045361_MBM,wp6v0xmlfq,"BOI Norms",1,39,2021-06-21T07:58:13-07:00,17.289577960968,11,"updated stim.csv",Version86.csv,"Version 86","List 86",glitter,,2578,4.434782609,1115,2579,BOI,-,-,"Please name all of the ways you could use this object. Keep in mind that one object can have many uses. Separate your responses with a comma.",,y,16970,,,5262,15067,,,,"partys, art",1
w10045361_MBM,wp6v0xmlfq,"BOI Norms",1,40,2021-06-21T07:58:21-07:00,7.9774541854858,11,"updated stim.csv",Version86.csv,"Version 86","List 86",periscope,,2557,4.653846154,1927,2558,BOI,-,-,"Please name all of the ways you could use this object. Keep in mind that one object can have many uses. Separate your responses with a comma.",,y,7620,,,2617,5532,,,,"looking, ships",1
w10045361_MBM,wp6v0xmlfq,"BOI Norms",1,41,2021-06-21T07:58:23-07:00,2.4709918498993,11,"updated stim.csv",Version86.csv,"Version 86","List 86",,,,,,0,Instruct,,,"You will now be asked a few questions about your experience today.",,"Instruct 4",2152,,,-1,-1,,,,,1
