Username,ID,ExperimentName,Session,Trial,Date,TimeDif,"Condition Number","Stimuli File","Order File","Condition Description","Condition Notes",Stimuli*Cue,Stimuli*Answer,Stimuli*Shuffle,"Stimuli*Stimuli Notes",Stimuli*Value,Procedure*Item,"Procedure*Trial Type","Procedure*Max Time","Procedure*Min Time",Procedure*Text,"Procedure*Procedure Notes",Procedure*Shuffle,Response*RT,Response*Response,Response*Accuracy,Response*RTfirst,Response*RTlast,Response*strictAcc,Response*lenientAcc,Response*focus,Response*JOL,Response*Focus
w10049776_hbm,jf3ct5hp6m,"BOI Norms",1,1,2020-11-15T14:18:47-08:00,11.383702993393,25,"updated stim.csv",Version25.csv,"Version 25","List 25",,,,,,0,Instruct,-,10,"In this section, you will be presented with a series of objects. Please name as many possible uses for this object as you can think of by typing them in the box below each object.",,Instruct1,11167,,,-1,-1,,,,,1
w10049776_hbm,jf3ct5hp6m,"BOI Norms",1,2,2020-11-15T14:18:59-08:00,11.520879983902,25,"updated stim.csv",Version25.csv,"Version 25","List 25",,,,,,0,Instruct,-,10,"Please keep in mind that a single object will have more than one use. For example, a ball can be thrown or can be bounced or even stepped on. When listing multiple uses for one object, please separate each use with a comma (i.e., thrown, bounced, stepped on)",,Instruct2,11215,,,-1,-1,,,,,1
w10049776_hbm,jf3ct5hp6m,"BOI Norms",1,3,2020-11-15T14:19:03-08:00,4.2117698192596,25,"updated stim.csv",Version25.csv,"Version 25","List 25",,,,,,0,Instruct,-,-,"Before starting the experiment, you will complete a short practice sesstion. Press ENTER when you are ready to begin.",,Instruct3,3928,,,-1,-1,,,,,1
w10049776_hbm,jf3ct5hp6m,"BOI Norms",1,4,2020-11-15T14:19:18-08:00,15.272941112518,25,"updated stim.csv",Version25.csv,"Version 25","List 25",grain,,3004,5.217391304,1143,3005,BOI,-,-,"Please name all of the ways you could use this object. Keep in mind that one object can have many uses. Separate your responses with a comma.",,n,14972,,,3261,12453,,,,"eat, pick up, step on, cook",1
w10049776_hbm,jf3ct5hp6m,"BOI Norms",1,5,2020-11-15T14:19:51-08:00,32.544073104858,25,"updated stim.csv",Version25.csv,"Version 25","List 25",saucer,,3005,5.777777778,2249,3006,BOI,-,-,"Please name all of the ways you could use this object. Keep in mind that one object can have many uses. Separate your responses with a comma.",,n,32261,,,21709,31378,,,,"place a cup on, pick up, set down, look at",0.922
w10049776_hbm,jf3ct5hp6m,"BOI Norms",1,6,2020-11-15T14:19:59-08:00,8.2567238807678,25,"updated stim.csv",Version25.csv,"Version 25","List 25",shortening,,3002,4.92,2358,3003,BOI,-,-,"Please name all of the ways you could use this object. Keep in mind that one object can have many uses. Separate your responses with a comma.",,n,7987,,,-1,-1,,,,,1
w10049776_hbm,jf3ct5hp6m,"BOI Norms",1,7,2020-11-15T14:20:15-08:00,16.39056801796,25,"updated stim.csv",Version25.csv,"Version 25","List 25",spaghetti,,3003,6,2461,3004,BOI,-,-,"Please name all of the ways you could use this object. Keep in mind that one object can have many uses. Separate your responses with a comma.",,n,16088,,,1432,14362,,,,"eat, cook, drop, twirl around fork ",1
w10049776_hbm,jf3ct5hp6m,"BOI Norms",1,8,2020-11-15T14:20:24-08:00,8.5090980529785,25,"updated stim.csv",Version25.csv,"Version 25","List 25",paperwork,,3001,5.625,1866,3002,BOI,-,-,"Please name all of the ways you could use this object. Keep in mind that one object can have many uses. Separate your responses with a comma.",,n,8232,,,1979,7013,,,,"sign, read over, pick up ",1
w10049776_hbm,jf3ct5hp6m,"BOI Norms",1,9,2020-11-15T14:20:26-08:00,2.130429983139,25,"updated stim.csv",Version25.csv,"Version 25","List 25",,,,,,0,Instruct,-,-,"You have completed this section. Press ENTER to continue",,"Instruct 5",1815,,,-1,-1,,,,,1
w10049776_hbm,jf3ct5hp6m,"BOI Norms",1,10,2020-11-15T14:20:28-08:00,2.0462279319763,25,"updated stim.csv",Version25.csv,"Version 25","List 25",,,,,,0,Instruct,-,-,"You will now start the full experiment. Press ENTER when you are ready to begin.",,,1829,,,-1,-1,,,,,1
w10049776_hbm,jf3ct5hp6m,"BOI Norms",1,11,2020-11-15T14:20:47-08:00,19.088277101517,25,"updated stim.csv",Version25.csv,"Version 25","List 25",perspiration,,722,4.826086957,1931,723,BOI,-,-,"Please name all of the ways you could use this object. Keep in mind that one object can have many uses. Separate your responses with a comma.",,y,18812,,,12667,16506,,,,"feel, see",0.914
w10049776_hbm,jf3ct5hp6m,"BOI Norms",1,12,2020-11-15T14:21:05-08:00,18.45633482933,25,"updated stim.csv",Version25.csv,"Version 25","List 25",dude,,721,5,863,722,BOI,-,-,"Please name all of the ways you could use this object. Keep in mind that one object can have many uses. Separate your responses with a comma.",,y,18158,,,4348,17018,,,,"look at, walk past, interact with, talk to",1
w10049776_hbm,jf3ct5hp6m,"BOI Norms",1,13,2020-11-15T14:21:25-08:00,19.733417987823,25,"updated stim.csv",Version25.csv,"Version 25","List 25",housemaid,,724,4.84,1332,725,BOI,-,-,"Please name all of the ways you could use this object. Keep in mind that one object can have many uses. Separate your responses with a comma.",,y,19464,,,12212,17550,,,,"talk to, watch",1
w10049776_hbm,jf3ct5hp6m,"BOI Norms",1,14,2020-11-15T14:21:34-08:00,9.1275010108948,25,"updated stim.csv",Version25.csv,"Version 25","List 25",capes,,730,4.481481481,425,731,BOI,-,-,"Please name all of the ways you could use this object. Keep in mind that one object can have many uses. Separate your responses with a comma.",,y,8845,,,1367,7881,,,,"wear, pick out, place down",1
w10049776_hbm,jf3ct5hp6m,"BOI Norms",1,15,2020-11-15T14:21:51-08:00,16.984528064728,25,"updated stim.csv",Version25.csv,"Version 25","List 25",cornstarch,,729,5.043478261,650,730,BOI,-,-,"Please name all of the ways you could use this object. Keep in mind that one object can have many uses. Separate your responses with a comma.",,y,16716,,,2106,15774,,,,"use to cook, pick up, look at",1
w10049776_hbm,jf3ct5hp6m,"BOI Norms",1,16,2020-11-15T14:22:05-08:00,13.334455013275,25,"updated stim.csv",Version25.csv,"Version 25","List 25",turntable,,725,5.347826087,2804,726,BOI,-,-,"Please name all of the ways you could use this object. Keep in mind that one object can have many uses. Separate your responses with a comma.",,y,13059,,,2680,9592,,,,"sit at, place things on",1
w10049776_hbm,jf3ct5hp6m,"BOI Norms",1,17,2020-11-15T14:22:25-08:00,20.840089082718,25,"updated stim.csv",Version25.csv,"Version 25","List 25",railroad,,735,4.333333333,2128,736,BOI,-,-,"Please name all of the ways you could use this object. Keep in mind that one object can have many uses. Separate your responses with a comma.",,y,20552,,,1970,19914,,,,"walk across, watch train go across",1
w10049776_hbm,jf3ct5hp6m,"BOI Norms",1,18,2020-11-15T14:22:35-08:00,9.6663718223572,25,"updated stim.csv",Version25.csv,"Version 25","List 25",toupee,,749,6.217391304,2743,750,BOI,-,-,"Please name all of the ways you could use this object. Keep in mind that one object can have many uses. Separate your responses with a comma.",,y,9377,,,2069,8571,,,,"wear, pick up, feel",1
w10049776_hbm,jf3ct5hp6m,"BOI Norms",1,19,2020-11-15T14:22:47-08:00,11.691182136536,25,"updated stim.csv",Version25.csv,"Version 25","List 25",pickaxe,,746,5.333333333,1949,747,BOI,-,-,"Please name all of the ways you could use this object. Keep in mind that one object can have many uses. Separate your responses with a comma.",,y,11403,,,1877,10488,,,,"pick up, use to hit something, place down",1
w10049776_hbm,jf3ct5hp6m,"BOI Norms",1,20,2020-11-15T14:23:03-08:00,16.604390859604,25,"updated stim.csv",Version25.csv,"Version 25","List 25",painkiller,,743,5.518518519,1846,744,BOI,-,-,"Please name all of the ways you could use this object. Keep in mind that one object can have many uses. Separate your responses with a comma.",,y,16331,,,4379,15554,,,,"pick up, swallow, place back in bottle",1
w10049776_hbm,jf3ct5hp6m,"BOI Norms",1,21,2020-11-15T14:23:17-08:00,13.866133213043,25,"updated stim.csv",Version25.csv,"Version 25","List 25",grape,,733,6.214285714,1156,734,BOI,-,-,"Please name all of the ways you could use this object. Keep in mind that one object can have many uses. Separate your responses with a comma.",,y,13599,,,1438,12306,,,,"pick up, place in mouth, ear, look at, pick out",1
w10049776_hbm,jf3ct5hp6m,"BOI Norms",1,22,2020-11-15T14:23:58-08:00,40.430030822754,25,"updated stim.csv",Version25.csv,"Version 25","List 25",cod,,732,4.458333333,591,733,BOI,-,-,"Please name all of the ways you could use this object. Keep in mind that one object can have many uses. Separate your responses with a comma.",,y,40133,,,21388,38408,,,,"kill to eat, fish, place on plate ",0.933
w10049776_hbm,jf3ct5hp6m,"BOI Norms",1,23,2020-11-15T14:24:08-08:00,10.073884010315,25,"updated stim.csv",Version25.csv,"Version 25","List 25",dice,,750,6.192307692,789,751,BOI,-,-,"Please name all of the ways you could use this object. Keep in mind that one object can have many uses. Separate your responses with a comma.",,y,9786,,,1603,8889,,,,"roll, throw, play with ",1
w10049776_hbm,jf3ct5hp6m,"BOI Norms",1,24,2020-11-15T14:24:16-08:00,7.7015681266785,25,"updated stim.csv",Version25.csv,"Version 25","List 25",dryer,,731,5.56,857,732,BOI,-,-,"Please name all of the ways you could use this object. Keep in mind that one object can have many uses. Separate your responses with a comma.",,y,7433,,,1895,6604,,,,"place clothes in, turn on",1
w10049776_hbm,jf3ct5hp6m,"BOI Norms",1,25,2020-11-15T14:24:20-08:00,4.4595880508423,25,"updated stim.csv",Version25.csv,"Version 25","List 25",boxer,,737,4.608695652,295,738,BOI,-,-,"Please name all of the ways you could use this object. Keep in mind that one object can have many uses. Separate your responses with a comma.",,y,4191,,,-1,-1,,,,,1
w10049776_hbm,jf3ct5hp6m,"BOI Norms",1,26,2020-11-15T14:24:28-08:00,8.151312828064,25,"updated stim.csv",Version25.csv,"Version 25","List 25",salmon,,748,4.454545455,2224,749,BOI,-,-,"Please name all of the ways you could use this object. Keep in mind that one object can have many uses. Separate your responses with a comma.",,y,7860,,,2084,5790,,,,"kill, eat, catch",1
w10049776_hbm,jf3ct5hp6m,"BOI Norms",1,27,2020-11-15T14:24:30-08:00,2.1327710151672,25,"updated stim.csv",Version25.csv,"Version 25","List 25",kindling,,747,4.583333333,1421,748,BOI,-,-,"Please name all of the ways you could use this object. Keep in mind that one object can have many uses. Separate your responses with a comma.",,y,1817,,,-1,-1,,,,,1
w10049776_hbm,jf3ct5hp6m,"BOI Norms",1,28,2020-11-15T14:24:42-08:00,11.626992940903,25,"updated stim.csv",Version25.csv,"Version 25","List 25",lock,,740,5.173913043,1535,741,BOI,-,-,"Please name all of the ways you could use this object. Keep in mind that one object can have many uses. Separate your responses with a comma.",,y,11347,,,1747,10271,,,,"place on door, unlock, lock ",1
w10049776_hbm,jf3ct5hp6m,"BOI Norms",1,29,2020-11-15T14:24:52-08:00,9.763738155365,25,"updated stim.csv",Version25.csv,"Version 25","List 25",sandcastle,,741,5.095238095,2236,742,BOI,-,-,"Please name all of the ways you could use this object. Keep in mind that one object can have many uses. Separate your responses with a comma.",,y,9477,,,3193,8768,,,,"build, knock down",1
w10049776_hbm,jf3ct5hp6m,"BOI Norms",1,30,2020-11-15T14:25:04-08:00,12.285843849182,25,"updated stim.csv",Version25.csv,"Version 25","List 25",sandbag,,734,5.25,2233,735,BOI,-,-,"Please name all of the ways you could use this object. Keep in mind that one object can have many uses. Separate your responses with a comma.",,y,12021,,,2120,11081,,,,"pick up, toss, tear",1
w10049776_hbm,jf3ct5hp6m,"BOI Norms",1,31,2020-11-15T14:25:06-08:00,2.4656181335449,25,"updated stim.csv",Version25.csv,"Version 25","List 25",drunkard,,739,4.571428571,856,740,BOI,-,-,"Please name all of the ways you could use this object. Keep in mind that one object can have many uses. Separate your responses with a comma.",,y,2183,,,-1,-1,,,,,1
w10049776_hbm,jf3ct5hp6m,"BOI Norms",1,32,2020-11-15T14:25:17-08:00,10.984441041946,25,"updated stim.csv",Version25.csv,"Version 25","List 25",baton,,744,5.913043478,171,745,BOI,-,-,"Please name all of the ways you could use this object. Keep in mind that one object can have many uses. Separate your responses with a comma.",,y,10708,,,3202,9714,,,,"pick up, hit something with",1
w10049776_hbm,jf3ct5hp6m,"BOI Norms",1,33,2020-11-15T14:25:27-08:00,9.545923948288,25,"updated stim.csv",Version25.csv,"Version 25","List 25",snowflake,,723,5,2434,724,BOI,-,-,"Please name all of the ways you could use this object. Keep in mind that one object can have many uses. Separate your responses with a comma.",,y,9219,,,1529,8321,,,,"catch, watch melt, watch fall",1
w10049776_hbm,jf3ct5hp6m,"BOI Norms",1,34,2020-11-15T14:25:46-08:00,18.751440048218,25,"updated stim.csv",Version25.csv,"Version 25","List 25",sheep,,736,4.5,2328,737,BOI,-,-,"Please name all of the ways you could use this object. Keep in mind that one object can have many uses. Separate your responses with a comma.",,y,18482,,,10432,17888,,,,"pet, look at, care for",1
w10049776_hbm,jf3ct5hp6m,"BOI Norms",1,35,2020-11-15T14:25:52-08:00,6.0974948406219,25,"updated stim.csv",Version25.csv,"Version 25","List 25",seam,,727,4.44,2295,728,BOI,-,-,"Please name all of the ways you could use this object. Keep in mind that one object can have many uses. Separate your responses with a comma.",,y,5821,,,3132,4023,,,,fix,1
w10049776_hbm,jf3ct5hp6m,"BOI Norms",1,36,2020-11-15T14:25:57-08:00,5.2193570137024,25,"updated stim.csv",Version25.csv,"Version 25","List 25",spike,,742,4.615384615,2473,743,BOI,-,-,"Please name all of the ways you could use this object. Keep in mind that one object can have many uses. Separate your responses with a comma.",,y,4943,,,-1,-1,,,,,1
w10049776_hbm,jf3ct5hp6m,"BOI Norms",1,37,2020-11-15T14:26:13-08:00,16.487686157227,25,"updated stim.csv",Version25.csv,"Version 25","List 25",carpet,,728,6.041666667,437,729,BOI,-,-,"Please name all of the ways you could use this object. Keep in mind that one object can have many uses. Separate your responses with a comma.",,y,16204,,,1476,11199,,,,"step on, pick out, look at",1
w10049776_hbm,jf3ct5hp6m,"BOI Norms",1,38,2020-11-15T14:26:15-08:00,1.5706958770752,25,"updated stim.csv",Version25.csv,"Version 25","List 25",cutlet,,745,5.272727273,739,746,BOI,-,-,"Please name all of the ways you could use this object. Keep in mind that one object can have many uses. Separate your responses with a comma.",,y,1354,,,-1,-1,,,,,1
w10049776_hbm,jf3ct5hp6m,"BOI Norms",1,39,2020-11-15T14:26:21-08:00,6.4073650836945,25,"updated stim.csv",Version25.csv,"Version 25","List 25",polyester,,738,5.086956522,2025,739,BOI,-,-,"Please name all of the ways you could use this object. Keep in mind that one object can have many uses. Separate your responses with a comma.",,y,6108,,,2376,5245,,,,"make into clothing",1
w10049776_hbm,jf3ct5hp6m,"BOI Norms",1,40,2020-11-15T14:26:31-08:00,9.2748289108276,25,"updated stim.csv",Version25.csv,"Version 25","List 25",microphone,,726,6.043478261,1654,727,BOI,-,-,"Please name all of the ways you could use this object. Keep in mind that one object can have many uses. Separate your responses with a comma.",,y,9004,,,2033,6189,,,,"speak into, pick up",1
w10049776_hbm,jf3ct5hp6m,"BOI Norms",1,41,2020-11-15T14:26:33-08:00,2.3690760135651,25,"updated stim.csv",Version25.csv,"Version 25","List 25",,,,,,0,Instruct,,,"You will now be asked a few questions about your experience today.",,"Instruct 4",2110,,,-1,-1,,,,,1
