Username,ID,ExperimentName,Session,Trial,Date,TimeDif,"Condition Number","Stimuli File","Order File","Condition Description","Condition Notes",Stimuli*Cue,Stimuli*Answer,Stimuli*Shuffle,"Stimuli*Stimuli Notes",Stimuli*Value,Procedure*Item,"Procedure*Trial Type","Procedure*Max Time","Procedure*Min Time",Procedure*Text,"Procedure*Procedure Notes",Procedure*Shuffle,Response*RT,Response*Response,Response*Accuracy,Response*RTfirst,Response*RTlast,Response*strictAcc,Response*lenientAcc,Response*focus,Response*JOL,Response*Focus
w10115055_LA,1r17tz9mcf,"BOI Norms",1,1,2021-10-03T19:15:39-07:00,28.715590000153,15,"updated stim.csv",Version90.csv,"Version 90","List 90",,,,,,0,Instruct,-,10,"In this section, you will be presented with a series of objects. Please name as many possible uses for this object as you can think of by typing them in the box below each object.",,Instruct1,26894,,,-1,-1,,,,,1
w10115055_LA,1r17tz9mcf,"BOI Norms",1,2,2021-10-03T19:16:00-07:00,21.121078968048,15,"updated stim.csv",Version90.csv,"Version 90","List 90",,,,,,0,Instruct,-,10,"Please keep in mind that a single object will have more than one use. For example, a ball can be thrown or can be bounced or even stepped on. When listing multiple uses for one object, please separate each use with a comma (i.e., thrown, bounced, stepped on)",,Instruct2,18583,,,-1,-1,,,,,1
w10115055_LA,1r17tz9mcf,"BOI Norms",1,3,2021-10-03T19:16:05-07:00,4.5623230934143,15,"updated stim.csv",Version90.csv,"Version 90","List 90",,,,,,0,Instruct,-,-,"Before starting the experiment, you will complete a short practice sesstion. Press ENTER when you are ready to begin.",,Instruct3,4103,,,-1,-1,,,,,1
w10115055_LA,1r17tz9mcf,"BOI Norms",1,4,2021-10-03T19:16:57-07:00,52.294836044312,15,"updated stim.csv",Version90.csv,"Version 90","List 90",saucer,,3005,5.777777778,2249,3006,BOI,-,-,"Please name all of the ways you could use this object. Keep in mind that one object can have many uses. Separate your responses with a comma.",,n,51931,,,44540,50565,,,,"food,soup",1
w10115055_LA,1r17tz9mcf,"BOI Norms",1,5,2021-10-03T19:17:37-07:00,39.8382999897,15,"updated stim.csv",Version90.csv,"Version 90","List 90",paperwork,,3001,5.625,1866,3002,BOI,-,-,"Please name all of the ways you could use this object. Keep in mind that one object can have many uses. Separate your responses with a comma.",,n,39456,,,20826,30196,,,,"office,homework",1
w10115055_LA,1r17tz9mcf,"BOI Norms",1,6,2021-10-03T19:17:48-07:00,10.637849092484,15,"updated stim.csv",Version90.csv,"Version 90","List 90",spaghetti,,3003,6,2461,3004,BOI,-,-,"Please name all of the ways you could use this object. Keep in mind that one object can have many uses. Separate your responses with a comma.",,n,10277,,,2471,8740,,,,"eat,throw,clean",1
w10115055_LA,1r17tz9mcf,"BOI Norms",1,7,2021-10-03T19:18:05-07:00,17.570935964584,15,"updated stim.csv",Version90.csv,"Version 90","List 90",shortening,,3002,4.92,2358,3003,BOI,-,-,"Please name all of the ways you could use this object. Keep in mind that one object can have many uses. Separate your responses with a comma.",,n,17210,,,3829,16437,,,,"cake,person,height",1
w10115055_LA,1r17tz9mcf,"BOI Norms",1,8,2021-10-03T19:18:13-07:00,7.4069850444794,15,"updated stim.csv",Version90.csv,"Version 90","List 90",grain,,3004,5.217391304,1143,3005,BOI,-,-,"Please name all of the ways you could use this object. Keep in mind that one object can have many uses. Separate your responses with a comma.",,n,6969,,,2400,6248,,,,"rice,oatmeal",1
w10115055_LA,1r17tz9mcf,"BOI Norms",1,9,2021-10-03T19:18:20-07:00,7.503378868103,15,"updated stim.csv",Version90.csv,"Version 90","List 90",,,,,,0,Instruct,-,-,"You have completed this section. Press ENTER to continue",,"Instruct 5",7191,,,-1,-1,,,,,1
w10115055_LA,1r17tz9mcf,"BOI Norms",1,10,2021-10-03T19:18:34-07:00,13.5060069561,15,"updated stim.csv",Version90.csv,"Version 90","List 90",,,,,,0,Instruct,-,-,"You will now start the full experiment. Press ENTER when you are ready to begin.",,,13128,,,-1,-1,,,,,1
w10115055_LA,1r17tz9mcf,"BOI Norms",1,11,2021-10-03T19:18:52-07:00,17.92516207695,15,"updated stim.csv",Version90.csv,"Version 90","List 90",cash,,2691,6.36,448,2692,BOI,-,-,"Please name all of the ways you could use this object. Keep in mind that one object can have many uses. Separate your responses with a comma.",,y,17598,,,3048,15911,,,,"pay,recieve,throw",1
w10115055_LA,1r17tz9mcf,"BOI Norms",1,12,2021-10-03T19:19:05-07:00,13.774968862534,15,"updated stim.csv",Version90.csv,"Version 90","List 90",gatekeeper,,2683,4.44,1087,2684,BOI,-,-,"Please name all of the ways you could use this object. Keep in mind that one object can have many uses. Separate your responses with a comma.",,y,13337,,,4993,11401,,,,"bodyguard,plants",1
w10115055_LA,1r17tz9mcf,"BOI Norms",1,13,2021-10-03T19:19:21-07:00,15.77601313591,15,"updated stim.csv",Version90.csv,"Version 90","List 90",buttonhole,,2695,5.074074074,382,2696,BOI,-,-,"Please name all of the ways you could use this object. Keep in mind that one object can have many uses. Separate your responses with a comma.",,y,15405,,,7134,14259,,,,"button,clothes",1
w10115055_LA,1r17tz9mcf,"BOI Norms",1,14,2021-10-03T19:19:38-07:00,17.002937078476,15,"updated stim.csv",Version90.csv,"Version 90","List 90",serviceman,,2694,4.8,2314,2695,BOI,-,-,"Please name all of the ways you could use this object. Keep in mind that one object can have many uses. Separate your responses with a comma.",,y,16645,,,3801,9936,,,,"service,",1
w10115055_LA,1r17tz9mcf,"BOI Norms",1,15,2021-10-03T19:19:51-07:00,12.972243785858,15,"updated stim.csv",Version90.csv,"Version 90","List 90",blister,,2700,5.2,238,2701,BOI,-,-,"Please name all of the ways you could use this object. Keep in mind that one object can have many uses. Separate your responses with a comma.",,y,12589,,,3108,11846,,,,"hurt,foot,uncomfortable",1
w10115055_LA,1r17tz9mcf,"BOI Norms",1,16,2021-10-03T19:19:55-07:00,4.1560242176056,15,"updated stim.csv",Version90.csv,"Version 90","List 90",timber,,2680,4.695652174,2699,2681,BOI,-,-,"Please name all of the ways you could use this object. Keep in mind that one object can have many uses. Separate your responses with a comma.",,y,3778,,,2390,3220,,,,shoes,1
w10115055_LA,1r17tz9mcf,"BOI Norms",1,17,2021-10-03T19:20:22-07:00,27.135475873947,15,"updated stim.csv",Version90.csv,"Version 90","List 90",fig,,2684,5.083333333,972,2685,BOI,-,-,"Please name all of the ways you could use this object. Keep in mind that one object can have many uses. Separate your responses with a comma.",,y,26798,,,13998,26155,,,,eat,1
w10115055_LA,1r17tz9mcf,"BOI Norms",1,18,2021-10-03T19:20:34-07:00,11.298538923264,15,"updated stim.csv",Version90.csv,"Version 90","List 90",tubing,,2673,4.625,2792,2674,BOI,-,-,"Please name all of the ways you could use this object. Keep in mind that one object can have many uses. Separate your responses with a comma.",,y,10943,,,3146,5527,,,,"water,fun,",1
w10115055_LA,1r17tz9mcf,"BOI Norms",1,19,2021-10-03T19:21:04-07:00,30.738265037537,15,"updated stim.csv",Version90.csv,"Version 90","List 90",Saloon,,2689,4.301480485,2225,2690,BOI,-,-,"Please name all of the ways you could use this object. Keep in mind that one object can have many uses. Separate your responses with a comma.",,y,30358,,,29236,29527,,,,fun,1
w10115055_LA,1r17tz9mcf,"BOI Norms",1,20,2021-10-03T19:22:49-07:00,104.08195209503,15,"updated stim.csv",Version90.csv,"Version 90","List 90",antiseptics,,2690,5.041666667,52,2691,BOI,-,-,"Please name all of the ways you could use this object. Keep in mind that one object can have many uses. Separate your responses with a comma.",,y,103578,,,98486,103007,,,,"growth,short",1
w10115055_LA,1r17tz9mcf,"BOI Norms",1,21,2021-10-03T19:23:03-07:00,14.946250915527,15,"updated stim.csv",Version90.csv,"Version 90","List 90",pipe,,2681,5.653846154,1976,2682,BOI,-,-,"Please name all of the ways you could use this object. Keep in mind that one object can have many uses. Separate your responses with a comma.",,y,14459,,,2113,13397,,,,"water,bathroom,kitchen",1
w10115055_LA,1r17tz9mcf,"BOI Norms",1,22,2021-10-03T19:23:25-07:00,21.888975143433,15,"updated stim.csv",Version90.csv,"Version 90","List 90",putty,,2672,5,2107,2673,BOI,-,-,"Please name all of the ways you could use this object. Keep in mind that one object can have many uses. Separate your responses with a comma.",,y,21504,,,14271,15430,,,,squish,1
w10115055_LA,1r17tz9mcf,"BOI Norms",1,23,2021-10-03T19:23:37-07:00,12.072132825851,15,"updated stim.csv",Version90.csv,"Version 90","List 90",workbench,,2674,6.208333333,2968,2675,BOI,-,-,"Please name all of the ways you could use this object. Keep in mind that one object can have many uses. Separate your responses with a comma.",,y,11693,,,2303,10876,,,,"sit,tired,break",1
w10115055_LA,1r17tz9mcf,"BOI Norms",1,24,2021-10-03T19:24:31-07:00,53.685679197311,15,"updated stim.csv",Version90.csv,"Version 90","List 90",reptile,,2679,5,2156,2680,BOI,-,-,"Please name all of the ways you could use this object. Keep in mind that one object can have many uses. Separate your responses with a comma.",,y,53307,,,48122,52519,,,,"gross,shed",1
w10115055_LA,1r17tz9mcf,"BOI Norms",1,25,2021-10-03T19:24:44-07:00,12.987880945206,15,"updated stim.csv",Version90.csv,"Version 90","List 90",stepparent,,2677,5,2528,2678,BOI,-,-,"Please name all of the ways you could use this object. Keep in mind that one object can have many uses. Separate your responses with a comma.",,y,12729,,,2822,11494,,,,"angry,cinderella",1
w10115055_LA,1r17tz9mcf,"BOI Norms",1,26,2021-10-03T19:25:00-07:00,15.394013881683,15,"updated stim.csv",Version90.csv,"Version 90","List 90",plumber,,2699,4.44,2011,2700,BOI,-,-,"Please name all of the ways you could use this object. Keep in mind that one object can have many uses. Separate your responses with a comma.",,y,15108,,,6732,14607,,,,"bathroom,pipes,fix",1
w10115055_LA,1r17tz9mcf,"BOI Norms",1,27,2021-10-03T19:25:09-07:00,9.0755550861359,15,"updated stim.csv",Version90.csv,"Version 90","List 90",organism,,2685,4.727272727,1821,2686,BOI,-,-,"Please name all of the ways you could use this object. Keep in mind that one object can have many uses. Separate your responses with a comma.",,y,8768,,,2177,8153,,,,"living thing",1
w10115055_LA,1r17tz9mcf,"BOI Norms",1,28,2021-10-03T19:25:16-07:00,7.5972599983215,15,"updated stim.csv",Version90.csv,"Version 90","List 90",limes,,2675,5.782608696,1514,2676,BOI,-,-,"Please name all of the ways you could use this object. Keep in mind that one object can have many uses. Separate your responses with a comma.",,y,7326,,,1660,6417,,,,"sour,good,salt",1
w10115055_LA,1r17tz9mcf,"BOI Norms",1,29,2021-10-03T19:25:26-07:00,9.8312540054321,15,"updated stim.csv",Version90.csv,"Version 90","List 90",notepaper,,2692,5.392857143,1782,2693,BOI,-,-,"Please name all of the ways you could use this object. Keep in mind that one object can have many uses. Separate your responses with a comma.",,y,9587,,,2062,8981,,,,"notes,writting,reading",1
w10115055_LA,1r17tz9mcf,"BOI Norms",1,30,2021-10-03T19:25:34-07:00,8.0955119132996,15,"updated stim.csv",Version90.csv,"Version 90","List 90",livestock,,2671,5.041666667,1528,2672,BOI,-,-,"Please name all of the ways you could use this object. Keep in mind that one object can have many uses. Separate your responses with a comma.",,y,7772,,,5351,6542,,,,chicken,1
w10115055_LA,1r17tz9mcf,"BOI Norms",1,31,2021-10-03T19:25:38-07:00,3.9701070785522,15,"updated stim.csv",Version90.csv,"Version 90","List 90",glasses,,2676,6.541666667,1112,2677,BOI,-,-,"Please name all of the ways you could use this object. Keep in mind that one object can have many uses. Separate your responses with a comma.",,y,3634,,,1848,2767,,,,sight,1
w10115055_LA,1r17tz9mcf,"BOI Norms",1,32,2021-10-03T19:25:46-07:00,7.5945370197296,15,"updated stim.csv",Version90.csv,"Version 90","List 90",cup,,2693,6.043478261,726,2694,BOI,-,-,"Please name all of the ways you could use this object. Keep in mind that one object can have many uses. Separate your responses with a comma.",,y,7220,,,2031,6674,,,,"drink,throw,catch",1
w10115055_LA,1r17tz9mcf,"BOI Norms",1,33,2021-10-03T19:26:09-07:00,22.853582859039,15,"updated stim.csv",Version90.csv,"Version 90","List 90",cavalryman,,2682,4.291666667,467,2683,BOI,-,-,"Please name all of the ways you could use this object. Keep in mind that one object can have many uses. Separate your responses with a comma.",,y,22575,,,16863,21979,,,,"knight,savior",1
w10115055_LA,1r17tz9mcf,"BOI Norms",1,34,2021-10-03T19:26:23-07:00,14.540696144104,15,"updated stim.csv",Version90.csv,"Version 90","List 90",rye,,2687,4.407407407,2209,2688,BOI,-,-,"Please name all of the ways you could use this object. Keep in mind that one object can have many uses. Separate your responses with a comma.",,y,14144,,,9389,13499,,,,"grow,harvest",1
w10115055_LA,1r17tz9mcf,"BOI Norms",1,35,2021-10-03T19:26:31-07:00,7.5318160057068,15,"updated stim.csv",Version90.csv,"Version 90","List 90",blackheads,,2678,4.260869565,230,2679,BOI,-,-,"Please name all of the ways you could use this object. Keep in mind that one object can have many uses. Separate your responses with a comma.",,y,7160,,,1802,6348,,,,"pop,remove",1
w10115055_LA,1r17tz9mcf,"BOI Norms",1,36,2021-10-03T19:26:43-07:00,12.28481388092,15,"updated stim.csv",Version90.csv,"Version 90","List 90",goggle,,2696,4.458333333,1130,2697,BOI,-,-,"Please name all of the ways you could use this object. Keep in mind that one object can have many uses. Separate your responses with a comma.",,y,11954,,,2668,10994,,,,"sight,put on,safety",1
w10115055_LA,1r17tz9mcf,"BOI Norms",1,37,2021-10-03T19:26:47-07:00,3.8182551860809,15,"updated stim.csv",Version90.csv,"Version 90","List 90",curry,,2697,4.565217391,731,2698,BOI,-,-,"Please name all of the ways you could use this object. Keep in mind that one object can have many uses. Separate your responses with a comma.",,y,3394,,,1244,2773,,,,"food,eat",1
w10115055_LA,1r17tz9mcf,"BOI Norms",1,38,2021-10-03T19:27:07-07:00,19.964862823486,15,"updated stim.csv",Version90.csv,"Version 90","List 90",clamp,,2688,5.36,546,2689,BOI,-,-,"Please name all of the ways you could use this object. Keep in mind that one object can have many uses. Separate your responses with a comma.",,y,19596,,,15513,18932,,,,instrument,1
w10115055_LA,1r17tz9mcf,"BOI Norms",1,39,2021-10-03T19:27:29-07:00,22.520440101624,15,"updated stim.csv",Version90.csv,"Version 90","List 90",meadow,,2698,4.391304348,1631,2699,BOI,-,-,"Please name all of the ways you could use this object. Keep in mind that one object can have many uses. Separate your responses with a comma.",,y,22171,,,14358,21586,,,,"run,walk,picnic",1
w10115055_LA,1r17tz9mcf,"BOI Norms",1,40,2021-10-03T19:27:34-07:00,4.9982938766479,15,"updated stim.csv",Version90.csv,"Version 90","List 90",poodle,,2686,5.652173913,2032,2687,BOI,-,-,"Please name all of the ways you could use this object. Keep in mind that one object can have many uses. Separate your responses with a comma.",,y,4683,,,1814,4013,,,,"pet,touch",1
w10115055_LA,1r17tz9mcf,"BOI Norms",1,41,2021-10-03T19:27:38-07:00,3.8026721477509,15,"updated stim.csv",Version90.csv,"Version 90","List 90",,,,,,0,Instruct,,,"You will now be asked a few questions about your experience today.",,"Instruct 4",3470,,,-1,-1,,,,,1
