Username,ID,ExperimentName,Session,Trial,Date,TimeDif,"Condition Number","Stimuli File","Order File","Condition Description","Condition Notes",Stimuli*Cue,Stimuli*Answer,Stimuli*Shuffle,"Stimuli*Stimuli Notes",Stimuli*Value,Procedure*Item,"Procedure*Trial Type","Procedure*Max Time","Procedure*Min Time",Procedure*Text,"Procedure*Procedure Notes",Procedure*Shuffle,Response*RT,Response*Response,Response*Accuracy,Response*RTfirst,Response*RTlast,Response*strictAcc,Response*lenientAcc,Response*focus,Response*JOL,Response*Focus
w10012079RA,ndlx7xrtaa,"BOI Norms",1,1,2021-03-05T16:43:36-08:00,11.563290834427,19,"updated stim.csv",Version44.csv,"Version 44","List 44",,,,,,0,Instruct,-,10,"In this section, you will be presented with a series of objects. Please name as many possible uses for this object as you can think of by typing them in the box below each object.",,Instruct1,11397,,,-1,-1,,,,,1
w10012079RA,ndlx7xrtaa,"BOI Norms",1,2,2021-03-05T16:43:48-08:00,12.35781121254,19,"updated stim.csv",Version44.csv,"Version 44","List 44",,,,,,0,Instruct,-,10,"Please keep in mind that a single object will have more than one use. For example, a ball can be thrown or can be bounced or even stepped on. When listing multiple uses for one object, please separate each use with a comma (i.e., thrown, bounced, stepped on)",,Instruct2,11682,,,-1,-1,,,,,1
w10012079RA,ndlx7xrtaa,"BOI Norms",1,3,2021-03-05T16:43:52-08:00,3.6461908817291,19,"updated stim.csv",Version44.csv,"Version 44","List 44",,,,,,0,Instruct,-,-,"Before starting the experiment, you will complete a short practice sesstion. Press ENTER when you are ready to begin.",,Instruct3,3114,,,-1,-1,,,,,1
w10012079RA,ndlx7xrtaa,"BOI Norms",1,4,2021-03-05T16:44:09-08:00,17.516976118088,19,"updated stim.csv",Version44.csv,"Version 44","List 44",spaghetti,,3003,6,2461,3004,BOI,-,-,"Please name all of the ways you could use this object. Keep in mind that one object can have many uses. Separate your responses with a comma.",,n,16151,,,3362,13828,,,,"eat, cook,make,throw",1
w10012079RA,ndlx7xrtaa,"BOI Norms",1,5,2021-03-05T16:44:30-08:00,21.026210784912,19,"updated stim.csv",Version44.csv,"Version 44","List 44",paperwork,,3001,5.625,1866,3002,BOI,-,-,"Please name all of the ways you could use this object. Keep in mind that one object can have many uses. Separate your responses with a comma.",,n,20366,,,3516,19237,,,,"shred,tear,write,work",1
w10012079RA,ndlx7xrtaa,"BOI Norms",1,6,2021-03-05T16:44:51-08:00,20.521216154099,19,"updated stim.csv",Version44.csv,"Version 44","List 44",shortening,,3002,4.92,2358,3003,BOI,-,-,"Please name all of the ways you could use this object. Keep in mind that one object can have many uses. Separate your responses with a comma.",,n,19969,,,9932,18545,,,,"fun,lessen",1
w10012079RA,ndlx7xrtaa,"BOI Norms",1,7,2021-03-05T16:45:22-08:00,31.493813991547,19,"updated stim.csv",Version44.csv,"Version 44","List 44",saucer,,3005,5.777777778,2249,3006,BOI,-,-,"Please name all of the ways you could use this object. Keep in mind that one object can have many uses. Separate your responses with a comma.",,n,31085,,,21293,30408,,,,"drink,pour,hold,contain",1
w10012079RA,ndlx7xrtaa,"BOI Norms",1,8,2021-03-05T16:45:37-08:00,14.704535961151,19,"updated stim.csv",Version44.csv,"Version 44","List 44",grain,,3004,5.217391304,1143,3005,BOI,-,-,"Please name all of the ways you could use this object. Keep in mind that one object can have many uses. Separate your responses with a comma.",,n,14283,,,3047,13442,,,,"cook,clean,eat,flour",1
w10012079RA,ndlx7xrtaa,"BOI Norms",1,9,2021-03-05T16:45:39-08:00,1.7880659103394,19,"updated stim.csv",Version44.csv,"Version 44","List 44",,,,,,0,Instruct,-,-,"You have completed this section. Press ENTER to continue",,"Instruct 5",1333,,,-1,-1,,,,,1
w10012079RA,ndlx7xrtaa,"BOI Norms",1,10,2021-03-05T16:45:41-08:00,1.8935651779175,19,"updated stim.csv",Version44.csv,"Version 44","List 44",,,,,,0,Instruct,-,-,"You will now start the full experiment. Press ENTER when you are ready to begin.",,,1464,,,-1,-1,,,,,1
w10012079RA,ndlx7xrtaa,"BOI Norms",1,11,2021-03-05T16:46:11-08:00,30.454288959503,19,"updated stim.csv",Version44.csv,"Version 44","List 44",footstool,,1311,6.304347826,1039,1312,BOI,-,-,"Please name all of the ways you could use this object. Keep in mind that one object can have many uses. Separate your responses with a comma.",,y,30026,,,13515,29367,,,,"sit,prop,destroy,hit",1
w10012079RA,ndlx7xrtaa,"BOI Norms",1,12,2021-03-05T16:46:30-08:00,18.582327842712,19,"updated stim.csv",Version44.csv,"Version 44","List 44",handbag,,1293,6,1229,1294,BOI,-,-,"Please name all of the ways you could use this object. Keep in mind that one object can have many uses. Separate your responses with a comma.",,y,17984,,,1313,15976,,,,"wear,hit,throw",1
w10012079RA,ndlx7xrtaa,"BOI Norms",1,13,2021-03-05T16:46:44-08:00,13.944068193436,19,"updated stim.csv",Version44.csv,"Version 44","List 44",oregano,,1302,5.64,1819,1303,BOI,-,-,"Please name all of the ways you could use this object. Keep in mind that one object can have many uses. Separate your responses with a comma.",,y,13320,,,1462,10067,,,,"eat,spice,cook,add on, ",1
w10012079RA,ndlx7xrtaa,"BOI Norms",1,14,2021-03-05T16:46:57-08:00,13.415313959122,19,"updated stim.csv",Version44.csv,"Version 44","List 44",glassware,,1303,5.964285714,1113,1304,BOI,-,-,"Please name all of the ways you could use this object. Keep in mind that one object can have many uses. Separate your responses with a comma.",,y,12774,,,1377,11431,,,,"wear,break,shatter,step",1
w10012079RA,ndlx7xrtaa,"BOI Norms",1,15,2021-03-05T16:47:20-08:00,22.712239027023,19,"updated stim.csv",Version44.csv,"Version 44","List 44",caviar,,1307,4.818181818,468,1308,BOI,-,-,"Please name all of the ways you could use this object. Keep in mind that one object can have many uses. Separate your responses with a comma.",,y,22098,,,14405,20457,,,,"order,eat,takeout,mush",1
w10012079RA,ndlx7xrtaa,"BOI Norms",1,16,2021-03-05T16:47:37-08:00,17.585609912872,19,"updated stim.csv",Version44.csv,"Version 44","List 44",cradle,,1306,5.652173913,678,1307,BOI,-,-,"Please name all of the ways you could use this object. Keep in mind that one object can have many uses. Separate your responses with a comma.",,y,17133,,,3372,16516,,,,"cat,make,fix,improve",1
w10012079RA,ndlx7xrtaa,"BOI Norms",1,17,2021-03-05T16:47:49-08:00,12.118261098862,19,"updated stim.csv",Version44.csv,"Version 44","List 44",pepper,,1298,5.875,1921,1299,BOI,-,-,"Please name all of the ways you could use this object. Keep in mind that one object can have many uses. Separate your responses with a comma.",,y,11597,,,1654,10839,,,,"spice,mix,stir,cook",1
w10012079RA,ndlx7xrtaa,"BOI Norms",1,18,2021-03-05T16:48:05-08:00,16.107496023178,19,"updated stim.csv",Version44.csv,"Version 44","List 44",braid,,1318,5.64,301,1319,BOI,-,-,"Please name all of the ways you could use this object. Keep in mind that one object can have many uses. Separate your responses with a comma.",,y,15678,,,3127,14829,,,,"throw,eat,wear",1
w10012079RA,ndlx7xrtaa,"BOI Norms",1,19,2021-03-05T16:48:25-08:00,19.076682806015,19,"updated stim.csv",Version44.csv,"Version 44","List 44",cellophane,,1315,4.703703704,475,1316,BOI,-,-,"Please name all of the ways you could use this object. Keep in mind that one object can have many uses. Separate your responses with a comma.",,y,18504,,,12214,17890,,,,"wrap,hit,throw",1
w10012079RA,ndlx7xrtaa,"BOI Norms",1,20,2021-03-05T16:48:35-08:00,10.59458398819,19,"updated stim.csv",Version44.csv,"Version 44","List 44",newsman,,1310,4.285714286,1759,1311,BOI,-,-,"Please name all of the ways you could use this object. Keep in mind that one object can have many uses. Separate your responses with a comma.",,y,10154,,,2493,9319,,,,"report,listen,yell",1
w10012079RA,ndlx7xrtaa,"BOI Norms",1,21,2021-03-05T16:48:45-08:00,10.142465114594,19,"updated stim.csv",Version44.csv,"Version 44","List 44",barricade,,1319,4.28,155,1320,BOI,-,-,"Please name all of the ways you could use this object. Keep in mind that one object can have many uses. Separate your responses with a comma.",,y,9437,,,3641,8749,,,,"hold,make,fix",1
w10012079RA,ndlx7xrtaa,"BOI Norms",1,22,2021-03-05T16:48:55-08:00,9.8588809967041,19,"updated stim.csv",Version44.csv,"Version 44","List 44",porch,,1313,4.44,2036,1314,BOI,-,-,"Please name all of the ways you could use this object. Keep in mind that one object can have many uses. Separate your responses with a comma.",,y,9152,,,1673,8452,,,,"sit,relax,chill,vibe",1
w10012079RA,ndlx7xrtaa,"BOI Norms",1,23,2021-03-05T16:49:06-08:00,10.951683998108,19,"updated stim.csv",Version44.csv,"Version 44","List 44",pliers,,1300,6.086956522,2007,1301,BOI,-,-,"Please name all of the ways you could use this object. Keep in mind that one object can have many uses. Separate your responses with a comma.",,y,10427,,,2233,9649,,,,"pull,throw,poke",1
w10012079RA,ndlx7xrtaa,"BOI Norms",1,24,2021-03-05T16:49:19-08:00,12.912532091141,19,"updated stim.csv",Version44.csv,"Version 44","List 44",sauna,,1295,5.363636364,2251,1296,BOI,-,-,"Please name all of the ways you could use this object. Keep in mind that one object can have many uses. Separate your responses with a comma.",,y,11826,,,2965,9426,,,,"sit,sweat",1
w10012079RA,ndlx7xrtaa,"BOI Norms",1,25,2021-03-05T16:49:27-08:00,8.4028708934784,19,"updated stim.csv",Version44.csv,"Version 44","List 44",divorcee,,1301,4.5,807,1302,BOI,-,-,"Please name all of the ways you could use this object. Keep in mind that one object can have many uses. Separate your responses with a comma.",,y,7628,,,2817,7095,,,,"marry,kiss,hit",1
w10012079RA,ndlx7xrtaa,"BOI Norms",1,26,2021-03-05T16:49:43-08:00,15.963556051254,19,"updated stim.csv",Version44.csv,"Version 44","List 44",extinguisher,,1296,5.043478261,928,1297,BOI,-,-,"Please name all of the ways you could use this object. Keep in mind that one object can have many uses. Separate your responses with a comma.",,y,15466,,,2230,14920,,,,"hit,throw,explode",1
w10012079RA,ndlx7xrtaa,"BOI Norms",1,27,2021-03-05T16:49:51-08:00,7.2240929603577,19,"updated stim.csv",Version44.csv,"Version 44","List 44",headdress,,1305,5.541666667,1265,1306,BOI,-,-,"Please name all of the ways you could use this object. Keep in mind that one object can have many uses. Separate your responses with a comma.",,y,6799,,,2818,5759,,,,"wear,make",1
w10012079RA,ndlx7xrtaa,"BOI Norms",1,28,2021-03-05T16:50:02-08:00,11.159805059433,19,"updated stim.csv",Version44.csv,"Version 44","List 44",racehorse,,1292,5.208333333,2118,1293,BOI,-,-,"Please name all of the ways you could use this object. Keep in mind that one object can have many uses. Separate your responses with a comma.",,y,10317,,,1468,9511,,,,"ride,clean,wash,feed",1
w10012079RA,ndlx7xrtaa,"BOI Norms",1,29,2021-03-05T16:50:14-08:00,12.569947004318,19,"updated stim.csv",Version44.csv,"Version 44","List 44",watermelon,,1291,5.869565217,2911,1292,BOI,-,-,"Please name all of the ways you could use this object. Keep in mind that one object can have many uses. Separate your responses with a comma.",,y,12005,,,1085,11142,,,,"eat,water,grow,but,throw",1
w10012079RA,ndlx7xrtaa,"BOI Norms",1,30,2021-03-05T16:50:25-08:00,11.115312814713,19,"updated stim.csv",Version44.csv,"Version 44","List 44",compass,,1308,5.538461538,612,1309,BOI,-,-,"Please name all of the ways you could use this object. Keep in mind that one object can have many uses. Separate your responses with a comma.",,y,10673,,,1622,9750,,,,"read,look,watch",1
w10012079RA,ndlx7xrtaa,"BOI Norms",1,31,2021-03-05T16:50:31-08:00,5.174868106842,19,"updated stim.csv",Version44.csv,"Version 44","List 44",carpeting,,1297,5.115384615,438,1298,BOI,-,-,"Please name all of the ways you could use this object. Keep in mind that one object can have many uses. Separate your responses with a comma.",,y,4504,,,2411,2730,,,,make,1
w10012079RA,ndlx7xrtaa,"BOI Norms",1,32,2021-03-05T16:50:51-08:00,20.648655891418,19,"updated stim.csv",Version44.csv,"Version 44","List 44",lyre,,1317,4.45,1561,1318,BOI,-,-,"Please name all of the ways you could use this object. Keep in mind that one object can have many uses. Separate your responses with a comma.",,y,19900,,,13988,17997,,,,"play,string,",1
w10012079RA,ndlx7xrtaa,"BOI Norms",1,33,2021-03-05T16:51:03-08:00,11.450299024582,19,"updated stim.csv",Version44.csv,"Version 44","List 44",beer,,1309,5.791666667,192,1310,BOI,-,-,"Please name all of the ways you could use this object. Keep in mind that one object can have many uses. Separate your responses with a comma.",,y,11005,,,1531,9010,,,,"drink,chugg,throw,stab",1
w10012079RA,ndlx7xrtaa,"BOI Norms",1,34,2021-03-05T16:51:14-08:00,11.027031183243,19,"updated stim.csv",Version44.csv,"Version 44","List 44",residence,,1304,4.333333333,2157,1305,BOI,-,-,"Please name all of the ways you could use this object. Keep in mind that one object can have many uses. Separate your responses with a comma.",,y,10472,,,1107,9511,,,,"live,improve,move",1
w10012079RA,ndlx7xrtaa,"BOI Norms",1,35,2021-03-05T16:51:20-08:00,6.6365089416504,19,"updated stim.csv",Version44.csv,"Version 44","List 44",yearbook,,1294,5.56,2992,1295,BOI,-,-,"Please name all of the ways you could use this object. Keep in mind that one object can have many uses. Separate your responses with a comma.",,y,6003,,,1509,5119,,,,"look,read,throw",1
w10012079RA,ndlx7xrtaa,"BOI Norms",1,36,2021-03-05T16:51:31-08:00,11.071194887161,19,"updated stim.csv",Version44.csv,"Version 44","List 44",vodka,,1312,5.56,2872,1313,BOI,-,-,"Please name all of the ways you could use this object. Keep in mind that one object can have many uses. Separate your responses with a comma.",,y,10323,,,1143,9444,,,,"drink,throw,puke up,",1
w10012079RA,ndlx7xrtaa,"BOI Norms",1,37,2021-03-05T16:51:39-08:00,7.8706381320953,19,"updated stim.csv",Version44.csv,"Version 44","List 44",cow,,1320,5.434782609,671,1321,BOI,-,-,"Please name all of the ways you could use this object. Keep in mind that one object can have many uses. Separate your responses with a comma.",,y,7403,,,1042,6559,,,,"eat,clean,hit",1
w10012079RA,ndlx7xrtaa,"BOI Norms",1,38,2021-03-05T16:51:49-08:00,9.4590308666229,19,"updated stim.csv",Version44.csv,"Version 44","List 44",cabin,,1316,4.56,388,1317,BOI,-,-,"Please name all of the ways you could use this object. Keep in mind that one object can have many uses. Separate your responses with a comma.",,y,9267,,,1157,8133,,,,"sleep,fix,move",1
w10012079RA,ndlx7xrtaa,"BOI Norms",1,39,2021-03-05T16:51:56-08:00,7.0024139881134,19,"updated stim.csv",Version44.csv,"Version 44","List 44",pillar,,1299,5.041666667,1961,1300,BOI,-,-,"Please name all of the ways you could use this object. Keep in mind that one object can have many uses. Separate your responses with a comma.",,y,6820,,,2204,6308,,,,"look,make,move",1
w10012079RA,ndlx7xrtaa,"BOI Norms",1,40,2021-03-05T16:52:04-08:00,8.0128490924835,19,"updated stim.csv",Version44.csv,"Version 44","List 44",shortbread,,1314,5.416666667,2356,1315,BOI,-,-,"Please name all of the ways you could use this object. Keep in mind that one object can have many uses. Separate your responses with a comma.",,y,7719,,,1826,6828,,,,"eat,smell",1
w10012079RA,ndlx7xrtaa,"BOI Norms",1,41,2021-03-05T16:52:06-08:00,2.1163499355316,19,"updated stim.csv",Version44.csv,"Version 44","List 44",,,,,,0,Instruct,,,"You will now be asked a few questions about your experience today.",,"Instruct 4",1742,,,-1,-1,,,,,1
