Username,ID,ExperimentName,Session,Trial,Date,TimeDif,"Condition Number","Stimuli File","Order File","Condition Description","Condition Notes",Stimuli*Cue,Stimuli*Answer,Stimuli*Shuffle,"Stimuli*Stimuli Notes",Stimuli*Value,Procedure*Item,"Procedure*Trial Type","Procedure*Max Time","Procedure*Min Time",Procedure*Text,"Procedure*Procedure Notes",Procedure*Shuffle,Response*RT,Response*Response,Response*Accuracy,Response*RTfirst,Response*RTlast,Response*strictAcc,Response*lenientAcc,Response*focus,Response*JOL,Response*Focus
w10099591_nj,7horix37iz,"BOI Norms",1,1,2021-10-08T10:56:08-07:00,11.81670498848,1,"updated stim.csv",Version76.csv,"Version 76","List 76",,,,,,0,Instruct,-,10,"In this section, you will be presented with a series of objects. Please name as many possible uses for this object as you can think of by typing them in the box below each object.",,Instruct1,11253,,,-1,-1,,,,,1
w10099591_nj,7horix37iz,"BOI Norms",1,2,2021-10-08T10:56:19-07:00,10.775775909424,1,"updated stim.csv",Version76.csv,"Version 76","List 76",,,,,,0,Instruct,-,10,"Please keep in mind that a single object will have more than one use. For example, a ball can be thrown or can be bounced or even stepped on. When listing multiple uses for one object, please separate each use with a comma (i.e., thrown, bounced, stepped on)",,Instruct2,10492,,,-1,-1,,,,,1
w10099591_nj,7horix37iz,"BOI Norms",1,3,2021-10-08T10:56:22-07:00,2.6950981616974,1,"updated stim.csv",Version76.csv,"Version 76","List 76",,,,,,0,Instruct,-,-,"Before starting the experiment, you will complete a short practice sesstion. Press ENTER when you are ready to begin.",,Instruct3,2482,,,-1,-1,,,,,1
w10099591_nj,7horix37iz,"BOI Norms",1,4,2021-10-08T10:56:31-07:00,8.7255449295044,1,"updated stim.csv",Version76.csv,"Version 76","List 76",shortening,,3002,4.92,2358,3003,BOI,-,-,"Please name all of the ways you could use this object. Keep in mind that one object can have many uses. Separate your responses with a comma.",,n,8478,,,2895,5542,,,,baking,1
w10099591_nj,7horix37iz,"BOI Norms",1,5,2021-10-08T10:56:48-07:00,17.204642057419,1,"updated stim.csv",Version76.csv,"Version 76","List 76",grain,,3004,5.217391304,1143,3005,BOI,-,-,"Please name all of the ways you could use this object. Keep in mind that one object can have many uses. Separate your responses with a comma.",,n,16975,,,4812,15705,,,,"oatmeal, proteins, rice",1
w10099591_nj,7horix37iz,"BOI Norms",1,6,2021-10-08T10:57:12-07:00,24.252413988113,1,"updated stim.csv",Version76.csv,"Version 76","List 76",saucer,,3005,5.777777778,2249,3006,BOI,-,-,"Please name all of the ways you could use this object. Keep in mind that one object can have many uses. Separate your responses with a comma.",,n,23999,,,2334,21486,,,,"plate, warming up food",1
w10099591_nj,7horix37iz,"BOI Norms",1,7,2021-10-08T10:57:45-07:00,33.14195394516,1,"updated stim.csv",Version76.csv,"Version 76","List 76",spaghetti,,3003,6,2461,3004,BOI,-,-,"Please name all of the ways you could use this object. Keep in mind that one object can have many uses. Separate your responses with a comma.",,n,32761,,,6620,31993,,,,"baked, cooked, eaten, baby food, toy for toddler",1
w10099591_nj,7horix37iz,"BOI Norms",1,8,2021-10-08T10:58:06-07:00,20.726119995117,1,"updated stim.csv",Version76.csv,"Version 76","List 76",paperwork,,3001,5.625,1866,3002,BOI,-,-,"Please name all of the ways you could use this object. Keep in mind that one object can have many uses. Separate your responses with a comma.",,n,20500,,,6948,19697,,,,"annoying, busywork, time consuming",1
w10099591_nj,7horix37iz,"BOI Norms",1,9,2021-10-08T10:58:08-07:00,2.111298084259,1,"updated stim.csv",Version76.csv,"Version 76","List 76",,,,,,0,Instruct,-,-,"You have completed this section. Press ENTER to continue",,"Instruct 5",1755,,,-1,-1,,,,,1
w10099591_nj,7horix37iz,"BOI Norms",1,10,2021-10-08T10:58:15-07:00,6.5280089378357,1,"updated stim.csv",Version76.csv,"Version 76","List 76",,,,,,0,Instruct,-,-,"You will now start the full experiment. Press ENTER when you are ready to begin.",,,6037,,,-1,-1,,,,,1
w10099591_nj,7horix37iz,"BOI Norms",1,11,2021-10-08T10:58:52-07:00,37.446083068848,1,"updated stim.csv",Version76.csv,"Version 76","List 76",instrument,,2269,5.739130435,1361,2270,BOI,-,-,"Please name all of the ways you could use this object. Keep in mind that one object can have many uses. Separate your responses with a comma.",,y,37200,,,1955,33460,,,,"played in music, used in kitchen, mechanical ",1
w10099591_nj,7horix37iz,"BOI Norms",1,12,2021-10-08T11:00:25-07:00,92.43894982338,1,"updated stim.csv",Version76.csv,"Version 76","List 76",furniture,,2264,6.56,1068,2265,BOI,-,-,"Please name all of the ways you could use this object. Keep in mind that one object can have many uses. Separate your responses with a comma.",,y,91962,,,1573,88195,,,,"sat on, kicked, slept on, plugged in, ate on, cleaned, used as laundry basket, washes clothes, drys clothes, used for cooking ",1
w10099591_nj,7horix37iz,"BOI Norms",1,13,2021-10-08T11:00:38-07:00,13.76069521904,1,"updated stim.csv",Version76.csv,"Version 76","List 76",suppository,,2267,5.782608696,2593,2268,BOI,-,-,"Please name all of the ways you could use this object. Keep in mind that one object can have many uses. Separate your responses with a comma.",,y,13529,,,2205,12214,,,,"used for bowel movements",1
w10099591_nj,7horix37iz,"BOI Norms",1,14,2021-10-08T11:01:09-07:00,30.471051931381,1,"updated stim.csv",Version76.csv,"Version 76","List 76",bracelet,,2262,6.5,300,2263,BOI,-,-,"Please name all of the ways you could use this object. Keep in mind that one object can have many uses. Separate your responses with a comma.",,y,30240,,,1674,29426,,,,"worn, created, shared, broken, destroyed",1
w10099591_nj,7horix37iz,"BOI Norms",1,15,2021-10-08T11:02:49-07:00,99.864505052567,1,"updated stim.csv",Version76.csv,"Version 76","List 76",picture,,2265,5.32,1952,2266,BOI,-,-,"Please name all of the ways you could use this object. Keep in mind that one object can have many uses. Separate your responses with a comma.",,y,99614,,,15453,72909,,,,"looked at, created, destroyed",0.948
w10099591_nj,7horix37iz,"BOI Norms",1,16,2021-10-08T11:02:56-07:00,7.3711040019989,1,"updated stim.csv",Version76.csv,"Version 76","List 76",clipboard,,2260,5.652173913,561,2261,BOI,-,-,"Please name all of the ways you could use this object. Keep in mind that one object can have many uses. Separate your responses with a comma.",,y,7140,,,2518,5624,,,,"used for writing",1
w10099591_nj,7horix37iz,"BOI Norms",1,17,2021-10-08T11:03:20-07:00,24.292142868042,1,"updated stim.csv",Version76.csv,"Version 76","List 76",carton,,2270,5,443,2271,BOI,-,-,"Please name all of the ways you could use this object. Keep in mind that one object can have many uses. Separate your responses with a comma.",,y,24068,,,2560,23110,,,,"holds liquids, arts and crafts, recycling, holds solids",1
w10099591_nj,7horix37iz,"BOI Norms",1,18,2021-10-08T11:03:45-07:00,25.069355964661,1,"updated stim.csv",Version76.csv,"Version 76","List 76",quilt,,2263,5.826086957,2116,2264,BOI,-,-,"Please name all of the ways you could use this object. Keep in mind that one object can have many uses. Separate your responses with a comma.",,y,24838,,,2709,15401,,,,"slept under, slept on, knitted",1
w10099591_nj,7horix37iz,"BOI Norms",1,19,2021-10-08T11:04:47-07:00,61.169573068619,1,"updated stim.csv",Version76.csv,"Version 76","List 76",stair,,2252,5.36,2499,2253,BOI,-,-,"Please name all of the ways you could use this object. Keep in mind that one object can have many uses. Separate your responses with a comma.",,y,60844,,,3535,59273,,,,"walked on, built, jumped over, harmful, inaccessible for wheelchairs and strollers",1
w10099591_nj,7horix37iz,"BOI Norms",1,20,2021-10-08T11:04:50-07:00,3.7661290168762,1,"updated stim.csv",Version76.csv,"Version 76","List 76",bodice,,2272,4.80952381,259,2273,BOI,-,-,"Please name all of the ways you could use this object. Keep in mind that one object can have many uses. Separate your responses with a comma.",,y,3514,,,-1,-1,,,,,1
w10099591_nj,7horix37iz,"BOI Norms",1,21,2021-10-08T11:05:10-07:00,20.135469913483,1,"updated stim.csv",Version76.csv,"Version 76","List 76",pinewood,,2280,4.541666667,1973,2281,BOI,-,-,"Please name all of the ways you could use this object. Keep in mind that one object can have many uses. Separate your responses with a comma.",,y,19888,,,1685,14820,,,,"chopped, painted, grown, burned",1
w10099591_nj,7horix37iz,"BOI Norms",1,22,2021-10-08T11:05:46-07:00,35.643792152405,1,"updated stim.csv",Version76.csv,"Version 76","List 76",skateboard,,2251,6.04,2390,2252,BOI,-,-,"Please name all of the ways you could use this object. Keep in mind that one object can have many uses. Separate your responses with a comma.",,y,35314,,,5494,34248,,,,"created, broken, ridden, dropped, stepped on",1
w10099591_nj,7horix37iz,"BOI Norms",1,23,2021-10-08T11:06:13-07:00,26.992218017578,1,"updated stim.csv",Version76.csv,"Version 76","List 76",jelly,,2268,5.48,1381,2269,BOI,-,-,"Please name all of the ways you could use this object. Keep in mind that one object can have many uses. Separate your responses with a comma.",,y,26607,,,1645,25792,,,,"eaten, created, used in facials, helps mold things",1
w10099591_nj,7horix37iz,"BOI Norms",1,24,2021-10-08T11:06:31-07:00,17.84139084816,1,"updated stim.csv",Version76.csv,"Version 76","List 76",ventilator,,2279,4.72,2848,2280,BOI,-,-,"Please name all of the ways you could use this object. Keep in mind that one object can have many uses. Separate your responses with a comma.",,y,17540,,,2601,15882,,,,"helps with breathing, helps circulate air",1
w10099591_nj,7horix37iz,"BOI Norms",1,25,2021-10-08T11:07:00-07:00,28.814793109894,1,"updated stim.csv",Version76.csv,"Version 76","List 76",underpants,,2255,6,2823,2256,BOI,-,-,"Please name all of the ways you could use this object. Keep in mind that one object can have many uses. Separate your responses with a comma.",,y,28528,,,1524,27859,,,,"worn, created, destroyed, ruined",1
w10099591_nj,7horix37iz,"BOI Norms",1,26,2021-10-08T11:08:52-07:00,111.85142588615,1,"updated stim.csv",Version76.csv,"Version 76","List 76",automobile,,2254,5.64,101,2255,BOI,-,-,"Please name all of the ways you could use this object. Keep in mind that one object can have many uses. Separate your responses with a comma.",,y,111489,,,1766,109899,,,,"driven, created, fixable, crashed, destroyed, painted, eating inside, house, bed, couch, nightlight, happiness, spends money, drains gas",1
w10099591_nj,7horix37iz,"BOI Norms",1,27,2021-10-08T11:09:36-07:00,44.143139123917,1,"updated stim.csv",Version76.csv,"Version 76","List 76",hairdresser,,2278,5.384615385,1212,2279,BOI,-,-,"Please name all of the ways you could use this object. Keep in mind that one object can have many uses. Separate your responses with a comma.",,y,43892,,,3679,42652,,,,"does hair, takes money, distraction, resilient, hardworking, impatient, talkative",1
w10099591_nj,7horix37iz,"BOI Norms",1,28,2021-10-08T11:10:21-07:00,45.583530902863,1,"updated stim.csv",Version76.csv,"Version 76","List 76",student,,2266,5.043478261,2573,2267,BOI,-,-,"Please name all of the ways you could use this object. Keep in mind that one object can have many uses. Separate your responses with a comma.",,y,45334,,,5590,42966,,,,"hardworking, lazy, tired, helping the future",1
w10099591_nj,7horix37iz,"BOI Norms",1,29,2021-10-08T11:10:39-07:00,17.396280050278,1,"updated stim.csv",Version76.csv,"Version 76","List 76",branch,,2275,4.821428571,303,2276,BOI,-,-,"Please name all of the ways you could use this object. Keep in mind that one object can have many uses. Separate your responses with a comma.",,y,17160,,,2111,16084,,,,"used in banking, found on trees, found in the government",1
w10099591_nj,7horix37iz,"BOI Norms",1,30,2021-10-08T11:10:45-07:00,5.8103239536285,1,"updated stim.csv",Version76.csv,"Version 76","List 76",spectacles,,2253,5.28,2466,2254,BOI,-,-,"Please name all of the ways you could use this object. Keep in mind that one object can have many uses. Separate your responses with a comma.",,y,5583,,,2728,4690,,,,"used for sight",1
w10099591_nj,7horix37iz,"BOI Norms",1,31,2021-10-08T11:11:04-07:00,19.788872003555,1,"updated stim.csv",Version76.csv,"Version 76","List 76",thorn,,2259,4.925925926,2683,2260,BOI,-,-,"Please name all of the ways you could use this object. Keep in mind that one object can have many uses. Separate your responses with a comma.",,y,19496,,,6901,18879,,,,"harmful, prickly",1
w10099591_nj,7horix37iz,"BOI Norms",1,32,2021-10-08T11:11:11-07:00,6.864098072052,1,"updated stim.csv",Version76.csv,"Version 76","List 76",underbrush,,2273,4.5,2818,2274,BOI,-,-,"Please name all of the ways you could use this object. Keep in mind that one object can have many uses. Separate your responses with a comma.",,y,6633,,,3163,4079,,,,scary,1
w10099591_nj,7horix37iz,"BOI Norms",1,33,2021-10-08T11:11:14-07:00,2.5739929676056,1,"updated stim.csv",Version76.csv,"Version 76","List 76",slaw,,2277,4.8,2405,2278,BOI,-,-,"Please name all of the ways you could use this object. Keep in mind that one object can have many uses. Separate your responses with a comma.",,y,2335,,,-1,-1,,,,,1
w10099591_nj,7horix37iz,"BOI Norms",1,34,2021-10-08T11:11:25-07:00,10.928936004639,1,"updated stim.csv",Version76.csv,"Version 76","List 76",faucet,,2276,5.869565217,952,2277,BOI,-,-,"Please name all of the ways you could use this object. Keep in mind that one object can have many uses. Separate your responses with a comma.",,y,10706,,,2800,6191,,,,"dispenses water",1
w10099591_nj,7horix37iz,"BOI Norms",1,35,2021-10-08T11:12:06-07:00,41.084690093994,1,"updated stim.csv",Version76.csv,"Version 76","List 76",canine,,2256,5.375,414,2257,BOI,-,-,"Please name all of the ways you could use this object. Keep in mind that one object can have many uses. Separate your responses with a comma.",,y,40816,,,2898,33325,,,," masticate",0.716
w10099591_nj,7horix37iz,"BOI Norms",1,36,2021-10-08T11:12:36-07:00,30.506625890732,1,"updated stim.csv",Version76.csv,"Version 76","List 76",creature,,2257,4.833333333,690,2258,BOI,-,-,"Please name all of the ways you could use this object. Keep in mind that one object can have many uses. Separate your responses with a comma.",,y,30277,,,3700,27312,,,,"fright, helps environment",1
w10099591_nj,7horix37iz,"BOI Norms",1,37,2021-10-08T11:12:44-07:00,7.4042110443115,1,"updated stim.csv",Version76.csv,"Version 76","List 76",archives,,2271,4.333333333,70,2272,BOI,-,-,"Please name all of the ways you could use this object. Keep in mind that one object can have many uses. Separate your responses with a comma.",,y,7037,,,1768,6585,,,,"saving for later",1
w10099591_nj,7horix37iz,"BOI Norms",1,38,2021-10-08T11:13:05-07:00,21.396479845047,1,"updated stim.csv",Version76.csv,"Version 76","List 76",puzzle,,2261,5.44,2108,2262,BOI,-,-,"Please name all of the ways you could use this object. Keep in mind that one object can have many uses. Separate your responses with a comma.",,y,21020,,,2064,19589,,,,"created, put together, boredom, wasting time",1
w10099591_nj,7horix37iz,"BOI Norms",1,39,2021-10-08T11:13:17-07:00,12.388869047165,1,"updated stim.csv",Version76.csv,"Version 76","List 76",caramel,,2274,5.28,429,2275,BOI,-,-,"Please name all of the ways you could use this object. Keep in mind that one object can have many uses. Separate your responses with a comma.",,y,11982,,,2306,10641,,,,"food, coffee, drinks",1
w10099591_nj,7horix37iz,"BOI Norms",1,40,2021-10-08T11:14:06-07:00,48.661496162415,1,"updated stim.csv",Version76.csv,"Version 76","List 76",son,,2258,5.875,2451,2259,BOI,-,-,"Please name all of the ways you could use this object. Keep in mind that one object can have many uses. Separate your responses with a comma.",,y,48412,,,4133,45480,,,,"yard work, trash man",1
w10099591_nj,7horix37iz,"BOI Norms",1,41,2021-10-08T11:14:08-07:00,1.5712180137634,1,"updated stim.csv",Version76.csv,"Version 76","List 76",,,,,,0,Instruct,,,"You will now be asked a few questions about your experience today.",,"Instruct 4",1350,,,-1,-1,,,,,1
