Username,ID,ExperimentName,Session,Trial,Date,TimeDif,"Condition Number","Stimuli File","Order File","Condition Description","Condition Notes",Stimuli*Cue,Stimuli*Answer,Stimuli*Shuffle,"Stimuli*Stimuli Notes",Stimuli*Value,Procedure*Item,"Procedure*Trial Type","Procedure*Max Time","Procedure*Min Time",Procedure*Text,"Procedure*Procedure Notes",Procedure*Shuffle,Response*RT,Response*Response,Response*Accuracy,Response*RTfirst,Response*RTlast,Response*strictAcc,Response*lenientAcc,Response*focus,Response*JOL,Response*Focus
w10016220CMS,di3bto74f5,"BOI Norms",1,1,2021-08-28T18:32:30-07:00,13.249475002289,1,"updated stim.csv",Version26.csv,"Version 26","List 26",,,,,,0,Instruct,-,10,"In this section, you will be presented with a series of objects. Please name as many possible uses for this object as you can think of by typing them in the box below each object.",,Instruct1,13036,,,-1,-1,,,,,1
w10016220CMS,di3bto74f5,"BOI Norms",1,2,2021-08-28T18:33:11-07:00,40.283849000931,1,"updated stim.csv",Version26.csv,"Version 26","List 26",,,,,,0,Instruct,-,10,"Please keep in mind that a single object will have more than one use. For example, a ball can be thrown or can be bounced or even stepped on. When listing multiple uses for one object, please separate each use with a comma (i.e., thrown, bounced, stepped on)",,Instruct2,40009,,,-1,-1,,,,,1
w10016220CMS,di3bto74f5,"BOI Norms",1,3,2021-08-28T18:33:13-07:00,2.0268290042877,1,"updated stim.csv",Version26.csv,"Version 26","List 26",,,,,,0,Instruct,-,-,"Before starting the experiment, you will complete a short practice sesstion. Press ENTER when you are ready to begin.",,Instruct3,1786,,,-1,-1,,,,,1
w10016220CMS,di3bto74f5,"BOI Norms",1,4,2021-08-28T18:33:14-07:00,1.2970948219299,1,"updated stim.csv",Version26.csv,"Version 26","List 26",spaghetti,,3003,6,2461,3004,BOI,-,-,"Please name all of the ways you could use this object. Keep in mind that one object can have many uses. Separate your responses with a comma.",,n,1031,,,-1,-1,,,,,1
w10016220CMS,di3bto74f5,"BOI Norms",1,5,2021-08-28T18:33:14-07:00,0.44383811950684,1,"updated stim.csv",Version26.csv,"Version 26","List 26",saucer,,3005,5.777777778,2249,3006,BOI,-,-,"Please name all of the ways you could use this object. Keep in mind that one object can have many uses. Separate your responses with a comma.",,n,135,,,-1,-1,,,,,1
w10016220CMS,di3bto74f5,"BOI Norms",1,6,2021-08-28T18:33:15-07:00,0.30773091316223,1,"updated stim.csv",Version26.csv,"Version 26","List 26",grain,,3004,5.217391304,1143,3005,BOI,-,-,"Please name all of the ways you could use this object. Keep in mind that one object can have many uses. Separate your responses with a comma.",,n,80,,,-1,-1,,,,,1
w10016220CMS,di3bto74f5,"BOI Norms",1,7,2021-08-28T18:33:15-07:00,0.29308414459229,1,"updated stim.csv",Version26.csv,"Version 26","List 26",shortening,,3002,4.92,2358,3003,BOI,-,-,"Please name all of the ways you could use this object. Keep in mind that one object can have many uses. Separate your responses with a comma.",,n,58,,,-1,-1,,,,,1
w10016220CMS,di3bto74f5,"BOI Norms",1,8,2021-08-28T18:33:15-07:00,0.30697703361511,1,"updated stim.csv",Version26.csv,"Version 26","List 26",paperwork,,3001,5.625,1866,3002,BOI,-,-,"Please name all of the ways you could use this object. Keep in mind that one object can have many uses. Separate your responses with a comma.",,n,75,,,-1,-1,,,,,1
w10016220CMS,di3bto74f5,"BOI Norms",1,9,2021-08-28T18:33:16-07:00,0.3041889667511,1,"updated stim.csv",Version26.csv,"Version 26","List 26",,,,,,0,Instruct,-,-,"You have completed this section. Press ENTER to continue",,"Instruct 5",72,,,-1,-1,,,,,1
w10016220CMS,di3bto74f5,"BOI Norms",1,10,2021-08-28T18:33:16-07:00,0.3070228099823,1,"updated stim.csv",Version26.csv,"Version 26","List 26",,,,,,0,Instruct,-,-,"You will now start the full experiment. Press ENTER when you are ready to begin.",,,82,,,-1,-1,,,,,1
w10016220CMS,di3bto74f5,"BOI Norms",1,11,2021-08-28T18:33:16-07:00,0.3139910697937,1,"updated stim.csv",Version26.csv,"Version 26","List 26",roast,,759,4.821428571,2179,760,BOI,-,-,"Please name all of the ways you could use this object. Keep in mind that one object can have many uses. Separate your responses with a comma.",,y,77,,,-1,-1,,,,,1
w10016220CMS,di3bto74f5,"BOI Norms",1,12,2021-08-28T18:33:16-07:00,0.32385802268982,1,"updated stim.csv",Version26.csv,"Version 26","List 26",thumbscrew,,760,5.173913043,2689,761,BOI,-,-,"Please name all of the ways you could use this object. Keep in mind that one object can have many uses. Separate your responses with a comma.",,y,85,,,-1,-1,,,,,1
w10016220CMS,di3bto74f5,"BOI Norms",1,13,2021-08-28T18:33:17-07:00,0.27868008613586,1,"updated stim.csv",Version26.csv,"Version 26","List 26",hatchet,,779,5.791666667,1261,780,BOI,-,-,"Please name all of the ways you could use this object. Keep in mind that one object can have many uses. Separate your responses with a comma.",,y,54,,,-1,-1,,,,,1
w10016220CMS,di3bto74f5,"BOI Norms",1,14,2021-08-28T18:33:17-07:00,0.29083895683289,1,"updated stim.csv",Version26.csv,"Version 26","List 26",revolver,,775,5.555555556,2161,776,BOI,-,-,"Please name all of the ways you could use this object. Keep in mind that one object can have many uses. Separate your responses with a comma.",,y,67,,,-1,-1,,,,,1
w10016220CMS,di3bto74f5,"BOI Norms",1,15,2021-08-28T18:33:17-07:00,0.31267905235291,1,"updated stim.csv",Version26.csv,"Version 26","List 26",insect,,777,5.125,1357,778,BOI,-,-,"Please name all of the ways you could use this object. Keep in mind that one object can have many uses. Separate your responses with a comma.",,y,80,,,-1,-1,,,,,1
w10016220CMS,di3bto74f5,"BOI Norms",1,16,2021-08-28T18:33:18-07:00,0.31789803504944,1,"updated stim.csv",Version26.csv,"Version 26","List 26",merchantman,,773,4.5,1649,774,BOI,-,-,"Please name all of the ways you could use this object. Keep in mind that one object can have many uses. Separate your responses with a comma.",,y,92,,,-1,-1,,,,,1
w10016220CMS,di3bto74f5,"BOI Norms",1,17,2021-08-28T18:33:18-07:00,0.34725785255432,1,"updated stim.csv",Version26.csv,"Version 26","List 26",paratrooper,,767,4.291666667,1872,768,BOI,-,-,"Please name all of the ways you could use this object. Keep in mind that one object can have many uses. Separate your responses with a comma.",,y,108,,,-1,-1,,,,,1
w10016220CMS,di3bto74f5,"BOI Norms",1,18,2021-08-28T18:33:18-07:00,0.33095097541809,1,"updated stim.csv",Version26.csv,"Version 26","List 26",marble,,776,5.48,1602,777,BOI,-,-,"Please name all of the ways you could use this object. Keep in mind that one object can have many uses. Separate your responses with a comma.",,y,93,,,-1,-1,,,,,1
w10016220CMS,di3bto74f5,"BOI Norms",1,19,2021-08-28T18:33:19-07:00,0.3099319934845,1,"updated stim.csv",Version26.csv,"Version 26","List 26",rucksack,,755,5.041666667,2203,756,BOI,-,-,"Please name all of the ways you could use this object. Keep in mind that one object can have many uses. Separate your responses with a comma.",,y,82,,,-1,-1,,,,,1
w10016220CMS,di3bto74f5,"BOI Norms",1,20,2021-08-28T18:33:19-07:00,0.31344413757324,1,"updated stim.csv",Version26.csv,"Version 26","List 26",steelworker,,778,4.44,2518,779,BOI,-,-,"Please name all of the ways you could use this object. Keep in mind that one object can have many uses. Separate your responses with a comma.",,y,85,,,-1,-1,,,,,1
w10016220CMS,di3bto74f5,"BOI Norms",1,21,2021-08-28T18:33:19-07:00,0.33016800880432,1,"updated stim.csv",Version26.csv,"Version 26","List 26",pal,,765,4.333333333,1852,766,BOI,-,-,"Please name all of the ways you could use this object. Keep in mind that one object can have many uses. Separate your responses with a comma.",,y,103,,,-1,-1,,,,,1
w10016220CMS,di3bto74f5,"BOI Norms",1,22,2021-08-28T18:33:20-07:00,0.33124685287476,1,"updated stim.csv",Version26.csv,"Version 26","List 26",head,,780,5.48,1263,781,BOI,-,-,"Please name all of the ways you could use this object. Keep in mind that one object can have many uses. Separate your responses with a comma.",,y,98,,,-1,-1,,,,,1
w10016220CMS,di3bto74f5,"BOI Norms",1,23,2021-08-28T18:33:20-07:00,0.31593704223633,1,"updated stim.csv",Version26.csv,"Version 26","List 26",snot,,761,5.32,2429,762,BOI,-,-,"Please name all of the ways you could use this object. Keep in mind that one object can have many uses. Separate your responses with a comma.",,y,91,,,-1,-1,,,,,1
w10016220CMS,di3bto74f5,"BOI Norms",1,24,2021-08-28T18:33:20-07:00,0.31773996353149,1,"updated stim.csv",Version26.csv,"Version 26","List 26",prisoner,,753,4.307692308,2067,754,BOI,-,-,"Please name all of the ways you could use this object. Keep in mind that one object can have many uses. Separate your responses with a comma.",,y,78,,,-1,-1,,,,,1
w10016220CMS,di3bto74f5,"BOI Norms",1,25,2021-08-28T18:33:21-07:00,0.30054903030396,1,"updated stim.csv",Version26.csv,"Version 26","List 26",powder,,758,5.416666667,2054,759,BOI,-,-,"Please name all of the ways you could use this object. Keep in mind that one object can have many uses. Separate your responses with a comma.",,y,69,,,-1,-1,,,,,1
w10016220CMS,di3bto74f5,"BOI Norms",1,26,2021-08-28T18:33:21-07:00,0.30828309059143,1,"updated stim.csv",Version26.csv,"Version 26","List 26",magazine,,752,6.166666667,1569,753,BOI,-,-,"Please name all of the ways you could use this object. Keep in mind that one object can have many uses. Separate your responses with a comma.",,y,68,,,-1,-1,,,,,1
w10016220CMS,di3bto74f5,"BOI Norms",1,27,2021-08-28T18:33:21-07:00,0.30045390129089,1,"updated stim.csv",Version26.csv,"Version 26","List 26",weapon,,763,5.52173913,2914,764,BOI,-,-,"Please name all of the ways you could use this object. Keep in mind that one object can have many uses. Separate your responses with a comma.",,y,69,,,-1,-1,,,,,1
w10016220CMS,di3bto74f5,"BOI Norms",1,28,2021-08-28T18:33:21-07:00,0.32096910476685,1,"updated stim.csv",Version26.csv,"Version 26","List 26",crepe,,756,5.416666667,692,757,BOI,-,-,"Please name all of the ways you could use this object. Keep in mind that one object can have many uses. Separate your responses with a comma.",,y,87,,,-1,-1,,,,,1
w10016220CMS,di3bto74f5,"BOI Norms",1,29,2021-08-28T18:33:22-07:00,0.35044384002686,1,"updated stim.csv",Version26.csv,"Version 26","List 26",lamb,,769,4.444444444,1453,770,BOI,-,-,"Please name all of the ways you could use this object. Keep in mind that one object can have many uses. Separate your responses with a comma.",,y,109,,,-1,-1,,,,,1
w10016220CMS,di3bto74f5,"BOI Norms",1,30,2021-08-28T18:33:22-07:00,0.31856298446655,1,"updated stim.csv",Version26.csv,"Version 26","List 26",slug,,751,4.434782609,2418,752,BOI,-,-,"Please name all of the ways you could use this object. Keep in mind that one object can have many uses. Separate your responses with a comma.",,y,84,,,-1,-1,,,,,1
w10016220CMS,di3bto74f5,"BOI Norms",1,31,2021-08-28T18:33:23-07:00,0.35575008392334,1,"updated stim.csv",Version26.csv,"Version 26","List 26",mat,,772,5.814814815,1619,773,BOI,-,-,"Please name all of the ways you could use this object. Keep in mind that one object can have many uses. Separate your responses with a comma.",,y,124,,,-1,-1,,,,,1
w10016220CMS,di3bto74f5,"BOI Norms",1,32,2021-08-28T18:33:23-07:00,0.37146496772766,1,"updated stim.csv",Version26.csv,"Version 26","List 26",tracksuit,,766,5.653846154,2752,767,BOI,-,-,"Please name all of the ways you could use this object. Keep in mind that one object can have many uses. Separate your responses with a comma.",,y,142,,,-1,-1,,,,,1
w10016220CMS,di3bto74f5,"BOI Norms",1,33,2021-08-28T18:33:23-07:00,0.32420706748962,1,"updated stim.csv",Version26.csv,"Version 26","List 26",pincushion,,757,5.260869565,1969,758,BOI,-,-,"Please name all of the ways you could use this object. Keep in mind that one object can have many uses. Separate your responses with a comma.",,y,98,,,-1,-1,,,,,1
w10016220CMS,di3bto74f5,"BOI Norms",1,34,2021-08-28T18:33:24-07:00,0.32273006439209,1,"updated stim.csv",Version26.csv,"Version 26","List 26",poster,,764,5.583333333,2043,765,BOI,-,-,"Please name all of the ways you could use this object. Keep in mind that one object can have many uses. Separate your responses with a comma.",,y,93,,,-1,-1,,,,,1
w10016220CMS,di3bto74f5,"BOI Norms",1,35,2021-08-28T18:33:24-07:00,0.31081199645996,1,"updated stim.csv",Version26.csv,"Version 26","List 26",caretaker,,770,5.071428571,433,771,BOI,-,-,"Please name all of the ways you could use this object. Keep in mind that one object can have many uses. Separate your responses with a comma.",,y,76,,,-1,-1,,,,,1
w10016220CMS,di3bto74f5,"BOI Norms",1,36,2021-08-28T18:33:24-07:00,0.33074688911438,1,"updated stim.csv",Version26.csv,"Version 26","List 26",citrus,,762,4.6,544,763,BOI,-,-,"Please name all of the ways you could use this object. Keep in mind that one object can have many uses. Separate your responses with a comma.",,y,105,,,-1,-1,,,,,1
w10016220CMS,di3bto74f5,"BOI Norms",1,37,2021-08-28T18:33:25-07:00,0.36504912376404,1,"updated stim.csv",Version26.csv,"Version 26","List 26",beverage,,771,6.208333333,206,772,BOI,-,-,"Please name all of the ways you could use this object. Keep in mind that one object can have many uses. Separate your responses with a comma.",,y,129,,,-1,-1,,,,,1
w10016220CMS,di3bto74f5,"BOI Norms",1,38,2021-08-28T18:33:25-07:00,0.32046103477478,1,"updated stim.csv",Version26.csv,"Version 26","List 26",sauce,,754,5.130434783,2247,755,BOI,-,-,"Please name all of the ways you could use this object. Keep in mind that one object can have many uses. Separate your responses with a comma.",,y,90,,,-1,-1,,,,,1
w10016220CMS,di3bto74f5,"BOI Norms",1,39,2021-08-28T18:33:25-07:00,0.31826281547546,1,"updated stim.csv",Version26.csv,"Version 26","List 26",wallet,,768,6.136363636,2888,769,BOI,-,-,"Please name all of the ways you could use this object. Keep in mind that one object can have many uses. Separate your responses with a comma.",,y,86,,,-1,-1,,,,,1
w10016220CMS,di3bto74f5,"BOI Norms",1,40,2021-08-28T18:33:26-07:00,0.36299896240234,1,"updated stim.csv",Version26.csv,"Version 26","List 26",mistletoe,,774,4.592592593,1668,775,BOI,-,-,"Please name all of the ways you could use this object. Keep in mind that one object can have many uses. Separate your responses with a comma.",,y,128,,,-1,-1,,,,,1
w10016220CMS,di3bto74f5,"BOI Norms",1,41,2021-08-28T18:33:26-07:00,0.3327271938324,1,"updated stim.csv",Version26.csv,"Version 26","List 26",,,,,,0,Instruct,,,"You will now be asked a few questions about your experience today.",,"Instruct 4",100,,,-1,-1,,,,,1
