Username,ID,ExperimentName,Session,Trial,Date,TimeDif,"Condition Number","Stimuli File","Order File","Condition Description","Condition Notes",Stimuli*Cue,Stimuli*Answer,Stimuli*Shuffle,"Stimuli*Stimuli Notes",Stimuli*Value,Procedure*Item,"Procedure*Trial Type","Procedure*Max Time","Procedure*Min Time",Procedure*Text,"Procedure*Procedure Notes",Procedure*Shuffle,Response*RT,Response*Response,Response*Accuracy,Response*RTfirst,Response*RTlast,Response*strictAcc,Response*lenientAcc,Response*focus,Response*JOL,Response*Focus
w10035140_jdd,uuc1n1y5cy,"BOI Norms",1,1,2021-04-21T08:34:52-07:00,11.61256313324,1,"updated stim.csv",Version51.csv,"Version 51","List 51",,,,,,0,Instruct,-,10,"In this section, you will be presented with a series of objects. Please name as many possible uses for this object as you can think of by typing them in the box below each object.",,Instruct1,11315,,,-1,-1,,,,,1
w10035140_jdd,uuc1n1y5cy,"BOI Norms",1,2,2021-04-21T08:35:04-07:00,12.024517774582,1,"updated stim.csv",Version51.csv,"Version 51","List 51",,,,,,0,Instruct,-,10,"Please keep in mind that a single object will have more than one use. For example, a ball can be thrown or can be bounced or even stepped on. When listing multiple uses for one object, please separate each use with a comma (i.e., thrown, bounced, stepped on)",,Instruct2,11662,,,-1,-1,,,,,1
w10035140_jdd,uuc1n1y5cy,"BOI Norms",1,3,2021-04-21T08:35:09-07:00,5.5703091621399,1,"updated stim.csv",Version51.csv,"Version 51","List 51",,,,,,0,Instruct,-,-,"Before starting the experiment, you will complete a short practice sesstion. Press ENTER when you are ready to begin.",,Instruct3,5270,,,-1,-1,,,,,1
w10035140_jdd,uuc1n1y5cy,"BOI Norms",1,4,2021-04-21T08:36:07-07:00,57.604269981384,1,"updated stim.csv",Version51.csv,"Version 51","List 51",shortening,,3002,4.92,2358,3003,BOI,-,-,"Please name all of the ways you could use this object. Keep in mind that one object can have many uses. Separate your responses with a comma.",,n,57241,,,1921,54439,,,,"frying, greasing a pan, baking, and cooking greens",1
w10035140_jdd,uuc1n1y5cy,"BOI Norms",1,5,2021-04-21T08:36:57-07:00,49.656848907471,1,"updated stim.csv",Version51.csv,"Version 51","List 51",paperwork,,3001,5.625,1866,3002,BOI,-,-,"Please name all of the ways you could use this object. Keep in mind that one object can have many uses. Separate your responses with a comma.",,n,49322,,,3203,43727,,,,"documentations, studying, and verifications",1
w10035140_jdd,uuc1n1y5cy,"BOI Norms",1,6,2021-04-21T08:37:26-07:00,28.962987184525,1,"updated stim.csv",Version51.csv,"Version 51","List 51",spaghetti,,3003,6,2461,3004,BOI,-,-,"Please name all of the ways you could use this object. Keep in mind that one object can have many uses. Separate your responses with a comma.",,n,28620,,,7472,22787,,,,"pasta, soup, casserole ",1
w10035140_jdd,uuc1n1y5cy,"BOI Norms",1,7,2021-04-21T08:37:58-07:00,32.782972812653,1,"updated stim.csv",Version51.csv,"Version 51","List 51",grain,,3004,5.217391304,1143,3005,BOI,-,-,"Please name all of the ways you could use this object. Keep in mind that one object can have many uses. Separate your responses with a comma.",,n,32496,,,4967,30023,,,,"bread, oatmeal, granola, muffins",1
w10035140_jdd,uuc1n1y5cy,"BOI Norms",1,8,2021-04-21T08:38:33-07:00,34.289849996567,1,"updated stim.csv",Version51.csv,"Version 51","List 51",saucer,,3005,5.777777778,2249,3006,BOI,-,-,"Please name all of the ways you could use this object. Keep in mind that one object can have many uses. Separate your responses with a comma.",,n,34000,,,5990,32372,,,,"eating, decoration",1
w10035140_jdd,uuc1n1y5cy,"BOI Norms",1,9,2021-04-21T08:38:35-07:00,1.8815531730652,1,"updated stim.csv",Version51.csv,"Version 51","List 51",,,,,,0,Instruct,-,-,"You have completed this section. Press ENTER to continue",,"Instruct 5",1548,,,-1,-1,,,,,1
w10035140_jdd,uuc1n1y5cy,"BOI Norms",1,10,2021-04-21T08:38:36-07:00,1.8291609287262,1,"updated stim.csv",Version51.csv,"Version 51","List 51",,,,,,0,Instruct,-,-,"You will now start the full experiment. Press ENTER when you are ready to begin.",,,1580,,,-1,-1,,,,,1
w10035140_jdd,uuc1n1y5cy,"BOI Norms",1,11,2021-04-21T08:39:09-07:00,32.677154064178,1,"updated stim.csv",Version51.csv,"Version 51","List 51",infant,,1512,6.038461538,1353,1513,BOI,-,-,"Please name all of the ways you could use this object. Keep in mind that one object can have many uses. Separate your responses with a comma.",,y,32403,,,7918,31941,,,,"holding, rocking, feeding, clothing, carrying",1
w10035140_jdd,uuc1n1y5cy,"BOI Norms",1,12,2021-04-21T08:40:03-07:00,53.686486959457,1,"updated stim.csv",Version51.csv,"Version 51","List 51",poet,,1518,4.565217391,2017,1519,BOI,-,-,"Please name all of the ways you could use this object. Keep in mind that one object can have many uses. Separate your responses with a comma.",,y,53352,,,10047,53186,,,,"assembly, spoken words, talent shows, presentations",1
w10035140_jdd,uuc1n1y5cy,"BOI Norms",1,13,2021-04-21T08:40:24-07:00,20.845957994461,1,"updated stim.csv",Version51.csv,"Version 51","List 51",yarn,,1505,6.115384615,2991,1506,BOI,-,-,"Please name all of the ways you could use this object. Keep in mind that one object can have many uses. Separate your responses with a comma.",,y,20574,,,1933,19288,,,,"blankets, cats, towels, quilts",1
w10035140_jdd,uuc1n1y5cy,"BOI Norms",1,14,2021-04-21T08:40:50-07:00,26.611047029495,1,"updated stim.csv",Version51.csv,"Version 51","List 51",stepson,,1523,5.304347826,2530,1524,BOI,-,-,"Please name all of the ways you could use this object. Keep in mind that one object can have many uses. Separate your responses with a comma.",,y,26328,,,6321,20902,,,,"mowing the yard, babysitting, taking out trash, ",1
w10035140_jdd,uuc1n1y5cy,"BOI Norms",1,15,2021-04-21T08:41:10-07:00,19.386085987091,1,"updated stim.csv",Version51.csv,"Version 51","List 51",urinal,,1514,5.666666667,2828,1515,BOI,-,-,"Please name all of the ways you could use this object. Keep in mind that one object can have many uses. Separate your responses with a comma.",,y,19097,,,3175,6655,,,,tinkle,1
w10035140_jdd,uuc1n1y5cy,"BOI Norms",1,16,2021-04-21T08:42:20-07:00,70.124315023422,1,"updated stim.csv",Version51.csv,"Version 51","List 51",babe,,1508,4.555555556,110,1509,BOI,-,-,"Please name all of the ways you could use this object. Keep in mind that one object can have many uses. Separate your responses with a comma.",,y,69799,,,66112,69250,,,,looking,1
w10035140_jdd,uuc1n1y5cy,"BOI Norms",1,17,2021-04-21T08:42:43-07:00,23.247750997543,1,"updated stim.csv",Version51.csv,"Version 51","List 51",policeman,,1511,5.428571429,2022,1512,BOI,-,-,"Please name all of the ways you could use this object. Keep in mind that one object can have many uses. Separate your responses with a comma.",,y,22979,,,4033,22735,,,,"survievelence ",1
w10035140_jdd,uuc1n1y5cy,"BOI Norms",1,18,2021-04-21T08:43:05-07:00,21.892246007919,1,"updated stim.csv",Version51.csv,"Version 51","List 51",xylophone,,1503,5.821428571,2986,1504,BOI,-,-,"Please name all of the ways you could use this object. Keep in mind that one object can have many uses. Separate your responses with a comma.",,y,21575,,,11857,14437,,,,"music, band, ",1
w10035140_jdd,uuc1n1y5cy,"BOI Norms",1,19,2021-04-21T08:43:41-07:00,35.963498830795,1,"updated stim.csv",Version51.csv,"Version 51","List 51",scapula,,1524,4.684210526,2265,1525,BOI,-,-,"Please name all of the ways you could use this object. Keep in mind that one object can have many uses. Separate your responses with a comma.",,y,35674,,,3763,34454,,,,"surgery, movement",1
w10035140_jdd,uuc1n1y5cy,"BOI Norms",1,20,2021-04-21T08:43:58-07:00,16.839498996735,1,"updated stim.csv",Version51.csv,"Version 51","List 51",sofa,,1526,6.608695652,2443,1527,BOI,-,-,"Please name all of the ways you could use this object. Keep in mind that one object can have many uses. Separate your responses with a comma.",,y,16548,,,1444,16174,,,,"sitting, sleeping, watching tv, relaxing",1
w10035140_jdd,uuc1n1y5cy,"BOI Norms",1,21,2021-04-21T08:44:32-07:00,34.618625164032,1,"updated stim.csv",Version51.csv,"Version 51","List 51",proprietor,,1520,4.884615385,2076,1521,BOI,-,-,"Please name all of the ways you could use this object. Keep in mind that one object can have many uses. Separate your responses with a comma.",,y,34334,,,27861,34159,,,,"renting, buying",1
w10035140_jdd,uuc1n1y5cy,"BOI Norms",1,22,2021-04-21T08:45:01-07:00,28.26652598381,1,"updated stim.csv",Version51.csv,"Version 51","List 51",shaving,,1510,5.535714286,2324,1511,BOI,-,-,"Please name all of the ways you could use this object. Keep in mind that one object can have many uses. Separate your responses with a comma.",,y,27947,,,23819,27776,,,,moisturizing,1
w10035140_jdd,uuc1n1y5cy,"BOI Norms",1,23,2021-04-21T08:45:38-07:00,37.136977910995,1,"updated stim.csv",Version51.csv,"Version 51","List 51",muffin,,1522,5.875,1711,1523,BOI,-,-,"Please name all of the ways you could use this object. Keep in mind that one object can have many uses. Separate your responses with a comma.",,y,36859,,,1109,36377,,,,"eating, throwing, mushing, baking, cooling, heating, mixing",1
w10035140_jdd,uuc1n1y5cy,"BOI Norms",1,24,2021-04-21T08:45:47-07:00,8.8825891017914,1,"updated stim.csv",Version51.csv,"Version 51","List 51",cabdriver,,1504,5.12,387,1505,BOI,-,-,"Please name all of the ways you could use this object. Keep in mind that one object can have many uses. Separate your responses with a comma.",,y,8599,,,2089,7407,,,,"riding, paying, talking to",1
w10035140_jdd,uuc1n1y5cy,"BOI Norms",1,25,2021-04-21T08:45:55-07:00,8.1020410060883,1,"updated stim.csv",Version51.csv,"Version 51","List 51",staple,,1515,5.32,2507,1516,BOI,-,-,"Please name all of the ways you could use this object. Keep in mind that one object can have many uses. Separate your responses with a comma.",,y,7824,,,2012,6642,,,,"stapling, pulling out",1
w10035140_jdd,uuc1n1y5cy,"BOI Norms",1,26,2021-04-21T08:46:03-07:00,8.7305829524994,1,"updated stim.csv",Version51.csv,"Version 51","List 51",deliverer,,1521,4.52173913,769,1522,BOI,-,-,"Please name all of the ways you could use this object. Keep in mind that one object can have many uses. Separate your responses with a comma.",,y,8403,,,1642,8002,,,,"paying, tipping, talking to",1
w10035140_jdd,uuc1n1y5cy,"BOI Norms",1,27,2021-04-21T08:46:21-07:00,17.800843954086,1,"updated stim.csv",Version51.csv,"Version 51","List 51",blackboard,,1506,5.392857143,228,1507,BOI,-,-,"Please name all of the ways you could use this object. Keep in mind that one object can have many uses. Separate your responses with a comma.",,y,17471,,,1309,17179,,,,"writing, erasing, cleaning",1
w10035140_jdd,uuc1n1y5cy,"BOI Norms",1,28,2021-04-21T08:46:33-07:00,11.744221925735,1,"updated stim.csv",Version51.csv,"Version 51","List 51",banjo,,1513,6.291666667,141,1514,BOI,-,-,"Please name all of the ways you could use this object. Keep in mind that one object can have many uses. Separate your responses with a comma.",,y,11448,,,1788,11038,,,,"strumming, hitting, breaking",1
w10035140_jdd,uuc1n1y5cy,"BOI Norms",1,29,2021-04-21T08:47:01-07:00,27.631462097168,1,"updated stim.csv",Version51.csv,"Version 51","List 51",glass,,1530,6.12,1110,1531,BOI,-,-,"Please name all of the ways you could use this object. Keep in mind that one object can have many uses. Separate your responses with a comma.",,y,27332,,,1387,26879,,,,"drinking, cleaning, looking through, washing, breaking",1
w10035140_jdd,uuc1n1y5cy,"BOI Norms",1,30,2021-04-21T08:47:11-07:00,10.731859922409,1,"updated stim.csv",Version51.csv,"Version 51","List 51",girdle,,1507,5.52173913,1107,1508,BOI,-,-,"Please name all of the ways you could use this object. Keep in mind that one object can have many uses. Separate your responses with a comma.",,y,10431,,,2454,9660,,,,"pulling up, putting on, taking off",1
w10035140_jdd,uuc1n1y5cy,"BOI Norms",1,31,2021-04-21T08:47:18-07:00,6.5045170783997,1,"updated stim.csv",Version51.csv,"Version 51","List 51",sapphire,,1529,5.125,2241,1530,BOI,-,-,"Please name all of the ways you could use this object. Keep in mind that one object can have many uses. Separate your responses with a comma.",,y,6235,,,2587,4689,,,,"looking at",1
w10035140_jdd,uuc1n1y5cy,"BOI Norms",1,32,2021-04-21T08:47:40-07:00,21.846575021744,1,"updated stim.csv",Version51.csv,"Version 51","List 51",candle,,1501,5.166666667,410,1502,BOI,-,-,"Please name all of the ways you could use this object. Keep in mind that one object can have many uses. Separate your responses with a comma.",,y,21576,,,1927,18342,,,,"lighting, extinguishing, moving,",1
w10035140_jdd,uuc1n1y5cy,"BOI Norms",1,33,2021-04-21T08:47:49-07:00,9.6625978946686,1,"updated stim.csv",Version51.csv,"Version 51","List 51",playwright,,1502,4.28,2005,1503,BOI,-,-,"Please name all of the ways you could use this object. Keep in mind that one object can have many uses. Separate your responses with a comma.",,y,9388,,,1608,8342,,,,"reading, acting out, copywriting",1
w10035140_jdd,uuc1n1y5cy,"BOI Norms",1,34,2021-04-21T08:48:14-07:00,24.401095151901,1,"updated stim.csv",Version51.csv,"Version 51","List 51",mayo,,1517,5.956521739,1627,1518,BOI,-,-,"Please name all of the ways you could use this object. Keep in mind that one object can have many uses. Separate your responses with a comma.",,y,24119,,,2522,16290,,,,"sandwiches, burgers, sauces, marinating, ",1
w10035140_jdd,uuc1n1y5cy,"BOI Norms",1,35,2021-04-21T08:49:06-07:00,52.339463949203,1,"updated stim.csv",Version51.csv,"Version 51","List 51",key,,1527,6.28,1411,1528,BOI,-,-,"Please name all of the ways you could use this object. Keep in mind that one object can have many uses. Separate your responses with a comma.",,y,51995,,,1683,51766,,,,"locking doors, grading tests, securing journals, locking carsl, ",1
w10035140_jdd,uuc1n1y5cy,"BOI Norms",1,36,2021-04-21T08:49:21-07:00,15.207083940506,1,"updated stim.csv",Version51.csv,"Version 51","List 51",wheelbarrow,,1528,5.5,2922,1529,BOI,-,-,"Please name all of the ways you could use this object. Keep in mind that one object can have many uses. Separate your responses with a comma.",,y,14919,,,2492,14614,,,,"transporting, pushing, pulling, riding",1
w10035140_jdd,uuc1n1y5cy,"BOI Norms",1,37,2021-04-21T08:49:32-07:00,10.426672935486,1,"updated stim.csv",Version51.csv,"Version 51","List 51",cider,,1509,4.958333333,541,1510,BOI,-,-,"Please name all of the ways you could use this object. Keep in mind that one object can have many uses. Separate your responses with a comma.",,y,10146,,,2756,7284,,,,"drinking, cooking",1
w10035140_jdd,uuc1n1y5cy,"BOI Norms",1,38,2021-04-21T08:49:42-07:00,10.076470136642,1,"updated stim.csv",Version51.csv,"Version 51","List 51",featherbed,,1516,5.434782609,957,1517,BOI,-,-,"Please name all of the ways you could use this object. Keep in mind that one object can have many uses. Separate your responses with a comma.",,y,9791,,,1945,9473,,,,"sleeping, relaxing",1
w10035140_jdd,uuc1n1y5cy,"BOI Norms",1,39,2021-04-21T08:49:54-07:00,12.071779966354,1,"updated stim.csv",Version51.csv,"Version 51","List 51",chili,,1519,5.291666667,523,1520,BOI,-,-,"Please name all of the ways you could use this object. Keep in mind that one object can have many uses. Separate your responses with a comma.",,y,10569,,,1193,10449,,,,"eating, cooking, mixing, adding ingredients",1
w10035140_jdd,uuc1n1y5cy,"BOI Norms",1,40,2021-04-21T08:50:26-07:00,32.257589101791,1,"updated stim.csv",Version51.csv,"Version 51","List 51",onion,,1525,5.476190476,1809,1526,BOI,-,-,"Please name all of the ways you could use this object. Keep in mind that one object can have many uses. Separate your responses with a comma.",,y,31962,,,2360,31726,,,,"smelling, eating, cutting, mincing, smashing, pulsing, blending, roasting",1
w10035140_jdd,uuc1n1y5cy,"BOI Norms",1,41,2021-04-21T08:50:28-07:00,1.6280868053436,1,"updated stim.csv",Version51.csv,"Version 51","List 51",,,,,,0,Instruct,,,"You will now be asked a few questions about your experience today.",,"Instruct 4",1361,,,-1,-1,,,,,1
