Username,ID,ExperimentName,Session,Trial,Date,TimeDif,"Condition Number","Stimuli File","Order File","Condition Description","Condition Notes",Stimuli*Cue,Stimuli*Answer,Stimuli*Shuffle,"Stimuli*Stimuli Notes",Stimuli*Value,Procedure*Item,"Procedure*Trial Type","Procedure*Max Time","Procedure*Min Time",Procedure*Text,"Procedure*Procedure Notes",Procedure*Shuffle,Response*RT,Response*Response,Response*Accuracy,Response*RTfirst,Response*RTlast,Response*strictAcc,Response*lenientAcc,Response*focus,Response*JOL,Response*Focus
w10006851_sdm,dcyuw9uiu1,"BOI Norms",1,1,2020-11-17T14:21:49-08:00,11.608788967133,22,"updated stim.csv",Version47.csv,"Version 47","List 47",,,,,,0,Instruct,-,10,"In this section, you will be presented with a series of objects. Please name as many possible uses for this object as you can think of by typing them in the box below each object.",,Instruct1,11411,,,-1,-1,,,,,1
w10006851_sdm,dcyuw9uiu1,"BOI Norms",1,2,2020-11-17T14:22:00-08:00,11.774435043335,22,"updated stim.csv",Version47.csv,"Version 47","List 47",,,,,,0,Instruct,-,10,"Please keep in mind that a single object will have more than one use. For example, a ball can be thrown or can be bounced or even stepped on. When listing multiple uses for one object, please separate each use with a comma (i.e., thrown, bounced, stepped on)",,Instruct2,11495,,,-1,-1,,,,,1
w10006851_sdm,dcyuw9uiu1,"BOI Norms",1,3,2020-11-17T14:22:05-08:00,4.2832460403442,22,"updated stim.csv",Version47.csv,"Version 47","List 47",,,,,,0,Instruct,-,-,"Before starting the experiment, you will complete a short practice sesstion. Press ENTER when you are ready to begin.",,Instruct3,3975,,,-1,-1,,,,,1
w10006851_sdm,dcyuw9uiu1,"BOI Norms",1,4,2020-11-17T14:22:43-08:00,38.484476804733,22,"updated stim.csv",Version47.csv,"Version 47","List 47",spaghetti,,3003,6,2461,3004,BOI,-,-,"Please name all of the ways you could use this object. Keep in mind that one object can have many uses. Separate your responses with a comma.",,n,38204,,,6211,27034,,,,"Eat, cook",1
w10006851_sdm,dcyuw9uiu1,"BOI Norms",1,5,2020-11-17T14:23:39-08:00,55.723742008209,22,"updated stim.csv",Version47.csv,"Version 47","List 47",saucer,,3005,5.777777778,2249,3006,BOI,-,-,"Please name all of the ways you could use this object. Keep in mind that one object can have many uses. Separate your responses with a comma.",,n,55256,,,1713,54479,,,,"Hold a cup, hold food",1
w10006851_sdm,dcyuw9uiu1,"BOI Norms",1,6,2020-11-17T14:24:27-08:00,48.56924700737,22,"updated stim.csv",Version47.csv,"Version 47","List 47",shortening,,3002,4.92,2358,3003,BOI,-,-,"Please name all of the ways you could use this object. Keep in mind that one object can have many uses. Separate your responses with a comma.",,n,48062,,,19769,42048,,,,"Baking, cooking, seasoning, ",1
w10006851_sdm,dcyuw9uiu1,"BOI Norms",1,7,2020-11-17T14:25:02-08:00,34.911839008331,22,"updated stim.csv",Version47.csv,"Version 47","List 47",grain,,3004,5.217391304,1143,3005,BOI,-,-,"Please name all of the ways you could use this object. Keep in mind that one object can have many uses. Separate your responses with a comma.",,n,34603,,,2997,34190,,,,"Cooking, baking, eating",1
w10006851_sdm,dcyuw9uiu1,"BOI Norms",1,8,2020-11-17T14:25:43-08:00,40.809982061386,22,"updated stim.csv",Version47.csv,"Version 47","List 47",paperwork,,3001,5.625,1866,3002,BOI,-,-,"Please name all of the ways you could use this object. Keep in mind that one object can have many uses. Separate your responses with a comma.",,n,40517,,,5346,39198,,,,"Divorce, divorce, writing a ticket",1
w10006851_sdm,dcyuw9uiu1,"BOI Norms",1,9,2020-11-17T14:25:45-08:00,1.6831560134888,22,"updated stim.csv",Version47.csv,"Version 47","List 47",,,,,,0,Instruct,-,-,"You have completed this section. Press ENTER to continue",,"Instruct 5",1405,,,-1,-1,,,,,1
w10006851_sdm,dcyuw9uiu1,"BOI Norms",1,10,2020-11-17T14:25:47-08:00,1.8499948978424,22,"updated stim.csv",Version47.csv,"Version 47","List 47",,,,,,0,Instruct,-,-,"You will now start the full experiment. Press ENTER when you are ready to begin.",,,1586,,,-1,-1,,,,,1
w10006851_sdm,dcyuw9uiu1,"BOI Norms",1,11,2020-11-17T14:26:17-08:00,30.697442054749,22,"updated stim.csv",Version47.csv,"Version 47","List 47",newspaper,,1406,5.76,1760,1407,BOI,-,-,"Please name all of the ways you could use this object. Keep in mind that one object can have many uses. Separate your responses with a comma.",,y,30427,,,5395,29614,,,,"Read, kill a fly, dog poop or pee",1
w10006851_sdm,dcyuw9uiu1,"BOI Norms",1,12,2020-11-17T14:26:50-08:00,32.42480301857,22,"updated stim.csv",Version47.csv,"Version 47","List 47",firstborn,,1394,4.518518519,988,1395,BOI,-,-,"Please name all of the ways you could use this object. Keep in mind that one object can have many uses. Separate your responses with a comma.",,y,32126,,,11209,31270,,,,"House work, taking care of you when you're old",1
w10006851_sdm,dcyuw9uiu1,"BOI Norms",1,13,2020-11-17T14:27:04-08:00,13.974292993546,22,"updated stim.csv",Version47.csv,"Version 47","List 47",apron,,1385,5.96,67,1386,BOI,-,-,"Please name all of the ways you could use this object. Keep in mind that one object can have many uses. Separate your responses with a comma.",,y,13705,,,1554,5333,,,,"Cooking, baking",1
w10006851_sdm,dcyuw9uiu1,"BOI Norms",1,14,2020-11-17T14:27:22-08:00,18.518476009369,22,"updated stim.csv",Version47.csv,"Version 47","List 47",sled,,1392,6.086956522,2406,1393,BOI,-,-,"Please name all of the ways you could use this object. Keep in mind that one object can have many uses. Separate your responses with a comma.",,y,18243,,,3221,17470,,,,"Racing, pulling something heavy",1
w10006851_sdm,dcyuw9uiu1,"BOI Norms",1,15,2020-11-17T14:27:49-08:00,27.096710920334,22,"updated stim.csv",Version47.csv,"Version 47","List 47",hamster,,1390,5.583333333,1226,1391,BOI,-,-,"Please name all of the ways you could use this object. Keep in mind that one object can have many uses. Separate your responses with a comma.",,y,26797,,,3225,13209,,,,Entertainment,1
w10006851_sdm,dcyuw9uiu1,"BOI Norms",1,16,2020-11-17T14:28:08-08:00,18.768585205078,22,"updated stim.csv",Version47.csv,"Version 47","List 47",animal,,1407,5.958333333,41,1408,BOI,-,-,"Please name all of the ways you could use this object. Keep in mind that one object can have many uses. Separate your responses with a comma.",,y,18474,,,6442,17417,,,,"Hunting, entertainment, companion",1
w10006851_sdm,dcyuw9uiu1,"BOI Norms",1,17,2020-11-17T14:28:18-08:00,10.159540891647,22,"updated stim.csv",Version47.csv,"Version 47","List 47",tortoise,,1402,4.541666667,2741,1403,BOI,-,-,"Please name all of the ways you could use this object. Keep in mind that one object can have many uses. Separate your responses with a comma.",,y,9875,,,6150,7840,,,,Entertainment,1
w10006851_sdm,dcyuw9uiu1,"BOI Norms",1,18,2020-11-17T14:28:35-08:00,17.098115921021,22,"updated stim.csv",Version47.csv,"Version 47","List 47",pet,,1384,6.214285714,1932,1385,BOI,-,-,"Please name all of the ways you could use this object. Keep in mind that one object can have many uses. Separate your responses with a comma.",,y,16813,,,1251,14455,,,,"Companionship, protection",1
w10006851_sdm,dcyuw9uiu1,"BOI Norms",1,19,2020-11-17T14:28:54-08:00,18.837522983551,22,"updated stim.csv",Version47.csv,"Version 47","List 47",mink,,1381,4.904761905,1664,1382,BOI,-,-,"Please name all of the ways you could use this object. Keep in mind that one object can have many uses. Separate your responses with a comma.",,y,18539,,,-1,-1,,,,,1
w10006851_sdm,dcyuw9uiu1,"BOI Norms",1,20,2020-11-17T14:29:05-08:00,10.984794139862,22,"updated stim.csv",Version47.csv,"Version 47","List 47",spear,,1382,5.208333333,2465,1383,BOI,-,-,"Please name all of the ways you could use this object. Keep in mind that one object can have many uses. Separate your responses with a comma.",,y,10650,,,3470,4493,,,,Hunting,1
w10006851_sdm,dcyuw9uiu1,"BOI Norms",1,21,2020-11-17T14:29:16-08:00,10.805876970291,22,"updated stim.csv",Version47.csv,"Version 47","List 47",secretary,,1405,5.2,2305,1406,BOI,-,-,"Please name all of the ways you could use this object. Keep in mind that one object can have many uses. Separate your responses with a comma.",,y,10534,,,2358,9275,,,,"Paperwork, assistance",1
w10006851_sdm,dcyuw9uiu1,"BOI Norms",1,22,2020-11-17T14:29:24-08:00,7.5940759181976,22,"updated stim.csv",Version47.csv,"Version 47","List 47",newt,,1396,4.391304348,1765,1397,BOI,-,-,"Please name all of the ways you could use this object. Keep in mind that one object can have many uses. Separate your responses with a comma.",,y,7297,,,3679,6517,,,,Entertainment,1
w10006851_sdm,dcyuw9uiu1,"BOI Norms",1,23,2020-11-17T14:29:50-08:00,26.472898960114,22,"updated stim.csv",Version47.csv,"Version 47","List 47",kit,,1404,4.739130435,1424,1405,BOI,-,-,"Please name all of the ways you could use this object. Keep in mind that one object can have many uses. Separate your responses with a comma.",,y,26196,,,-1,-1,,,,,1
w10006851_sdm,dcyuw9uiu1,"BOI Norms",1,24,2020-11-17T14:30:04-08:00,14.361730098724,22,"updated stim.csv",Version47.csv,"Version 47","List 47",headrest,,1395,5.346153846,1271,1396,BOI,-,-,"Please name all of the ways you could use this object. Keep in mind that one object can have many uses. Separate your responses with a comma.",,y,14055,,,2902,12547,,,,"Sleeping, Getting comfortable",1
w10006851_sdm,dcyuw9uiu1,"BOI Norms",1,25,2020-11-17T14:30:12-08:00,7.9923779964447,22,"updated stim.csv",Version47.csv,"Version 47","List 47",chest,,1403,5.851851852,513,1404,BOI,-,-,"Please name all of the ways you could use this object. Keep in mind that one object can have many uses. Separate your responses with a comma.",,y,7721,,,4528,6580,,,,"Storing items",1
w10006851_sdm,dcyuw9uiu1,"BOI Norms",1,26,2020-11-17T14:30:23-08:00,10.569920063019,22,"updated stim.csv",Version47.csv,"Version 47","List 47",comforter,,1409,6.16,607,1410,BOI,-,-,"Please name all of the ways you could use this object. Keep in mind that one object can have many uses. Separate your responses with a comma.",,y,10292,,,1465,4804,,,,"Sleep, resting",1
w10006851_sdm,dcyuw9uiu1,"BOI Norms",1,27,2020-11-17T14:30:51-08:00,28.235038995743,22,"updated stim.csv",Version47.csv,"Version 47","List 47",stream,,1391,4.678571429,2562,1392,BOI,-,-,"Please name all of the ways you could use this object. Keep in mind that one object can have many uses. Separate your responses with a comma.",,y,27959,,,4121,27072,,,,"Water source, water life",1
w10006851_sdm,dcyuw9uiu1,"BOI Norms",1,28,2020-11-17T14:31:24-08:00,32.977131843567,22,"updated stim.csv",Version47.csv,"Version 47","List 47",loin,,1393,4.391304348,1543,1394,BOI,-,-,"Please name all of the ways you could use this object. Keep in mind that one object can have many uses. Separate your responses with a comma.",,y,32690,,,20009,31252,,,,"Food, part of organ system",1
w10006851_sdm,dcyuw9uiu1,"BOI Norms",1,29,2020-11-17T14:31:31-08:00,6.5503442287445,22,"updated stim.csv",Version47.csv,"Version 47","List 47",keepsake,,1400,4.75,1403,1401,BOI,-,-,"Please name all of the ways you could use this object. Keep in mind that one object can have many uses. Separate your responses with a comma.",,y,6267,,,2349,5527,,,,"Sentimental value",1
w10006851_sdm,dcyuw9uiu1,"BOI Norms",1,30,2020-11-17T14:32:04-08:00,33.18079996109,22,"updated stim.csv",Version47.csv,"Version 47","List 47",radiologist,,1399,4.913043478,2123,1400,BOI,-,-,"Please name all of the ways you could use this object. Keep in mind that one object can have many uses. Separate your responses with a comma.",,y,32901,,,22302,32028,,,,"Providing x-rays, health",1
w10006851_sdm,dcyuw9uiu1,"BOI Norms",1,31,2020-11-17T14:32:40-08:00,35.997879981995,22,"updated stim.csv",Version47.csv,"Version 47","List 47",floorboard,,1397,5.791666667,1009,1398,BOI,-,-,"Please name all of the ways you could use this object. Keep in mind that one object can have many uses. Separate your responses with a comma.",,y,35477,,,7489,34209,,,,"Standing on",1
w10006851_sdm,dcyuw9uiu1,"BOI Norms",1,32,2020-11-17T14:33:00-08:00,20.316436052322,22,"updated stim.csv",Version47.csv,"Version 47","List 47",comb,,1387,5.923076923,606,1388,BOI,-,-,"Please name all of the ways you could use this object. Keep in mind that one object can have many uses. Separate your responses with a comma.",,y,20040,,,16830,19209,,,,"Fixing hair",1
w10006851_sdm,dcyuw9uiu1,"BOI Norms",1,33,2020-11-17T14:33:17-08:00,16.840034008026,22,"updated stim.csv",Version47.csv,"Version 47","List 47",harpsichord,,1386,4.904761905,1255,1387,BOI,-,-,"Please name all of the ways you could use this object. Keep in mind that one object can have many uses. Separate your responses with a comma.",,y,16565,,,13185,15310,,,,"Playing music",1
w10006851_sdm,dcyuw9uiu1,"BOI Norms",1,34,2020-11-17T14:33:37-08:00,20.339191913605,22,"updated stim.csv",Version47.csv,"Version 47","List 47",pot,,1383,6.16,2046,1384,BOI,-,-,"Please name all of the ways you could use this object. Keep in mind that one object can have many uses. Separate your responses with a comma.",,y,20051,,,14839,19033,,,,"Cooking, boiling, smoking",1
w10006851_sdm,dcyuw9uiu1,"BOI Norms",1,35,2020-11-17T14:33:42-08:00,4.2801430225372,22,"updated stim.csv",Version47.csv,"Version 47","List 47",longbow,,1401,5.285714286,1546,1402,BOI,-,-,"Please name all of the ways you could use this object. Keep in mind that one object can have many uses. Separate your responses with a comma.",,y,4005,,,1854,2610,,,,Hunting,1
w10006851_sdm,dcyuw9uiu1,"BOI Norms",1,36,2020-11-17T14:33:48-08:00,5.982882976532,22,"updated stim.csv",Version47.csv,"Version 47","List 47",confetti,,1389,4.76,626,1390,BOI,-,-,"Please name all of the ways you could use this object. Keep in mind that one object can have many uses. Separate your responses with a comma.",,y,5718,,,2657,4962,,,,Celebration,1
w10006851_sdm,dcyuw9uiu1,"BOI Norms",1,37,2020-11-17T14:33:52-08:00,4.0230519771576,22,"updated stim.csv",Version47.csv,"Version 47","List 47",duckweed,,1408,4.4,861,1409,BOI,-,-,"Please name all of the ways you could use this object. Keep in mind that one object can have many uses. Separate your responses with a comma.",,y,3763,,,-1,-1,,,,,1
w10006851_sdm,dcyuw9uiu1,"BOI Norms",1,38,2020-11-17T14:34:20-08:00,28.500818014145,22,"updated stim.csv",Version47.csv,"Version 47","List 47",axle,,1398,4.904761905,108,1399,BOI,-,-,"Please name all of the ways you could use this object. Keep in mind that one object can have many uses. Separate your responses with a comma.",,y,28232,,,25292,26415,,,,Driving,1
w10006851_sdm,dcyuw9uiu1,"BOI Norms",1,39,2020-11-17T14:34:45-08:00,24.919188976288,22,"updated stim.csv",Version47.csv,"Version 47","List 47",gate,,1388,5.956521739,1085,1389,BOI,-,-,"Please name all of the ways you could use this object. Keep in mind that one object can have many uses. Separate your responses with a comma.",,y,24573,,,2706,23223,,,,"Protection, keeping pets in",1
w10006851_sdm,dcyuw9uiu1,"BOI Norms",1,40,2020-11-17T14:34:57-08:00,11.849606990814,22,"updated stim.csv",Version47.csv,"Version 47","List 47",handkerchief,,1410,5.72,1238,1411,BOI,-,-,"Please name all of the ways you could use this object. Keep in mind that one object can have many uses. Separate your responses with a comma.",,y,11352,,,6291,10568,,,,"Wiping nose, wiping eyes",1
w10006851_sdm,dcyuw9uiu1,"BOI Norms",1,41,2020-11-17T14:34:59-08:00,2.3023071289062,22,"updated stim.csv",Version47.csv,"Version 47","List 47",,,,,,0,Instruct,,,"You will now be asked a few questions about your experience today.",,"Instruct 4",2033,,,-1,-1,,,,,1
