Username,ID,ExperimentName,Session,Trial,Date,TimeDif,"Condition Number","Stimuli File","Order File","Condition Description","Condition Notes",Stimuli*Cue,Stimuli*Answer,Stimuli*Shuffle,"Stimuli*Stimuli Notes",Stimuli*Value,Procedure*Item,"Procedure*Trial Type","Procedure*Max Time","Procedure*Min Time",Procedure*Text,"Procedure*Procedure Notes",Procedure*Shuffle,Response*RT,Response*Response,Response*Accuracy,Response*RTfirst,Response*RTlast,Response*strictAcc,Response*lenientAcc,Response*focus,Response*JOL,Response*Focus
10115472_EWV,zoanvj4vi2,"BOI Norms",1,1,2021-12-01T19:32:17+00:00,10.977418899536,1,"updated stim.csv",Version1.csv,"Version 1","List 1",,,,,,0,Instruct,-,10,"In this section, you will be presented with a series of objects. Please name as many possible uses for this object as you can think of by typing them in the box below each object.",,Instruct1,10890,,,-1,-1,,,,,1
10115472_EWV,zoanvj4vi2,"BOI Norms",1,2,2021-12-01T19:32:32+00:00,14.51415514946,1,"updated stim.csv",Version1.csv,"Version 1","List 1",,,,,,0,Instruct,-,10,"Please keep in mind that a single object will have more than one use. For example, a ball can be thrown or can be bounced or even stepped on. When listing multiple uses for one object, please separate each use with a comma (i.e., thrown, bounced, stepped on)",,Instruct2,14390,,,-1,-1,,,,,1
10115472_EWV,zoanvj4vi2,"BOI Norms",1,3,2021-12-01T19:32:35+00:00,2.9075350761414,1,"updated stim.csv",Version1.csv,"Version 1","List 1",,,,,,0,Instruct,-,-,"Before starting the experiment, you will complete a short practice sesstion. Press ENTER when you are ready to begin.",,Instruct3,2674,,,-1,-1,,,,,1
10115472_EWV,zoanvj4vi2,"BOI Norms",1,4,2021-12-01T19:33:04+00:00,29.449917793274,1,"updated stim.csv",Version1.csv,"Version 1","List 1",spaghetti,,3003,6,2461,3004,BOI,-,-,"Please name all of the ways you could use this object. Keep in mind that one object can have many uses. Separate your responses with a comma.",,n,29329,,,6885,28279,,,,"eat, boil, bake,create art",1
10115472_EWV,zoanvj4vi2,"BOI Norms",1,5,2021-12-01T19:33:12+00:00,7.9222249984741,1,"updated stim.csv",Version1.csv,"Version 1","List 1",shortening,,3002,4.92,2358,3003,BOI,-,-,"Please name all of the ways you could use this object. Keep in mind that one object can have many uses. Separate your responses with a comma.",,n,7803,,,5175,6398,,,,baking,1
10115472_EWV,zoanvj4vi2,"BOI Norms",1,6,2021-12-01T19:33:20+00:00,7.7874481678009,1,"updated stim.csv",Version1.csv,"Version 1","List 1",paperwork,,3001,5.625,1866,3002,BOI,-,-,"Please name all of the ways you could use this object. Keep in mind that one object can have many uses. Separate your responses with a comma.",,n,7662,,,1931,5366,,,,"work, school",1
10115472_EWV,zoanvj4vi2,"BOI Norms",1,7,2021-12-01T19:33:29+00:00,9.2667648792267,1,"updated stim.csv",Version1.csv,"Version 1","List 1",grain,,3004,5.217391304,1143,3005,BOI,-,-,"Please name all of the ways you could use this object. Keep in mind that one object can have many uses. Separate your responses with a comma.",,n,9147,,,1771,8208,,,,"rice, eat, bake",1
10115472_EWV,zoanvj4vi2,"BOI Norms",1,8,2021-12-01T19:33:40+00:00,10.624144077301,1,"updated stim.csv",Version1.csv,"Version 1","List 1",saucer,,3005,5.777777778,2249,3006,BOI,-,-,"Please name all of the ways you could use this object. Keep in mind that one object can have many uses. Separate your responses with a comma.",,n,10507,,,2044,9099,,,,"put sauce in it",1
10115472_EWV,zoanvj4vi2,"BOI Norms",1,9,2021-12-01T19:33:42+00:00,2.5129239559174,1,"updated stim.csv",Version1.csv,"Version 1","List 1",,,,,,0,Instruct,-,-,"You have completed this section. Press ENTER to continue",,"Instruct 5",2387,,,-1,-1,,,,,1
10115472_EWV,zoanvj4vi2,"BOI Norms",1,10,2021-12-01T19:33:44+00:00,1.3066511154175,1,"updated stim.csv",Version1.csv,"Version 1","List 1",,,,,,0,Instruct,-,-,"You will now start the full experiment. Press ENTER when you are ready to begin.",,,1182,,,-1,-1,,,,,1
10115472_EWV,zoanvj4vi2,"BOI Norms",1,11,2021-12-01T19:33:48+00:00,4.25111079216,1,"updated stim.csv",Version1.csv,"Version 1","List 1",boa,,25,4.333333333,252,26,BOI,-,-,"Please name all of the ways you could use this object. Keep in mind that one object can have many uses. Separate your responses with a comma.",,y,4140,,,1729,3030,,,,"wear it ",1
10115472_EWV,zoanvj4vi2,"BOI Norms",1,12,2021-12-01T19:33:52+00:00,3.8727140426636,1,"updated stim.csv",Version1.csv,"Version 1","List 1",sandbox,,12,5.777777778,2235,13,BOI,-,-,"Please name all of the ways you could use this object. Keep in mind that one object can have many uses. Separate your responses with a comma.",,y,3757,,,1375,1945,,,,play,1
10115472_EWV,zoanvj4vi2,"BOI Norms",1,13,2021-12-01T19:33:55+00:00,3.43492603302,1,"updated stim.csv",Version1.csv,"Version 1","List 1",bloomers,,21,4.4,243,22,BOI,-,-,"Please name all of the ways you could use this object. Keep in mind that one object can have many uses. Separate your responses with a comma.",,y,3313,,,1872,2351,,,,wear,1
10115472_EWV,zoanvj4vi2,"BOI Norms",1,14,2021-12-01T19:33:58+00:00,2.5968730449677,1,"updated stim.csv",Version1.csv,"Version 1","List 1",bread,,7,6.230769231,308,8,BOI,-,-,"Please name all of the ways you could use this object. Keep in mind that one object can have many uses. Separate your responses with a comma.",,y,2464,,,1137,1539,,,,eat,1
10115472_EWV,zoanvj4vi2,"BOI Norms",1,15,2021-12-01T19:34:07+00:00,9.4385271072388,1,"updated stim.csv",Version1.csv,"Version 1","List 1",wishbone,,20,5.458333333,2953,21,BOI,-,-,"Please name all of the ways you could use this object. Keep in mind that one object can have many uses. Separate your responses with a comma.",,y,9331,,,2349,8404,,,,"break in half and make a wish",1
10115472_EWV,zoanvj4vi2,"BOI Norms",1,16,2021-12-01T19:34:12+00:00,5.2604808807373,1,"updated stim.csv",Version1.csv,"Version 1","List 1",hosiery,,16,5.565217391,1319,17,BOI,-,-,"Please name all of the ways you could use this object. Keep in mind that one object can have many uses. Separate your responses with a comma.",,y,5148,,,3804,4483,,,,wear,1
10115472_EWV,zoanvj4vi2,"BOI Norms",1,17,2021-12-01T19:34:24+00:00,11.307199001312,1,"updated stim.csv",Version1.csv,"Version 1","List 1",handrail,,19,5.227272727,1241,20,BOI,-,-,"Please name all of the ways you could use this object. Keep in mind that one object can have many uses. Separate your responses with a comma.",,y,10559,,,1807,9583,,,,"hold it when going down stairs.",1
10115472_EWV,zoanvj4vi2,"BOI Norms",1,18,2021-12-01T19:34:33+00:00,9.2180259227753,1,"updated stim.csv",Version1.csv,"Version 1","List 1",florist,,13,4.444444444,1011,14,BOI,-,-,"Please name all of the ways you could use this object. Keep in mind that one object can have many uses. Separate your responses with a comma.",,y,9097,,,2902,8305,,,,"buy flowers for wedding.",1
10115472_EWV,zoanvj4vi2,"BOI Norms",1,19,2021-12-01T19:34:39+00:00,6.470192193985,1,"updated stim.csv",Version1.csv,"Version 1","List 1",petticoat,,8,5.454545455,1935,9,BOI,-,-,"Please name all of the ways you could use this object. Keep in mind that one object can have many uses. Separate your responses with a comma.",,y,6350,,,1862,2883,,,,"wear it",1
10115472_EWV,zoanvj4vi2,"BOI Norms",1,20,2021-12-01T19:34:46+00:00,6.2276968955994,1,"updated stim.csv",Version1.csv,"Version 1","List 1",cayenne,,24,5.347826087,469,25,BOI,-,-,"Please name all of the ways you could use this object. Keep in mind that one object can have many uses. Separate your responses with a comma.",,y,6118,,,3196,5205,,,,"season food",1
10115472_EWV,zoanvj4vi2,"BOI Norms",1,21,2021-12-01T19:34:52+00:00,6.5962300300598,1,"updated stim.csv",Version1.csv,"Version 1","List 1",ladle,,23,4.84,1448,24,BOI,-,-,"Please name all of the ways you could use this object. Keep in mind that one object can have many uses. Separate your responses with a comma.",,y,6486,,,1821,5311,,,,"scoop food",1
10115472_EWV,zoanvj4vi2,"BOI Norms",1,22,2021-12-01T19:34:59+00:00,6.9232649803162,1,"updated stim.csv",Version1.csv,"Version 1","List 1",pin,,29,5.88,1967,30,BOI,-,-,"Please name all of the ways you could use this object. Keep in mind that one object can have many uses. Separate your responses with a comma.",,y,6809,,,1064,5856,,,,"wear, sew, write",1
10115472_EWV,zoanvj4vi2,"BOI Norms",1,23,2021-12-01T19:35:05+00:00,5.5085499286652,1,"updated stim.csv",Version1.csv,"Version 1","List 1",tomahawk,,14,4.958333333,2722,15,BOI,-,-,"Please name all of the ways you could use this object. Keep in mind that one object can have many uses. Separate your responses with a comma.",,y,5387,,,2759,3869,,,,"wear it",1
10115472_EWV,zoanvj4vi2,"BOI Norms",1,24,2021-12-01T19:35:12+00:00,7.6853430271149,1,"updated stim.csv",Version1.csv,"Version 1","List 1",joint,,6,4.375,1389,7,BOI,-,-,"Please name all of the ways you could use this object. Keep in mind that one object can have many uses. Separate your responses with a comma.",,y,7545,,,4254,6543,,,,"in your body",1
10115472_EWV,zoanvj4vi2,"BOI Norms",1,25,2021-12-01T19:35:22+00:00,9.7276220321655,1,"updated stim.csv",Version1.csv,"Version 1","List 1",tit,,11,5.92,2708,12,BOI,-,-,"Please name all of the ways you could use this object. Keep in mind that one object can have many uses. Separate your responses with a comma.",,y,9607,,,6240,8602,,,,"part of body",1
10115472_EWV,zoanvj4vi2,"BOI Norms",1,26,2021-12-01T19:35:34+00:00,11.590017080307,1,"updated stim.csv",Version1.csv,"Version 1","List 1",grease,,15,4.666666667,1168,16,BOI,-,-,"Please name all of the ways you could use this object. Keep in mind that one object can have many uses. Separate your responses with a comma.",,y,11472,,,2515,10550,,,,"bake, get things unstuck.",1
10115472_EWV,zoanvj4vi2,"BOI Norms",1,27,2021-12-01T19:35:42+00:00,8.4493579864502,1,"updated stim.csv",Version1.csv,"Version 1","List 1",spyglass,,30,5.64,2491,31,BOI,-,-,"Please name all of the ways you could use this object. Keep in mind that one object can have many uses. Separate your responses with a comma.",,y,8327,,,1889,7042,,,,"look through it.",1
10115472_EWV,zoanvj4vi2,"BOI Norms",1,28,2021-12-01T19:35:54+00:00,11.828280925751,1,"updated stim.csv",Version1.csv,"Version 1","List 1",masturbate,,22,4.826086957,1618,23,BOI,-,-,"Please name all of the ways you could use this object. Keep in mind that one object can have many uses. Separate your responses with a comma.",,y,11694,,,6842,10382,,,,yourself,1
10115472_EWV,zoanvj4vi2,"BOI Norms",1,29,2021-12-01T19:35:57+00:00,3.3385190963745,1,"updated stim.csv",Version1.csv,"Version 1","List 1",mint,,3,5.76,1666,4,BOI,-,-,"Please name all of the ways you could use this object. Keep in mind that one object can have many uses. Separate your responses with a comma.",,y,3198,,,1242,1779,,,,eat,1
10115472_EWV,zoanvj4vi2,"BOI Norms",1,30,2021-12-01T19:36:01+00:00,3.4831728935242,1,"updated stim.csv",Version1.csv,"Version 1","List 1",seat,,2,6.416666667,2301,3,BOI,-,-,"Please name all of the ways you could use this object. Keep in mind that one object can have many uses. Separate your responses with a comma.",,y,3352,,,1418,1991,,,,sit,1
10115472_EWV,zoanvj4vi2,"BOI Norms",1,31,2021-12-01T19:36:11+00:00,9.8761620521545,1,"updated stim.csv",Version1.csv,"Version 1","List 1",stationary,,26,4.727272727,2510,27,BOI,-,-,"Please name all of the ways you could use this object. Keep in mind that one object can have many uses. Separate your responses with a comma.",,y,9757,,,1564,8878,,,,"write a letter",1
10115472_EWV,zoanvj4vi2,"BOI Norms",1,32,2021-12-01T19:36:17+00:00,6.4117939472198,1,"updated stim.csv",Version1.csv,"Version 1","List 1",parsley,,27,5.434782609,1877,28,BOI,-,-,"Please name all of the ways you could use this object. Keep in mind that one object can have many uses. Separate your responses with a comma.",,y,6290,,,2353,4846,,,,"season food",1
10115472_EWV,zoanvj4vi2,"BOI Norms",1,33,2021-12-01T19:36:24+00:00,6.6862809658051,1,"updated stim.csv",Version1.csv,"Version 1","List 1",decor,,1,4.538461538,764,2,BOI,-,-,"Please name all of the ways you could use this object. Keep in mind that one object can have many uses. Separate your responses with a comma.",,y,6559,,,1564,5728,,,,"decorate a house",1
10115472_EWV,zoanvj4vi2,"BOI Norms",1,34,2021-12-01T19:36:31+00:00,7.4864110946655,1,"updated stim.csv",Version1.csv,"Version 1","List 1",merchandise,,5,5.833333333,1647,6,BOI,-,-,"Please name all of the ways you could use this object. Keep in mind that one object can have many uses. Separate your responses with a comma.",,y,7363,,,2161,5912,,,,"things you buy",1
10115472_EWV,zoanvj4vi2,"BOI Norms",1,35,2021-12-01T19:36:48+00:00,16.498911857605,1,"updated stim.csv",Version1.csv,"Version 1","List 1",lanyard,,4,5.416666667,1464,5,BOI,-,-,"Please name all of the ways you could use this object. Keep in mind that one object can have many uses. Separate your responses with a comma.",,y,16380,,,4503,15466,,,,"wear it with id for school or work.",1
10115472_EWV,zoanvj4vi2,"BOI Norms",1,36,2021-12-01T19:36:57+00:00,9.1049711704254,1,"updated stim.csv",Version1.csv,"Version 1","List 1",briefcase,,10,6.25,323,11,BOI,-,-,"Please name all of the ways you could use this object. Keep in mind that one object can have many uses. Separate your responses with a comma.",,y,8959,,,1670,8135,,,,"carry important files.",1
10115472_EWV,zoanvj4vi2,"BOI Norms",1,37,2021-12-01T19:37:07+00:00,9.979455947876,1,"updated stim.csv",Version1.csv,"Version 1","List 1",orangutan,,18,4.666666667,1815,19,BOI,-,-,"Please name all of the ways you could use this object. Keep in mind that one object can have many uses. Separate your responses with a comma.",,y,9687,,,5389,8688,,,,"see at zoo.",1
10115472_EWV,zoanvj4vi2,"BOI Norms",1,38,2021-12-01T19:37:12+00:00,5.3006319999695,1,"updated stim.csv",Version1.csv,"Version 1","List 1",map,,17,5.481481481,1600,18,BOI,-,-,"Please name all of the ways you could use this object. Keep in mind that one object can have many uses. Separate your responses with a comma.",,y,5075,,,1761,4204,,,,"get places.",1
10115472_EWV,zoanvj4vi2,"BOI Norms",1,39,2021-12-01T19:37:32+00:00,19.719169855118,1,"updated stim.csv",Version1.csv,"Version 1","List 1",tablespoon,,28,5.142857143,2618,29,BOI,-,-,"Please name all of the ways you could use this object. Keep in mind that one object can have many uses. Separate your responses with a comma.",,y,19587,,,1851,18301,,,,"measure for cooking/baking",1
10115472_EWV,zoanvj4vi2,"BOI Norms",1,40,2021-12-01T19:37:40+00:00,7.7644681930542,1,"updated stim.csv",Version1.csv,"Version 1","List 1",solicitor,,9,4.875,2448,10,BOI,-,-,"Please name all of the ways you could use this object. Keep in mind that one object can have many uses. Separate your responses with a comma.",,y,5805,,,3510,4901,,,,looking.,1
10115472_EWV,zoanvj4vi2,"BOI Norms",1,41,2021-12-01T19:37:42+00:00,2.4918398857117,1,"updated stim.csv",Version1.csv,"Version 1","List 1",,,,,,0,Instruct,,,"You will now be asked a few questions about your experience today.",,"Instruct 4",2343,,,-1,-1,,,,,1
