Username,ID,ExperimentName,Session,Trial,Date,TimeDif,"Condition Number","Stimuli File","Order File","Condition Description","Condition Notes",Stimuli*Cue,Stimuli*Answer,Stimuli*Shuffle,"Stimuli*Stimuli Notes",Stimuli*Value,Procedure*Item,"Procedure*Trial Type","Procedure*Max Time","Procedure*Min Time",Procedure*Text,"Procedure*Procedure Notes",Procedure*Shuffle,Response*RT,Response*Response,Response*Accuracy,Response*RTfirst,Response*RTlast,Response*strictAcc,Response*lenientAcc,Response*focus,Response*JOL,Response*Focus
w10110599,71vcbxnly9,"BOI Norms",1,1,2021-12-01T03:51:08+00:00,68.227155923843,18,"updated stim.csv",Version93.csv,"Version 93","List 93",,,,,,0,Instruct,-,10,"In this section, you will be presented with a series of objects. Please name as many possible uses for this object as you can think of by typing them in the box below each object.",,Instruct1,68141,,,-1,-1,,,,,1
w10110599,71vcbxnly9,"BOI Norms",1,2,2021-12-01T03:51:22+00:00,14.29980802536,18,"updated stim.csv",Version93.csv,"Version 93","List 93",,,,,,0,Instruct,-,10,"Please keep in mind that a single object will have more than one use. For example, a ball can be thrown or can be bounced or even stepped on. When listing multiple uses for one object, please separate each use with a comma (i.e., thrown, bounced, stepped on)",,Instruct2,13877,,,-1,-1,,,,,1
w10110599,71vcbxnly9,"BOI Norms",1,3,2021-12-01T03:51:24+00:00,2.2222599983215,18,"updated stim.csv",Version93.csv,"Version 93","List 93",,,,,,0,Instruct,-,-,"Before starting the experiment, you will complete a short practice sesstion. Press ENTER when you are ready to begin.",,Instruct3,2145,,,-1,-1,,,,,1
w10110599,71vcbxnly9,"BOI Norms",1,4,2021-12-01T03:51:38+00:00,14.170439958572,18,"updated stim.csv",Version93.csv,"Version 93","List 93","Picture Frame",,Practice,,3002,3003,BOI,-,-,"Please name all of the ways you could use this object. Keep in mind that one object can have many uses. Separate your responses with a comma.",,n,14064,,,3519,13719,,,,"picture, hang up, sit down, against wall",1
w10110599,71vcbxnly9,"BOI Norms",1,5,2021-12-01T03:51:52+00:00,13.158439874649,18,"updated stim.csv",Version93.csv,"Version 93","List 93",Taco,,Practice,,3005,3006,BOI,-,-,"Please name all of the ways you could use this object. Keep in mind that one object can have many uses. Separate your responses with a comma.",,n,13043,,,1661,12381,,,,"eat, look at, smell",1
w10110599,71vcbxnly9,"BOI Norms",1,6,2021-12-01T03:51:59+00:00,7.148344039917,18,"updated stim.csv",Version93.csv,"Version 93","List 93",Cheeseburger,,Practice,,3001,3004,BOI,-,-,"Please name all of the ways you could use this object. Keep in mind that one object can have many uses. Separate your responses with a comma.",,n,7042,,,1398,6816,,,,"eat, smell, chew",1
w10110599,71vcbxnly9,"BOI Norms",1,7,2021-12-01T03:52:08+00:00,9.1149289608002,18,"updated stim.csv",Version93.csv,"Version 93","List 93",Swan,,Practice,,3004,3002,BOI,-,-,"Please name all of the ways you could use this object. Keep in mind that one object can have many uses. Separate your responses with a comma.",,n,8988,,,1762,7184,,,,"see, chase, follow, ",1
w10110599,71vcbxnly9,"BOI Norms",1,8,2021-12-01T03:52:21+00:00,12.779580116272,18,"updated stim.csv",Version93.csv,"Version 93","List 93",Donut,,Practice,,3003,3005,BOI,-,-,"Please name all of the ways you could use this object. Keep in mind that one object can have many uses. Separate your responses with a comma.",,n,12659,,,1073,12412,,,,"eat, smell, look",1
w10110599,71vcbxnly9,"BOI Norms",1,9,2021-12-01T03:52:54+00:00,33.273416996002,18,"updated stim.csv",Version93.csv,"Version 93","List 93",,,,,,0,Instruct,-,-,"You have completed this section. Press ENTER to continue",,"Instruct 5",33175,,,-1,-1,,,,,1
w10110599,71vcbxnly9,"BOI Norms",1,10,2021-12-01T03:52:57+00:00,3.007700920105,18,"updated stim.csv",Version93.csv,"Version 93","List 93",,,,,,0,Instruct,-,-,"You will now start the full experiment. Press ENTER when you are ready to begin.",,,2209,,,-1,-1,,,,,1
w10110599,71vcbxnly9,"BOI Norms",1,11,2021-12-01T03:53:05+00:00,7.7958481311798,18,"updated stim.csv",Version93.csv,"Version 93","List 93",hotplate,,ON,5.230769231,1323,2787,BOI,-,-,"Please name all of the ways you could use this object. Keep in mind that one object can have many uses. Separate your responses with a comma.",,y,7690,,,2912,7408,,,,"burn, boil, cook",1
w10110599,71vcbxnly9,"BOI Norms",1,12,2021-12-01T03:53:10+00:00,5.215940952301,18,"updated stim.csv",Version93.csv,"Version 93","List 93",briefs,,ON,5.64,324,2763,BOI,-,-,"Please name all of the ways you could use this object. Keep in mind that one object can have many uses. Separate your responses with a comma.",,y,5117,,,1499,4863,,,,"wear, carry, wash",1
w10110599,71vcbxnly9,"BOI Norms",1,13,2021-12-01T03:53:17+00:00,7.3540508747101,18,"updated stim.csv",Version93.csv,"Version 93","List 93",hardcover,,ON,4.652173913,1248,2789,BOI,-,-,"Please name all of the ways you could use this object. Keep in mind that one object can have many uses. Separate your responses with a comma.",,y,7246,,,1213,7000,,,,"book, read, sit, watch",1
w10110599,71vcbxnly9,"BOI Norms",1,14,2021-12-01T03:53:25+00:00,8.1363360881805,18,"updated stim.csv",Version93.csv,"Version 93","List 93",machetes,,ON,5.260869565,1566,2781,BOI,-,-,"Please name all of the ways you could use this object. Keep in mind that one object can have many uses. Separate your responses with a comma.",,y,8018,,,3066,7648,,,,"hurt, cut, hunt",1
w10110599,71vcbxnly9,"BOI Norms",1,15,2021-12-01T03:53:34+00:00,8.7356929779053,18,"updated stim.csv",Version93.csv,"Version 93","List 93",topaz,,ON,4.642857143,2735,2782,BOI,-,-,"Please name all of the ways you could use this object. Keep in mind that one object can have many uses. Separate your responses with a comma.",,y,8621,,,1580,8505,,,,"wear, ring, sparkly ",1
w10110599,71vcbxnly9,"BOI Norms",1,16,2021-12-01T03:53:46+00:00,11.900273084641,18,"updated stim.csv",Version93.csv,"Version 93","List 93",seed,,ON,5.185185185,2308,2783,BOI,-,-,"Please name all of the ways you could use this object. Keep in mind that one object can have many uses. Separate your responses with a comma.",,y,11787,,,1739,11502,,,,"grow, bury, water",1
w10110599,71vcbxnly9,"BOI Norms",1,17,2021-12-01T03:53:54+00:00,8.2791619300842,18,"updated stim.csv",Version93.csv,"Version 93","List 93",chimpanzee,,ON,4.260869565,525,2766,BOI,-,-,"Please name all of the ways you could use this object. Keep in mind that one object can have many uses. Separate your responses with a comma.",,y,8173,,,1921,7919,,,,"yell, eat, scary",1
w10110599,71vcbxnly9,"BOI Norms",1,18,2021-12-01T03:54:03+00:00,8.9958310127258,18,"updated stim.csv",Version93.csv,"Version 93","List 93",camera,,ON,6.086956522,406,2779,BOI,-,-,"Please name all of the ways you could use this object. Keep in mind that one object can have many uses. Separate your responses with a comma.",,y,8883,,,1569,7981,,,,"take pictures, look at",1
w10110599,71vcbxnly9,"BOI Norms",1,19,2021-12-01T03:54:12+00:00,8.4490399360657,18,"updated stim.csv",Version93.csv,"Version 93","List 93",fisherman,,ON,4.851851852,991,2791,BOI,-,-,"Please name all of the ways you could use this object. Keep in mind that one object can have many uses. Separate your responses with a comma.",,y,8337,,,1277,8053,,,,"fish, eat fish, look at fish",1
w10110599,71vcbxnly9,"BOI Norms",1,20,2021-12-01T03:54:33+00:00,21.291494131088,18,"updated stim.csv",Version93.csv,"Version 93","List 93",men,,ON,5.72,1644,2765,BOI,-,-,"Please name all of the ways you could use this object. Keep in mind that one object can have many uses. Separate your responses with a comma.",,y,21178,,,4734,20888,,,,scary,1
w10110599,71vcbxnly9,"BOI Norms",1,21,2021-12-01T03:54:47+00:00,14.351714849472,18,"updated stim.csv",Version93.csv,"Version 93","List 93",periscope,,ON,4.653846154,1927,2767,BOI,-,-,"Please name all of the ways you could use this object. Keep in mind that one object can have many uses. Separate your responses with a comma.",,y,14225,,,13500,13984,,,,look,1
w10110599,71vcbxnly9,"BOI Norms",1,22,2021-12-01T03:55:01+00:00,13.219346046448,18,"updated stim.csv",Version93.csv,"Version 93","List 93",cornflower,,ON,4.739130435,648,2772,BOI,-,-,"Please name all of the ways you could use this object. Keep in mind that one object can have many uses. Separate your responses with a comma.",,y,12202,,,1735,6411,,,,"eat, plant, ",1
w10110599,71vcbxnly9,"BOI Norms",1,23,2021-12-01T03:55:05+00:00,3.9402539730072,18,"updated stim.csv",Version93.csv,"Version 93","List 93",latrine,,ON,6.333333333,1471,2770,BOI,-,-,"Please name all of the ways you could use this object. Keep in mind that one object can have many uses. Separate your responses with a comma.",,y,3865,,,-1,-1,,,,,1
w10110599,71vcbxnly9,"BOI Norms",1,24,2021-12-01T03:55:15+00:00,9.8954861164093,18,"updated stim.csv",Version93.csv,"Version 93","List 93",conductor,,ON,4.75,624,2786,BOI,-,-,"Please name all of the ways you could use this object. Keep in mind that one object can have many uses. Separate your responses with a comma.",,y,9785,,,1893,9656,,,,"sing, train, conduct",1
w10110599,71vcbxnly9,"BOI Norms",1,25,2021-12-01T03:55:21+00:00,6.2266569137573,18,"updated stim.csv",Version93.csv,"Version 93","List 93",pantaloons,,ON,4.695652174,1858,2777,BOI,-,-,"Please name all of the ways you could use this object. Keep in mind that one object can have many uses. Separate your responses with a comma.",,y,6112,,,1181,5836,,,,"wear, look at , wash",1
w10110599,71vcbxnly9,"BOI Norms",1,26,2021-12-01T03:55:26+00:00,5.5653159618378,18,"updated stim.csv",Version93.csv,"Version 93","List 93",motorist,,ON,5.12,1698,2762,BOI,-,-,"Please name all of the ways you could use this object. Keep in mind that one object can have many uses. Separate your responses with a comma.",,y,5456,,,1695,5012,,,,"ride, wreck",1
w10110599,71vcbxnly9,"BOI Norms",1,27,2021-12-01T03:55:38+00:00,11.206151008606,18,"updated stim.csv",Version93.csv,"Version 93","List 93",pennant,,ON,5.153846154,1916,2788,BOI,-,-,"Please name all of the ways you could use this object. Keep in mind that one object can have many uses. Separate your responses with a comma.",,y,11101,,,4532,10916,,,,"hang up, flag pole",1
w10110599,71vcbxnly9,"BOI Norms",1,28,2021-12-01T03:55:41+00:00,3.1146881580353,18,"updated stim.csv",Version93.csv,"Version 93","List 93",pickle,,ON,5.730769231,1950,2780,BOI,-,-,"Please name all of the ways you could use this object. Keep in mind that one object can have many uses. Separate your responses with a comma.",,y,3031,,,1030,2574,,,,"eat, smell",1
w10110599,71vcbxnly9,"BOI Norms",1,29,2021-12-01T03:55:45+00:00,4.2999708652496,18,"updated stim.csv",Version93.csv,"Version 93","List 93",mutton,,ON,5,1729,2790,BOI,-,-,"Please name all of the ways you could use this object. Keep in mind that one object can have many uses. Separate your responses with a comma.",,y,4202,,,3483,4086,,,,cover,1
w10110599,71vcbxnly9,"BOI Norms",1,30,2021-12-01T03:55:49+00:00,4.1633789539337,18,"updated stim.csv",Version93.csv,"Version 93","List 93",blueberry,,ON,6,249,2785,BOI,-,-,"Please name all of the ways you could use this object. Keep in mind that one object can have many uses. Separate your responses with a comma.",,y,4059,,,1049,3823,,,,"eat, pie, bake",1
w10110599,71vcbxnly9,"BOI Norms",1,31,2021-12-01T03:56:17+00:00,27.845924139023,18,"updated stim.csv",Version93.csv,"Version 93","List 93",feline,,ON,5.458333333,959,2764,BOI,-,-,"Please name all of the ways you could use this object. Keep in mind that one object can have many uses. Separate your responses with a comma.",,y,26823,,,1886,4638,,,,"meow, cat, ",1
w10110599,71vcbxnly9,"BOI Norms",1,32,2021-12-01T03:56:24+00:00,7.3690049648285,18,"updated stim.csv",Version93.csv,"Version 93","List 93",pacemaker,,ON,4.363636364,1835,2776,BOI,-,-,"Please name all of the ways you could use this object. Keep in mind that one object can have many uses. Separate your responses with a comma.",,y,7243,,,5488,7065,,,,"work, beat ",1
w10110599,71vcbxnly9,"BOI Norms",1,33,2021-12-01T03:56:27+00:00,3.1044950485229,18,"updated stim.csv",Version93.csv,"Version 93","List 93",mixer,,ON,5,1672,2768,BOI,-,-,"Please name all of the ways you could use this object. Keep in mind that one object can have many uses. Separate your responses with a comma.",,y,3015,,,1096,2717,,,,"mix, cakr",1
w10110599,71vcbxnly9,"BOI Norms",1,34,2021-12-01T03:56:35+00:00,7.0693979263306,18,"updated stim.csv",Version93.csv,"Version 93","List 93",bistro,,ON,4.518518519,226,2778,BOI,-,-,"Please name all of the ways you could use this object. Keep in mind that one object can have many uses. Separate your responses with a comma.",,y,6969,,,1180,6719,,,,"cook, serve, soup",1
w10110599,71vcbxnly9,"BOI Norms",1,35,2021-12-01T03:56:40+00:00,5.2703530788422,18,"updated stim.csv",Version93.csv,"Version 93","List 93",chapel,,ON,4.52,494,2775,BOI,-,-,"Please name all of the ways you could use this object. Keep in mind that one object can have many uses. Separate your responses with a comma.",,y,5136,,,1333,4900,,,,"preach, pray, sing",1
w10110599,71vcbxnly9,"BOI Norms",1,36,2021-12-01T03:56:46+00:00,6.5617048740387,18,"updated stim.csv",Version93.csv,"Version 93","List 93",poinsettia,,ON,5.347826087,2018,2774,BOI,-,-,"Please name all of the ways you could use this object. Keep in mind that one object can have many uses. Separate your responses with a comma.",,y,6443,,,1401,5690,,,,"pretty, smells good",1
w10110599,71vcbxnly9,"BOI Norms",1,37,2021-12-01T03:56:51+00:00,5.1207439899445,18,"updated stim.csv",Version93.csv,"Version 93","List 93",tutu,,ON,5.413793103,2808,2784,BOI,-,-,"Please name all of the ways you could use this object. Keep in mind that one object can have many uses. Separate your responses with a comma.",,y,5003,,,1107,4761,,,,"wear, perform",1
w10110599,71vcbxnly9,"BOI Norms",1,38,2021-12-01T03:57:00+00:00,8.7333180904388,18,"updated stim.csv",Version93.csv,"Version 93","List 93",badge,,ON,5.72,119,2769,BOI,-,-,"Please name all of the ways you could use this object. Keep in mind that one object can have many uses. Separate your responses with a comma.",,y,8628,,,1427,8387,,,,"wear, polish",1
w10110599,71vcbxnly9,"BOI Norms",1,39,2021-12-01T03:57:08+00:00,8.2107789516449,18,"updated stim.csv",Version93.csv,"Version 93","List 93",cross,,ON,5,703,2773,BOI,-,-,"Please name all of the ways you could use this object. Keep in mind that one object can have many uses. Separate your responses with a comma.",,y,8093,,,4328,7690,,,,"church, religion",1
w10110599,71vcbxnly9,"BOI Norms",1,40,2021-12-01T03:57:12+00:00,3.9059250354767,18,"updated stim.csv",Version93.csv,"Version 93","List 93",horsefly,,ON,4.32,1313,2771,BOI,-,-,"Please name all of the ways you could use this object. Keep in mind that one object can have many uses. Separate your responses with a comma.",,y,3832,,,1869,3652,,,,"sting, bad",1
w10110599,71vcbxnly9,"BOI Norms",1,41,2021-12-01T03:57:16+00:00,3.5351340770721,18,"updated stim.csv",Version93.csv,"Version 93","List 93",,,,,,0,Instruct,,,"You will now be asked a few questions about your experience today.",,"Instruct 4",3467,,,-1,-1,,,,,1
