Username,ID,ExperimentName,Session,Trial,Date,TimeDif,"Condition Number","Stimuli File","Order File","Condition Description","Condition Notes",Stimuli*Cue,Stimuli*Answer,Stimuli*Shuffle,"Stimuli*Stimuli Notes",Stimuli*Value,Procedure*Item,"Procedure*Trial Type","Procedure*Max Time","Procedure*Min Time",Procedure*Text,"Procedure*Procedure Notes",Procedure*Shuffle,Response*RT,Response*Response,Response*Accuracy,Response*RTfirst,Response*RTlast,Response*strictAcc,Response*lenientAcc,Response*focus,Response*JOL,Response*Focus
w10066595_XCH,erfi76jjj6,"BOI Norms",1,1,2021-01-15T12:13:51-08:00,23.141252040863,13,"updated stim.csv",Version88.csv,"Version 88","List 88",,,,,,0,Instruct,-,10,"In this section, you will be presented with a series of objects. Please name as many possible uses for this object as you can think of by typing them in the box below each object.",,Instruct1,22962,,,-1,-1,,,,,1
w10066595_XCH,erfi76jjj6,"BOI Norms",1,2,2021-01-15T12:14:07-08:00,16.721801996231,13,"updated stim.csv",Version88.csv,"Version 88","List 88",,,,,,0,Instruct,-,10,"Please keep in mind that a single object will have more than one use. For example, a ball can be thrown or can be bounced or even stepped on. When listing multiple uses for one object, please separate each use with a comma (i.e., thrown, bounced, stepped on)",,Instruct2,16472,,,-1,-1,,,,,1
w10066595_XCH,erfi76jjj6,"BOI Norms",1,3,2021-01-15T12:14:12-08:00,4.852089881897,13,"updated stim.csv",Version88.csv,"Version 88","List 88",,,,,,0,Instruct,-,-,"Before starting the experiment, you will complete a short practice sesstion. Press ENTER when you are ready to begin.",,Instruct3,4621,,,-1,-1,,,,,1
w10066595_XCH,erfi76jjj6,"BOI Norms",1,4,2021-01-15T12:14:31-08:00,18.752294063568,13,"updated stim.csv",Version88.csv,"Version 88","List 88",saucer,,3005,5.777777778,2249,3006,BOI,-,-,"Please name all of the ways you could use this object. Keep in mind that one object can have many uses. Separate your responses with a comma.",,n,18515,,,2497,15440,,,,"cook, hold",1
w10066595_XCH,erfi76jjj6,"BOI Norms",1,5,2021-01-15T12:14:59-08:00,27.663855075836,13,"updated stim.csv",Version88.csv,"Version 88","List 88",paperwork,,3001,5.625,1866,3002,BOI,-,-,"Please name all of the ways you could use this object. Keep in mind that one object can have many uses. Separate your responses with a comma.",,n,27415,,,2113,26069,,,,"file, read, recycle, keep",1
w10066595_XCH,erfi76jjj6,"BOI Norms",1,6,2021-01-15T12:15:21-08:00,22.141078948975,13,"updated stim.csv",Version88.csv,"Version 88","List 88",grain,,3004,5.217391304,1143,3005,BOI,-,-,"Please name all of the ways you could use this object. Keep in mind that one object can have many uses. Separate your responses with a comma.",,n,21902,,,2486,21124,,,,"mill, cook, process, bake, sprinkle",1
w10066595_XCH,erfi76jjj6,"BOI Norms",1,7,2021-01-15T12:15:28-08:00,7.3271298408508,13,"updated stim.csv",Version88.csv,"Version 88","List 88",shortening,,3002,4.92,2358,3003,BOI,-,-,"Please name all of the ways you could use this object. Keep in mind that one object can have many uses. Separate your responses with a comma.",,n,7093,,,-1,-1,,,,,1
w10066595_XCH,erfi76jjj6,"BOI Norms",1,8,2021-01-15T12:15:59-08:00,30.549190044403,13,"updated stim.csv",Version88.csv,"Version 88","List 88",spaghetti,,3003,6,2461,3004,BOI,-,-,"Please name all of the ways you could use this object. Keep in mind that one object can have many uses. Separate your responses with a comma.",,n,30312,,,1931,25133,,,,"cook, boil, eat, serve, make, warm up",1
w10066595_XCH,erfi76jjj6,"BOI Norms",1,9,2021-01-15T12:16:01-08:00,2.2621231079102,13,"updated stim.csv",Version88.csv,"Version 88","List 88",,,,,,0,Instruct,-,-,"You have completed this section. Press ENTER to continue",,"Instruct 5",2024,,,-1,-1,,,,,1
w10066595_XCH,erfi76jjj6,"BOI Norms",1,10,2021-01-15T12:16:04-08:00,2.7242238521576,13,"updated stim.csv",Version88.csv,"Version 88","List 88",,,,,,0,Instruct,-,-,"You will now start the full experiment. Press ENTER when you are ready to begin.",,,2488,,,-1,-1,,,,,1
w10066595_XCH,erfi76jjj6,"BOI Norms",1,11,2021-01-15T12:16:10-08:00,6.5689251422882,13,"updated stim.csv",Version88.csv,"Version 88","List 88",spout,,2623,5,2485,2624,BOI,-,-,"Please name all of the ways you could use this object. Keep in mind that one object can have many uses. Separate your responses with a comma.",,y,6332,,,2818,6202,,,,"turn on, turn off",1
w10066595_XCH,erfi76jjj6,"BOI Norms",1,12,2021-01-15T12:16:27-08:00,16.700095891953,13,"updated stim.csv",Version88.csv,"Version 88","List 88",Sailboat,,2626,5.266216216,2216,2627,BOI,-,-,"Please name all of the ways you could use this object. Keep in mind that one object can have many uses. Separate your responses with a comma.",,y,16460,,,1450,15747,,,,"sail, crash, dock, sink, cruise",1
w10066595_XCH,erfi76jjj6,"BOI Norms",1,13,2021-01-15T12:16:31-08:00,3.878867149353,13,"updated stim.csv",Version88.csv,"Version 88","List 88",bran,,2640,4.407407407,302,2641,BOI,-,-,"Please name all of the ways you could use this object. Keep in mind that one object can have many uses. Separate your responses with a comma.",,y,3647,,,-1,-1,,,,,1
w10066595_XCH,erfi76jjj6,"BOI Norms",1,14,2021-01-15T12:16:52-08:00,21.311131000519,13,"updated stim.csv",Version88.csv,"Version 88","List 88",kumquat,,2618,5.619047619,1441,2619,BOI,-,-,"Please name all of the ways you could use this object. Keep in mind that one object can have many uses. Separate your responses with a comma.",,y,21075,,,3151,15137,,,,"slice, blend, eat",1
w10066595_XCH,erfi76jjj6,"BOI Norms",1,15,2021-01-15T12:16:59-08:00,7.2334179878235,13,"updated stim.csv",Version88.csv,"Version 88","List 88",bedclothes,,2617,5.708333333,185,2618,BOI,-,-,"Please name all of the ways you could use this object. Keep in mind that one object can have many uses. Separate your responses with a comma.",,y,6985,,,3489,6715,,,,"wear, put on",1
w10066595_XCH,erfi76jjj6,"BOI Norms",1,16,2021-01-15T12:17:04-08:00,4.6099400520325,13,"updated stim.csv",Version88.csv,"Version 88","List 88",crossbar,,2616,5.043478261,704,2617,BOI,-,-,"Please name all of the ways you could use this object. Keep in mind that one object can have many uses. Separate your responses with a comma.",,y,4342,,,-1,-1,,,,,1
w10066595_XCH,erfi76jjj6,"BOI Norms",1,17,2021-01-15T12:17:14-08:00,10.277304887772,13,"updated stim.csv",Version88.csv,"Version 88","List 88",scooter,,2637,5.913043478,2278,2638,BOI,-,-,"Please name all of the ways you could use this object. Keep in mind that one object can have many uses. Separate your responses with a comma.",,y,10039,,,1218,9843,,,,"ride, buy, sell, fall off of",1
w10066595_XCH,erfi76jjj6,"BOI Norms",1,18,2021-01-15T12:17:25-08:00,10.674405097961,13,"updated stim.csv",Version88.csv,"Version 88","List 88",paintbrush,,2630,5.56,1849,2631,BOI,-,-,"Please name all of the ways you could use this object. Keep in mind that one object can have many uses. Separate your responses with a comma.",,y,10424,,,1957,10258,,,,"paint, clean, buy, replace",1
w10066595_XCH,erfi76jjj6,"BOI Norms",1,19,2021-01-15T12:17:44-08:00,18.873077869415,13,"updated stim.csv",Version88.csv,"Version 88","List 88",committeewoman,,2633,4.857142857,609,2634,BOI,-,-,"Please name all of the ways you could use this object. Keep in mind that one object can have many uses. Separate your responses with a comma.",,y,18629,,,4501,17947,,,,"hire, email, elect",1
w10066595_XCH,erfi76jjj6,"BOI Norms",1,20,2021-01-15T12:17:57-08:00,12.78983092308,13,"updated stim.csv",Version88.csv,"Version 88","List 88",balloonist,,2639,4.275862069,131,2640,BOI,-,-,"Please name all of the ways you could use this object. Keep in mind that one object can have many uses. Separate your responses with a comma.",,y,12534,,,2683,10667,,,,"tip, hire, work as a ",1
w10066595_XCH,erfi76jjj6,"BOI Norms",1,21,2021-01-15T12:18:01-08:00,4.1697340011597,13,"updated stim.csv",Version88.csv,"Version 88","List 88",wiper,,2622,5.125,2951,2623,BOI,-,-,"Please name all of the ways you could use this object. Keep in mind that one object can have many uses. Separate your responses with a comma.",,y,3935,,,-1,-1,,,,,1
w10066595_XCH,erfi76jjj6,"BOI Norms",1,22,2021-01-15T12:18:10-08:00,9.4875540733337,13,"updated stim.csv",Version88.csv,"Version 88","List 88",treat,,2634,4.791666667,2771,2635,BOI,-,-,"Please name all of the ways you could use this object. Keep in mind that one object can have many uses. Separate your responses with a comma.",,y,9249,,,1915,9097,,,,"give, bake, make, buy, sell",1
w10066595_XCH,erfi76jjj6,"BOI Norms",1,23,2021-01-15T12:18:28-08:00,17.374403953552,13,"updated stim.csv",Version88.csv,"Version 88","List 88",scanner,,2636,5.444444444,2264,2637,BOI,-,-,"Please name all of the ways you could use this object. Keep in mind that one object can have many uses. Separate your responses with a comma.",,y,17135,,,2090,15332,,,,"to scan things, faxing",1
w10066595_XCH,erfi76jjj6,"BOI Norms",1,24,2021-01-15T12:18:47-08:00,19.821503162384,13,"updated stim.csv",Version88.csv,"Version 88","List 88",grandfather,,2611,5.833333333,1147,2612,BOI,-,-,"Please name all of the ways you could use this object. Keep in mind that one object can have many uses. Separate your responses with a comma.",,y,19572,,,5433,19437,,,,"talk to, love, call, visit, talk about",1
w10066595_XCH,erfi76jjj6,"BOI Norms",1,25,2021-01-15T12:18:57-08:00,9.6028339862823,13,"updated stim.csv",Version88.csv,"Version 88","List 88",youngster,,2621,5,2997,2622,BOI,-,-,"Please name all of the ways you could use this object. Keep in mind that one object can have many uses. Separate your responses with a comma.",,y,9367,,,3734,9155,,,,"play, teach",1
w10066595_XCH,erfi76jjj6,"BOI Norms",1,26,2021-01-15T12:19:13-08:00,16.274004936218,13,"updated stim.csv",Version88.csv,"Version 88","List 88",attendant,,2629,5.083333333,94,2630,BOI,-,-,"Please name all of the ways you could use this object. Keep in mind that one object can have many uses. Separate your responses with a comma.",,y,16037,,,2884,14220,,,,"greet, thank, chat",1
w10066595_XCH,erfi76jjj6,"BOI Norms",1,27,2021-01-15T12:19:22-08:00,8.9242129325867,13,"updated stim.csv",Version88.csv,"Version 88","List 88",uniform,,2620,5.666666667,2826,2621,BOI,-,-,"Please name all of the ways you could use this object. Keep in mind that one object can have many uses. Separate your responses with a comma.",,y,8682,,,1047,3031,,,,"wear, wash",1
w10066595_XCH,erfi76jjj6,"BOI Norms",1,28,2021-01-15T12:19:39-08:00,16.641962051392,13,"updated stim.csv",Version88.csv,"Version 88","List 88",protractor,,2614,5.434782609,2082,2615,BOI,-,-,"Please name all of the ways you could use this object. Keep in mind that one object can have many uses. Separate your responses with a comma.",,y,16405,,,2883,14180,,,,"use to draw a circle",1
w10066595_XCH,erfi76jjj6,"BOI Norms",1,29,2021-01-15T12:19:51-08:00,12.445661067963,13,"updated stim.csv",Version88.csv,"Version 88","List 88",crib,,2631,5.56,694,2632,BOI,-,-,"Please name all of the ways you could use this object. Keep in mind that one object can have many uses. Separate your responses with a comma.",,y,12202,,,1571,11830,,,,"sleep in, put a baby in, build, buy, paint",1
w10066595_XCH,erfi76jjj6,"BOI Norms",1,30,2021-01-15T12:20:09-08:00,17.661401987076,13,"updated stim.csv",Version88.csv,"Version 88","List 88",fertilizer,,2615,5.217391304,967,2616,BOI,-,-,"Please name all of the ways you could use this object. Keep in mind that one object can have many uses. Separate your responses with a comma.",,y,17309,,,3303,17183,,,,"spread, buy, put on ground",1
w10066595_XCH,erfi76jjj6,"BOI Norms",1,31,2021-01-15T12:20:22-08:00,13.261566877365,13,"updated stim.csv",Version88.csv,"Version 88","List 88",breakfast,,2624,6.173913043,311,2625,BOI,-,-,"Please name all of the ways you could use this object. Keep in mind that one object can have many uses. Separate your responses with a comma.",,y,12815,,,1087,11515,,,,"eat, make, buy, cook, bake",1
w10066595_XCH,erfi76jjj6,"BOI Norms",1,32,2021-01-15T12:20:43-08:00,20.30616402626,13,"updated stim.csv",Version88.csv,"Version 88","List 88",stenographer,,2625,4.625,2521,2626,BOI,-,-,"Please name all of the ways you could use this object. Keep in mind that one object can have many uses. Separate your responses with a comma.",,y,20064,,,4210,14348,,,,"work as, make an appointment with",1
w10066595_XCH,erfi76jjj6,"BOI Norms",1,33,2021-01-15T12:20:57-08:00,14.646335124969,13,"updated stim.csv",Version88.csv,"Version 88","List 88",donkey,,2635,4.826086957,820,2636,BOI,-,-,"Please name all of the ways you could use this object. Keep in mind that one object can have many uses. Separate your responses with a comma.",,y,14401,,,1482,14044,,,,"ride, breed, play with, brush, clean",1
w10066595_XCH,erfi76jjj6,"BOI Norms",1,34,2021-01-15T12:21:06-08:00,8.6686749458313,13,"updated stim.csv",Version88.csv,"Version 88","List 88",bus,,2613,5.192307692,368,2614,BOI,-,-,"Please name all of the ways you could use this object. Keep in mind that one object can have many uses. Separate your responses with a comma.",,y,8439,,,1177,8278,,,,"ride, drive, fix",1
w10066595_XCH,erfi76jjj6,"BOI Norms",1,35,2021-01-15T12:21:17-08:00,11.169646978378,13,"updated stim.csv",Version88.csv,"Version 88","List 88",me,,2627,5.708333333,1630,2628,BOI,-,-,"Please name all of the ways you could use this object. Keep in mind that one object can have many uses. Separate your responses with a comma.",,y,10935,,,10189,10260,,,,be,1
w10066595_XCH,erfi76jjj6,"BOI Norms",1,36,2021-01-15T12:21:28-08:00,10.878262996674,13,"updated stim.csv",Version88.csv,"Version 88","List 88",skirt,,2638,6.041666667,2400,2639,BOI,-,-,"Please name all of the ways you could use this object. Keep in mind that one object can have many uses. Separate your responses with a comma.",,y,10642,,,1879,10425,,,,"wear, buy, sell, shop for, try on",1
w10066595_XCH,erfi76jjj6,"BOI Norms",1,37,2021-01-15T12:21:36-08:00,8.2476720809937,13,"updated stim.csv",Version88.csv,"Version 88","List 88",supermarket,,2612,4.869565217,2590,2613,BOI,-,-,"Please name all of the ways you could use this object. Keep in mind that one object can have many uses. Separate your responses with a comma.",,y,7994,,,2032,7794,,,,"go to, shop at, work at",1
w10066595_XCH,erfi76jjj6,"BOI Norms",1,38,2021-01-15T12:21:45-08:00,8.3156700134277,13,"updated stim.csv",Version88.csv,"Version 88","List 88",cornmeal,,2619,5.913043478,649,2620,BOI,-,-,"Please name all of the ways you could use this object. Keep in mind that one object can have many uses. Separate your responses with a comma.",,y,8066,,,1535,6282,,,,"eat, use",1
w10066595_XCH,erfi76jjj6,"BOI Norms",1,39,2021-01-15T12:21:52-08:00,7.3322789669037,13,"updated stim.csv",Version88.csv,"Version 88","List 88",garment,,2632,5.826086957,1081,2633,BOI,-,-,"Please name all of the ways you could use this object. Keep in mind that one object can have many uses. Separate your responses with a comma.",,y,7093,,,2538,6884,,,,"wear, wash, fold",1
w10066595_XCH,erfi76jjj6,"BOI Norms",1,40,2021-01-15T12:21:56-08:00,4.3180270195007,13,"updated stim.csv",Version88.csv,"Version 88","List 88",ukulele,,2628,5.782608696,2815,2629,BOI,-,-,"Please name all of the ways you could use this object. Keep in mind that one object can have many uses. Separate your responses with a comma.",,y,4086,,,1445,3815,,,,"play, listen to",1
w10066595_XCH,erfi76jjj6,"BOI Norms",1,41,2021-01-15T12:21:58-08:00,2.3248629570007,13,"updated stim.csv",Version88.csv,"Version 88","List 88",,,,,,0,Instruct,,,"You will now be asked a few questions about your experience today.",,"Instruct 4",2076,,,-1,-1,,,,,1
