Username,ID,ExperimentName,Session,Trial,Date,TimeDif,"Condition Number","Stimuli File","Order File","Condition Description","Condition Notes",Stimuli*Cue,Stimuli*Answer,Stimuli*Shuffle,"Stimuli*Stimuli Notes",Stimuli*Value,Procedure*Item,"Procedure*Trial Type","Procedure*Max Time","Procedure*Min Time",Procedure*Text,"Procedure*Procedure Notes",Procedure*Shuffle,Response*RT,Response*Response,Response*Accuracy,Response*RTfirst,Response*RTlast,Response*strictAcc,Response*lenientAcc,Response*focus,Response*JOL,Response*Focus
1970697_amp,fkbaya3wle,"BOI Norms",1,1,2020-10-12T18:09:09-07:00,10.414826869965,2,"updated stim.csv",Version52.csv,"Version 52","List 52",,,,,,0,Instruct,-,10,"In this section, you will be presented with a series of objects. Please name as many possible uses for this object as you can think of by typing them in the box below each object.",,Instruct1,10210,,,-1,-1,,,,,1
1970697_amp,fkbaya3wle,"BOI Norms",1,2,2020-10-12T18:09:27-07:00,18.079832077026,2,"updated stim.csv",Version52.csv,"Version 52","List 52",,,,,,0,Instruct,-,10,"Please keep in mind that a single object will have more than one use. For example, a ball can be thrown or can be bounced or even stepped on. When listing multiple uses for one object, please separate each use with a comma (i.e., thrown, bounced, stepped on)",,Instruct2,17813,,,-1,-1,,,,,1
1970697_amp,fkbaya3wle,"BOI Norms",1,3,2020-10-12T18:09:29-07:00,2.2251298427582,2,"updated stim.csv",Version52.csv,"Version 52","List 52",,,,,,0,Instruct,-,-,"Before starting the experiment, you will complete a short practice sesstion. Press ENTER when you are ready to begin.",,Instruct3,1778,,,-1,-1,,,,,1
1970697_amp,fkbaya3wle,"BOI Norms",1,4,2020-10-12T18:09:52-07:00,23.083049058914,2,"updated stim.csv",Version52.csv,"Version 52","List 52",spaghetti,,3003,6,2461,3004,BOI,-,-,"Please name all of the ways you could use this object. Keep in mind that one object can have many uses. Separate your responses with a comma.",,n,22609,,,5113,18124,,,,"eat, cook,craft, ",1
1970697_amp,fkbaya3wle,"BOI Norms",1,5,2020-10-12T18:10:16-07:00,23.728131055832,2,"updated stim.csv",Version52.csv,"Version 52","List 52",saucer,,3005,5.777777778,2249,3006,BOI,-,-,"Please name all of the ways you could use this object. Keep in mind that one object can have many uses. Separate your responses with a comma.",,n,23459,,,4604,22353,,,,"hold food, decorations",1
1970697_amp,fkbaya3wle,"BOI Norms",1,6,2020-10-12T18:10:52-07:00,36.038636922836,2,"updated stim.csv",Version52.csv,"Version 52","List 52",paperwork,,3001,5.625,1866,3002,BOI,-,-,"Please name all of the ways you could use this object. Keep in mind that one object can have many uses. Separate your responses with a comma.",,n,35775,,,7583,34239,,,,"be signed, instructions, wrote on",1
1970697_amp,fkbaya3wle,"BOI Norms",1,7,2020-10-12T18:11:05-07:00,12.86851811409,2,"updated stim.csv",Version52.csv,"Version 52","List 52",shortening,,3002,4.92,2358,3003,BOI,-,-,"Please name all of the ways you could use this object. Keep in mind that one object can have many uses. Separate your responses with a comma.",,n,12601,,,9133,9976,,,,cook,1
1970697_amp,fkbaya3wle,"BOI Norms",1,8,2020-10-12T18:11:12-07:00,7.5789020061493,2,"updated stim.csv",Version52.csv,"Version 52","List 52",grain,,3004,5.217391304,1143,3005,BOI,-,-,"Please name all of the ways you could use this object. Keep in mind that one object can have many uses. Separate your responses with a comma.",,n,7309,,,3276,6095,,,,"grow, cook",1
1970697_amp,fkbaya3wle,"BOI Norms",1,9,2020-10-12T18:11:14-07:00,1.9020719528198,2,"updated stim.csv",Version52.csv,"Version 52","List 52",,,,,,0,Instruct,-,-,"You have completed this section. Press ENTER to continue",,"Instruct 5",1634,,,-1,-1,,,,,1
1970697_amp,fkbaya3wle,"BOI Norms",1,10,2020-10-12T18:11:17-07:00,2.404021024704,2,"updated stim.csv",Version52.csv,"Version 52","List 52",,,,,,0,Instruct,-,-,"You will now start the full experiment. Press ENTER when you are ready to begin.",,,2144,,,-1,-1,,,,,1
1970697_amp,fkbaya3wle,"BOI Norms",1,11,2020-10-12T18:11:36-07:00,18.869015932083,2,"updated stim.csv",Version52.csv,"Version 52","List 52",saddlebag,,1554,5.409090909,2213,1555,BOI,-,-,"Please name all of the ways you could use this object. Keep in mind that one object can have many uses. Separate your responses with a comma.",,y,18592,,,7199,17467,,,,"hold items, put on a saddle",1
1970697_amp,fkbaya3wle,"BOI Norms",1,12,2020-10-12T18:11:48-07:00,11.956568956375,2,"updated stim.csv",Version52.csv,"Version 52","List 52",cab,,1552,5.6,385,1553,BOI,-,-,"Please name all of the ways you could use this object. Keep in mind that one object can have many uses. Separate your responses with a comma.",,y,11688,,,4531,10550,,,,"hold people, drive",1
1970697_amp,fkbaya3wle,"BOI Norms",1,13,2020-10-12T18:11:55-07:00,7.6963369846344,2,"updated stim.csv",Version52.csv,"Version 52","List 52",casket,,1538,4.714285714,451,1539,BOI,-,-,"Please name all of the ways you could use this object. Keep in mind that one object can have many uses. Separate your responses with a comma.",,y,7419,,,3043,6200,,,,"hold people",1
1970697_amp,fkbaya3wle,"BOI Norms",1,14,2020-10-12T18:12:13-07:00,17.230659008026,2,"updated stim.csv",Version52.csv,"Version 52","List 52",cooler,,1536,5.625,634,1537,BOI,-,-,"Please name all of the ways you could use this object. Keep in mind that one object can have many uses. Separate your responses with a comma.",,y,16977,,,1769,15215,,,,"hold ice, keep drinks cold",1
1970697_amp,fkbaya3wle,"BOI Norms",1,15,2020-10-12T18:12:31-07:00,18.661396026611,2,"updated stim.csv",Version52.csv,"Version 52","List 52",bike,,1534,6.48,213,1535,BOI,-,-,"Please name all of the ways you could use this object. Keep in mind that one object can have many uses. Separate your responses with a comma.",,y,17306,,,5298,16233,,,,"get people places, exercise",1
1970697_amp,fkbaya3wle,"BOI Norms",1,16,2020-10-12T18:12:40-07:00,9.2712049484253,2,"updated stim.csv",Version52.csv,"Version 52","List 52",bluefish,,1543,4.48,250,1544,BOI,-,-,"Please name all of the ways you could use this object. Keep in mind that one object can have many uses. Separate your responses with a comma.",,y,8352,,,3961,7282,,,,"eat, swim",1
1970697_amp,fkbaya3wle,"BOI Norms",1,17,2020-10-12T18:12:49-07:00,8.370735168457,2,"updated stim.csv",Version52.csv,"Version 52","List 52",motorcyclist,,1539,4.52,1697,1540,BOI,-,-,"Please name all of the ways you could use this object. Keep in mind that one object can have many uses. Separate your responses with a comma.",,y,8103,,,2319,6940,,,,"get people places",1
1970697_amp,fkbaya3wle,"BOI Norms",1,18,2020-10-12T18:13:09-07:00,19.89701294899,2,"updated stim.csv",Version52.csv,"Version 52","List 52",bookkeeper,,1547,4.458333333,274,1548,BOI,-,-,"Please name all of the ways you could use this object. Keep in mind that one object can have many uses. Separate your responses with a comma.",,y,19632,,,8015,18660,,,,"keep books clean, give books",1
1970697_amp,fkbaya3wle,"BOI Norms",1,19,2020-10-12T18:13:21-07:00,12.632755994797,2,"updated stim.csv",Version52.csv,"Version 52","List 52",copilot,,1533,4.791666667,637,1534,BOI,-,-,"Please name all of the ways you could use this object. Keep in mind that one object can have many uses. Separate your responses with a comma.",,y,12367,,,2416,11378,,,,"help pilot, help fly",1
1970697_amp,fkbaya3wle,"BOI Norms",1,20,2020-10-12T18:13:38-07:00,16.954571962357,2,"updated stim.csv",Version52.csv,"Version 52","List 52",ax,,1541,6.08,105,1542,BOI,-,-,"Please name all of the ways you could use this object. Keep in mind that one object can have many uses. Separate your responses with a comma.",,y,16685,,,2849,15085,,,,"chop wood, chop sticks",1
1970697_amp,fkbaya3wle,"BOI Norms",1,21,2020-10-12T18:13:54-07:00,15.169125080109,2,"updated stim.csv",Version52.csv,"Version 52","List 52",container,,1535,5.461538462,628,1536,BOI,-,-,"Please name all of the ways you could use this object. Keep in mind that one object can have many uses. Separate your responses with a comma.",,y,14903,,,2983,13751,,,,"hold food, hold liquid",1
1970697_amp,fkbaya3wle,"BOI Norms",1,22,2020-10-12T18:14:08-07:00,14.964257001877,2,"updated stim.csv",Version52.csv,"Version 52","List 52",seamstress,,1537,4.4,2296,1538,BOI,-,-,"Please name all of the ways you could use this object. Keep in mind that one object can have many uses. Separate your responses with a comma.",,y,14670,,,3988,13419,,,,"make clothes, fix clothes",1
1970697_amp,fkbaya3wle,"BOI Norms",1,23,2020-10-12T18:14:24-07:00,15.269337892532,2,"updated stim.csv",Version52.csv,"Version 52","List 52",badge,,1549,5.72,119,1550,BOI,-,-,"Please name all of the ways you could use this object. Keep in mind that one object can have many uses. Separate your responses with a comma.",,y,14975,,,9133,13718,,,,"show name ",1
1970697_amp,fkbaya3wle,"BOI Norms",1,24,2020-10-12T18:14:30-07:00,6.0115029811859,2,"updated stim.csv",Version52.csv,"Version 52","List 52",olive,,1544,6.173913043,1806,1545,BOI,-,-,"Please name all of the ways you could use this object. Keep in mind that one object can have many uses. Separate your responses with a comma.",,y,5578,,,3268,4234,,,,"food ",1
1970697_amp,fkbaya3wle,"BOI Norms",1,25,2020-10-12T18:15:04-07:00,34.172438144684,2,"updated stim.csv",Version52.csv,"Version 52","List 52",bandage,,1556,6.304347826,138,1557,BOI,-,-,"Please name all of the ways you could use this object. Keep in mind that one object can have many uses. Separate your responses with a comma.",,y,33803,,,20773,32514,,,,"stop bleeding, help infection",1
1970697_amp,fkbaya3wle,"BOI Norms",1,26,2020-10-12T18:15:16-07:00,12.161169052124,2,"updated stim.csv",Version52.csv,"Version 52","List 52",rifle,,1540,5.958333333,2168,1541,BOI,-,-,"Please name all of the ways you could use this object. Keep in mind that one object can have many uses. Separate your responses with a comma.",,y,11891,,,2052,10764,,,,"shoot, hold bullets",1
1970697_amp,fkbaya3wle,"BOI Norms",1,27,2020-10-12T18:15:34-07:00,17.577059984207,2,"updated stim.csv",Version52.csv,"Version 52","List 52",grave,,1548,4.730769231,1163,1549,BOI,-,-,"Please name all of the ways you could use this object. Keep in mind that one object can have many uses. Separate your responses with a comma.",,y,17163,,,5973,15961,,,,"hold the dead, hold casket",1
1970697_amp,fkbaya3wle,"BOI Norms",1,28,2020-10-12T18:15:46-07:00,12.222114801407,2,"updated stim.csv",Version52.csv,"Version 52","List 52",ceramics,,1545,5.458333333,480,1546,BOI,-,-,"Please name all of the ways you could use this object. Keep in mind that one object can have many uses. Separate your responses with a comma.",,y,11866,,,7391,10393,,,,decorations,1
1970697_amp,fkbaya3wle,"BOI Norms",1,29,2020-10-12T18:15:51-07:00,4.807097196579,2,"updated stim.csv",Version52.csv,"Version 52","List 52",apparel,,1550,5.695652174,58,1551,BOI,-,-,"Please name all of the ways you could use this object. Keep in mind that one object can have many uses. Separate your responses with a comma.",,y,4546,,,2267,3013,,,,wear,1
1970697_amp,fkbaya3wle,"BOI Norms",1,30,2020-10-12T18:16:12-07:00,21.564585924149,2,"updated stim.csv",Version52.csv,"Version 52","List 52",knuckles,,1553,5.37037037,1440,1554,BOI,-,-,"Please name all of the ways you could use this object. Keep in mind that one object can have many uses. Separate your responses with a comma.",,y,21299,,,6322,9136,,,,punch,1
1970697_amp,fkbaya3wle,"BOI Norms",1,31,2020-10-12T18:16:26-07:00,13.25794005394,2,"updated stim.csv",Version52.csv,"Version 52","List 52",dollhouse,,1546,5.826086957,816,1547,BOI,-,-,"Please name all of the ways you could use this object. Keep in mind that one object can have many uses. Separate your responses with a comma.",,y,12989,,,2141,11916,,,,"play with dolls, decorate",1
1970697_amp,fkbaya3wle,"BOI Norms",1,32,2020-10-12T18:16:34-07:00,8.4664378166199,2,"updated stim.csv",Version52.csv,"Version 52","List 52",mallard,,1542,4.772727273,1583,1543,BOI,-,-,"Please name all of the ways you could use this object. Keep in mind that one object can have many uses. Separate your responses with a comma.",,y,8070,,,3174,6930,,,,"fly, pet",1
1970697_amp,fkbaya3wle,"BOI Norms",1,33,2020-10-12T18:16:39-07:00,5.3488581180573,2,"updated stim.csv",Version52.csv,"Version 52","List 52",washbasin,,1555,5.833333333,2895,1556,BOI,-,-,"Please name all of the ways you could use this object. Keep in mind that one object can have many uses. Separate your responses with a comma.",,y,4966,,,-1,-1,,,,,1
1970697_amp,fkbaya3wle,"BOI Norms",1,34,2020-10-12T18:16:50-07:00,10.923903942108,2,"updated stim.csv",Version52.csv,"Version 52","List 52",mace,,1551,5.12,1564,1552,BOI,-,-,"Please name all of the ways you could use this object. Keep in mind that one object can have many uses. Separate your responses with a comma.",,y,10657,,,5967,9282,,,,"spray in face ",1
1970697_amp,fkbaya3wle,"BOI Norms",1,35,2020-10-12T18:17:00-07:00,10.088343143463,2,"updated stim.csv",Version52.csv,"Version 52","List 52",clove,,1560,5.086956522,573,1561,BOI,-,-,"Please name all of the ways you could use this object. Keep in mind that one object can have many uses. Separate your responses with a comma.",,y,9801,,,3251,8846,,,,"lucky , grow",1
1970697_amp,fkbaya3wle,"BOI Norms",1,36,2020-10-12T18:17:12-07:00,11.893769979477,2,"updated stim.csv",Version52.csv,"Version 52","List 52",veranda,,1557,4.666666667,2849,1558,BOI,-,-,"Please name all of the ways you could use this object. Keep in mind that one object can have many uses. Separate your responses with a comma.",,y,11596,,,5725,10366,,,,sail,1
1970697_amp,fkbaya3wle,"BOI Norms",1,37,2020-10-12T18:17:20-07:00,7.9784879684448,2,"updated stim.csv",Version52.csv,"Version 52","List 52",shampoo,,1559,6,2320,1560,BOI,-,-,"Please name all of the ways you could use this object. Keep in mind that one object can have many uses. Separate your responses with a comma.",,y,7705,,,1866,6401,,,,"wash, clean",1
1970697_amp,fkbaya3wle,"BOI Norms",1,38,2020-10-12T18:17:31-07:00,10.372802019119,2,"updated stim.csv",Version52.csv,"Version 52","List 52",pillow,,1531,6.391304348,1962,1532,BOI,-,-,"Please name all of the ways you could use this object. Keep in mind that one object can have many uses. Separate your responses with a comma.",,y,9974,,,4600,8963,,,,"sleep, comfort",1
1970697_amp,fkbaya3wle,"BOI Norms",1,39,2020-10-12T18:17:42-07:00,10.96789598465,2,"updated stim.csv",Version52.csv,"Version 52","List 52",castle,,1558,4.307692308,454,1559,BOI,-,-,"Please name all of the ways you could use this object. Keep in mind that one object can have many uses. Separate your responses with a comma.",,y,10544,,,5595,8294,,,,"home ",1
1970697_amp,fkbaya3wle,"BOI Norms",1,40,2020-10-12T18:17:55-07:00,13.455425024033,2,"updated stim.csv",Version52.csv,"Version 52","List 52",festival,,1532,4.5,968,1533,BOI,-,-,"Please name all of the ways you could use this object. Keep in mind that one object can have many uses. Separate your responses with a comma.",,y,13180,,,7286,9818,,,,"party, ",1
1970697_amp,fkbaya3wle,"BOI Norms",1,41,2020-10-12T18:17:59-07:00,3.5125269889832,2,"updated stim.csv",Version52.csv,"Version 52","List 52",,,,,,0,Instruct,,,"You will now be asked a few questions about your experience today.",,"Instruct 4",3246,,,-1,-1,,,,,1
