Username,ID,ExperimentName,Session,Trial,Date,TimeDif,"Condition Number","Stimuli File","Order File","Condition Description","Condition Notes",Stimuli*Cue,Stimuli*Answer,Stimuli*Shuffle,"Stimuli*Stimuli Notes",Stimuli*Value,Procedure*Item,"Procedure*Trial Type","Procedure*Max Time","Procedure*Min Time",Procedure*Text,"Procedure*Procedure Notes",Procedure*Shuffle,Response*RT,Response*Response,Response*Accuracy,Response*RTfirst,Response*RTlast,Response*strictAcc,Response*lenientAcc,Response*focus,Response*JOL,Response*Focus
w10068861vw,lpiocs9eu4,"BOI Norms",1,1,2021-12-02T03:21:06+00:00,12.395151138306,6,"updated stim.csv",Version6.csv,"Version 6","List 6",,,,,,0,Instruct,-,10,"In this section, you will be presented with a series of objects. Please name as many possible uses for this object as you can think of by typing them in the box below each object.",,Instruct1,12234,,,-1,-1,,,,,1
w10068861vw,lpiocs9eu4,"BOI Norms",1,2,2021-12-02T03:21:22+00:00,15.606838941574,6,"updated stim.csv",Version6.csv,"Version 6","List 6",,,,,,0,Instruct,-,10,"Please keep in mind that a single object will have more than one use. For example, a ball can be thrown or can be bounced or even stepped on. When listing multiple uses for one object, please separate each use with a comma (i.e., thrown, bounced, stepped on)",,Instruct2,15409,,,-1,-1,,,,,1
w10068861vw,lpiocs9eu4,"BOI Norms",1,3,2021-12-02T03:21:25+00:00,3.0661549568176,6,"updated stim.csv",Version6.csv,"Version 6","List 6",,,,,,0,Instruct,-,-,"Before starting the experiment, you will complete a short practice sesstion. Press ENTER when you are ready to begin.",,Instruct3,2874,,,-1,-1,,,,,1
w10068861vw,lpiocs9eu4,"BOI Norms",1,4,2021-12-02T03:22:58+00:00,93.358103990555,6,"updated stim.csv",Version6.csv,"Version 6","List 6",spaghetti,,3003,6,2461,3004,BOI,-,-,"Please name all of the ways you could use this object. Keep in mind that one object can have many uses. Separate your responses with a comma.",,n,93114,,,4010,92449,,,,"cooking, eating, throwing, stepping on ",1
w10068861vw,lpiocs9eu4,"BOI Norms",1,5,2021-12-02T03:23:45+00:00,46.819680929184,6,"updated stim.csv",Version6.csv,"Version 6","List 6",paperwork,,3001,5.625,1866,3002,BOI,-,-,"Please name all of the ways you could use this object. Keep in mind that one object can have many uses. Separate your responses with a comma.",,n,46617,,,1509,45243,,,,"writing, shredding, throwing away, sending, receiving ",1
w10068861vw,lpiocs9eu4,"BOI Norms",1,6,2021-12-02T03:24:33+00:00,48.169465065002,6,"updated stim.csv",Version6.csv,"Version 6","List 6",grain,,3004,5.217391304,1143,3005,BOI,-,-,"Please name all of the ways you could use this object. Keep in mind that one object can have many uses. Separate your responses with a comma.",,n,47952,,,18002,46760,,,,"making bread, making cereal, putting between teeth",1
w10068861vw,lpiocs9eu4,"BOI Norms",1,7,2021-12-02T03:24:57+00:00,23.592668056488,6,"updated stim.csv",Version6.csv,"Version 6","List 6",saucer,,3005,5.777777778,2249,3006,BOI,-,-,"Please name all of the ways you could use this object. Keep in mind that one object can have many uses. Separate your responses with a comma.",,n,23406,,,2169,22409,,,,"putting sauces, putting ordirves on, eating off of ",1
w10068861vw,lpiocs9eu4,"BOI Norms",1,8,2021-12-02T03:25:20+00:00,22.454483032227,6,"updated stim.csv",Version6.csv,"Version 6","List 6",shortening,,3002,4.92,2358,3003,BOI,-,-,"Please name all of the ways you could use this object. Keep in mind that one object can have many uses. Separate your responses with a comma.",,n,22258,,,2107,21761,,,,"melting, frying foods, baking, cooking",1
w10068861vw,lpiocs9eu4,"BOI Norms",1,9,2021-12-02T03:25:21+00:00,1.3125410079956,6,"updated stim.csv",Version6.csv,"Version 6","List 6",,,,,,0,Instruct,-,-,"You have completed this section. Press ENTER to continue",,"Instruct 5",1123,,,-1,-1,,,,,1
w10068861vw,lpiocs9eu4,"BOI Norms",1,10,2021-12-02T03:25:23+00:00,2.0868079662323,6,"updated stim.csv",Version6.csv,"Version 6","List 6",,,,,,0,Instruct,-,-,"You will now start the full experiment. Press ENTER when you are ready to begin.",,,1900,,,-1,-1,,,,,1
w10068861vw,lpiocs9eu4,"BOI Norms",1,11,2021-12-02T03:25:45+00:00,22.148436069489,6,"updated stim.csv",Version6.csv,"Version 6","List 6",wand,,169,5.08,2892,170,BOI,-,-,"Please name all of the ways you could use this object. Keep in mind that one object can have many uses. Separate your responses with a comma.",,y,21959,,,1775,21472,,,,"waving, hitting someone, waving ",1
w10068861vw,lpiocs9eu4,"BOI Norms",1,12,2021-12-02T03:25:47+00:00,2.1633448600769,6,"updated stim.csv",Version6.csv,"Version 6","List 6",parsnip,,159,5.666666667,1878,160,BOI,-,-,"Please name all of the ways you could use this object. Keep in mind that one object can have many uses. Separate your responses with a comma.",,y,1967,,,-1,-1,,,,,1
w10068861vw,lpiocs9eu4,"BOI Norms",1,13,2021-12-02T03:26:03+00:00,15.555691957474,6,"updated stim.csv",Version6.csv,"Version 6","List 6",chinaware,,158,5.913043478,527,159,BOI,-,-,"Please name all of the ways you could use this object. Keep in mind that one object can have many uses. Separate your responses with a comma.",,y,15359,,,1722,15260,,,,"throwing, breaking, placing foods",1
w10068861vw,lpiocs9eu4,"BOI Norms",1,14,2021-12-02T03:26:14+00:00,11.112565994263,6,"updated stim.csv",Version6.csv,"Version 6","List 6",berry,,179,5.523809524,205,180,BOI,-,-,"Please name all of the ways you could use this object. Keep in mind that one object can have many uses. Separate your responses with a comma.",,y,10807,,,2048,10551,,,,"make juice, smash them",1
w10068861vw,lpiocs9eu4,"BOI Norms",1,15,2021-12-02T03:26:28+00:00,13.986500024796,6,"updated stim.csv",Version6.csv,"Version 6","List 6",tinfoil,,155,5.458333333,2703,156,BOI,-,-,"Please name all of the ways you could use this object. Keep in mind that one object can have many uses. Separate your responses with a comma.",,y,13764,,,1555,13558,,,,"wrapping, burning, throwing it ",1
w10068861vw,lpiocs9eu4,"BOI Norms",1,16,2021-12-02T03:26:36+00:00,7.9526240825653,6,"updated stim.csv",Version6.csv,"Version 6","List 6",tofu,,180,5.555555556,2717,181,BOI,-,-,"Please name all of the ways you could use this object. Keep in mind that one object can have many uses. Separate your responses with a comma.",,y,7745,,,1544,7068,,,,"eating, throwing ",1
w10068861vw,lpiocs9eu4,"BOI Norms",1,17,2021-12-02T03:27:29+00:00,53.397300004959,6,"updated stim.csv",Version6.csv,"Version 6","List 6",myself,,162,5.038461538,1731,163,BOI,-,-,"Please name all of the ways you could use this object. Keep in mind that one object can have many uses. Separate your responses with a comma.",,y,53199,,,2067,51372,,,,"walk, talk, laugh, punch, kick, cry, eat, work out, meet new people, kiss, argue, love, remember, forget, type",1
w10068861vw,lpiocs9eu4,"BOI Norms",1,18,2021-12-02T03:28:45+00:00,75.650815010071,6,"updated stim.csv",Version6.csv,"Version 6","List 6",negligee,,172,4.75,1749,173,BOI,-,-,"Please name all of the ways you could use this object. Keep in mind that one object can have many uses. Separate your responses with a comma.",,y,75392,,,-1,-1,,,,,1
w10068861vw,lpiocs9eu4,"BOI Norms",1,19,2021-12-02T03:28:52+00:00,7.3073408603668,6,"updated stim.csv",Version6.csv,"Version 6","List 6",blindfold,,167,5.125,237,168,BOI,-,-,"Please name all of the ways you could use this object. Keep in mind that one object can have many uses. Separate your responses with a comma.",,y,7092,,,2915,6813,,,,"tie down hair ",1
w10068861vw,lpiocs9eu4,"BOI Norms",1,20,2021-12-02T03:29:29+00:00,36.46408200264,6,"updated stim.csv",Version6.csv,"Version 6","List 6",physician,,161,5.12,1945,162,BOI,-,-,"Please name all of the ways you could use this object. Keep in mind that one object can have many uses. Separate your responses with a comma.",,y,36273,,,12311,36128,,,,"overlook someones body, find things wrong, diagnose",1
w10068861vw,lpiocs9eu4,"BOI Norms",1,21,2021-12-02T03:30:27+00:00,58.471993207932,6,"updated stim.csv",Version6.csv,"Version 6","List 6",footballer,,165,5.041666667,1031,166,BOI,-,-,"Please name all of the ways you could use this object. Keep in mind that one object can have many uses. Separate your responses with a comma.",,y,58280,,,1363,56968,,,,"play football, kick, throw the football, catch the football, punt, block, sack, make touchdowns, run, celebrate ",1
w10068861vw,lpiocs9eu4,"BOI Norms",1,22,2021-12-02T03:30:36+00:00,8.8726937770844,6,"updated stim.csv",Version6.csv,"Version 6","List 6",canvass,,177,4.347826087,421,178,BOI,-,-,"Please name all of the ways you could use this object. Keep in mind that one object can have many uses. Separate your responses with a comma.",,y,8649,,,3428,8434,,,,"draw, color, paint ",1
w10068861vw,lpiocs9eu4,"BOI Norms",1,23,2021-12-02T03:30:51+00:00,14.960694074631,6,"updated stim.csv",Version6.csv,"Version 6","List 6",screw,,152,5.708333333,2286,153,BOI,-,-,"Please name all of the ways you could use this object. Keep in mind that one object can have many uses. Separate your responses with a comma.",,y,14771,,,1720,14294,,,,"hold things together, screw in ",1
w10068861vw,lpiocs9eu4,"BOI Norms",1,24,2021-12-02T03:30:53+00:00,2.0603909492493,6,"updated stim.csv",Version6.csv,"Version 6","List 6",chronograph,,154,4.684210526,538,155,BOI,-,-,"Please name all of the ways you could use this object. Keep in mind that one object can have many uses. Separate your responses with a comma.",,y,1849,,,-1,-1,,,,,1
w10068861vw,lpiocs9eu4,"BOI Norms",1,25,2021-12-02T03:31:17+00:00,23.820464134216,6,"updated stim.csv",Version6.csv,"Version 6","List 6",bicep,,151,5.666666667,209,152,BOI,-,-,"Please name all of the ways you could use this object. Keep in mind that one object can have many uses. Separate your responses with a comma.",,y,23630,,,5410,23470,,,,"resist muscles giving out, get stronger, get weaker",1
w10068861vw,lpiocs9eu4,"BOI Norms",1,26,2021-12-02T03:31:21+00:00,4.0597779750824,6,"updated stim.csv",Version6.csv,"Version 6","List 6",balcony,,176,4.739130435,127,177,BOI,-,-,"Please name all of the ways you could use this object. Keep in mind that one object can have many uses. Separate your responses with a comma.",,y,3768,,,3039,3643,,,,see,1
w10068861vw,lpiocs9eu4,"BOI Norms",1,27,2021-12-02T03:31:33+00:00,12.543040990829,6,"updated stim.csv",Version6.csv,"Version 6","List 6",whisky,,174,5.857142857,2931,175,BOI,-,-,"Please name all of the ways you could use this object. Keep in mind that one object can have many uses. Separate your responses with a comma.",,y,12343,,,1411,12229,,,,"make drunk, make you feel better",1
w10068861vw,lpiocs9eu4,"BOI Norms",1,28,2021-12-02T03:31:38+00:00,4.3037929534912,6,"updated stim.csv",Version6.csv,"Version 6","List 6",snowfall,,166,4.347826087,2433,167,BOI,-,-,"Please name all of the ways you could use this object. Keep in mind that one object can have many uses. Separate your responses with a comma.",,y,4094,,,2071,3921,,,,"be colf ",1
w10068861vw,lpiocs9eu4,"BOI Norms",1,29,2021-12-02T03:31:41+00:00,3.3339021205902,6,"updated stim.csv",Version6.csv,"Version 6","List 6",scale,,175,5.652173913,2259,176,BOI,-,-,"Please name all of the ways you could use this object. Keep in mind that one object can have many uses. Separate your responses with a comma.",,y,3109,,,1444,2635,,,,"weigh ",1
w10068861vw,lpiocs9eu4,"BOI Norms",1,30,2021-12-02T03:31:46+00:00,4.5505559444427,6,"updated stim.csv",Version6.csv,"Version 6","List 6",family,,153,5.291666667,944,154,BOI,-,-,"Please name all of the ways you could use this object. Keep in mind that one object can have many uses. Separate your responses with a comma.",,y,4367,,,1573,4117,,,,"make happy",1
w10068861vw,lpiocs9eu4,"BOI Norms",1,31,2021-12-02T03:32:03+00:00,17.343148946762,6,"updated stim.csv",Version6.csv,"Version 6","List 6",bathe,,156,5.214285714,168,157,BOI,-,-,"Please name all of the ways you could use this object. Keep in mind that one object can have many uses. Separate your responses with a comma.",,y,17133,,,1564,13406,,,,"make you clean, take away germs, ",1
w10068861vw,lpiocs9eu4,"BOI Norms",1,32,2021-12-02T03:32:06+00:00,3.059219121933,6,"updated stim.csv",Version6.csv,"Version 6","List 6",bird,,171,4.896551724,220,172,BOI,-,-,"Please name all of the ways you could use this object. Keep in mind that one object can have many uses. Separate your responses with a comma.",,y,2808,,,1444,2514,,,,chirp,1
w10068861vw,lpiocs9eu4,"BOI Norms",1,33,2021-12-02T03:32:15+00:00,9.0527019500732,6,"updated stim.csv",Version6.csv,"Version 6","List 6",crystal,,170,4.37037037,720,171,BOI,-,-,"Please name all of the ways you could use this object. Keep in mind that one object can have many uses. Separate your responses with a comma.",,y,8820,,,2213,8635,,,,"put on necklace, sell",1
w10068861vw,lpiocs9eu4,"BOI Norms",1,34,2021-12-02T03:32:22+00:00,6.4997210502625,6,"updated stim.csv",Version6.csv,"Version 6","List 6",desert,,160,4.291666667,779,161,BOI,-,-,"Please name all of the ways you could use this object. Keep in mind that one object can have many uses. Separate your responses with a comma.",,y,6264,,,2244,6021,,,,"be dry",1
w10068861vw,lpiocs9eu4,"BOI Norms",1,35,2021-12-02T03:32:25+00:00,3.8754398822784,6,"updated stim.csv",Version6.csv,"Version 6","List 6",ginger,,178,5.32,1104,179,BOI,-,-,"Please name all of the ways you could use this object. Keep in mind that one object can have many uses. Separate your responses with a comma.",,y,3649,,,1478,3449,,,,"give flavot",1
w10068861vw,lpiocs9eu4,"BOI Norms",1,36,2021-12-02T03:32:29+00:00,3.3548099994659,6,"updated stim.csv",Version6.csv,"Version 6","List 6",ticket,,164,5.333333333,2692,165,BOI,-,-,"Please name all of the ways you could use this object. Keep in mind that one object can have many uses. Separate your responses with a comma.",,y,3163,,,-1,-1,,,,,1
w10068861vw,lpiocs9eu4,"BOI Norms",1,37,2021-12-02T03:32:30+00:00,1.125216960907,6,"updated stim.csv",Version6.csv,"Version 6","List 6",pilaf,,157,4.7,1959,158,BOI,-,-,"Please name all of the ways you could use this object. Keep in mind that one object can have many uses. Separate your responses with a comma.",,y,929,,,-1,-1,,,,,1
w10068861vw,lpiocs9eu4,"BOI Norms",1,38,2021-12-02T03:32:40+00:00,10.336714982986,6,"updated stim.csv",Version6.csv,"Version 6","List 6",harvest,,168,4.464285714,1256,169,BOI,-,-,"Please name all of the ways you could use this object. Keep in mind that one object can have many uses. Separate your responses with a comma.",,y,10147,,,2918,6239,,,,"give food, ",1
w10068861vw,lpiocs9eu4,"BOI Norms",1,39,2021-12-02T03:32:54+00:00,13.895985126495,6,"updated stim.csv",Version6.csv,"Version 6","List 6",tabasco,,173,5.260869565,2615,174,BOI,-,-,"Please name all of the ways you could use this object. Keep in mind that one object can have many uses. Separate your responses with a comma.",,y,13706,,,1606,13493,,,,"put on chicken, flavor food",1
w10068861vw,lpiocs9eu4,"BOI Norms",1,40,2021-12-02T03:33:03+00:00,8.857540845871,6,"updated stim.csv",Version6.csv,"Version 6","List 6",van,,163,6.28,2836,164,BOI,-,-,"Please name all of the ways you could use this object. Keep in mind that one object can have many uses. Separate your responses with a comma.",,y,8666,,,3499,8412,,,,"tote alot of people",1
w10068861vw,lpiocs9eu4,"BOI Norms",1,41,2021-12-02T03:33:05+00:00,1.5042641162872,6,"updated stim.csv",Version6.csv,"Version 6","List 6",,,,,,0,Instruct,,,"You will now be asked a few questions about your experience today.",,"Instruct 4",1323,,,-1,-1,,,,,1
