Username,ID,ExperimentName,Session,Trial,Date,TimeDif,"Condition Number","Stimuli File","Order File","Condition Description","Condition Notes",Stimuli*Cue,Stimuli*Answer,Stimuli*Shuffle,"Stimuli*Stimuli Notes",Stimuli*Value,Procedure*Item,"Procedure*Trial Type","Procedure*Max Time","Procedure*Min Time",Procedure*Text,"Procedure*Procedure Notes",Procedure*Shuffle,Response*RT,Response*Response,Response*Accuracy,Response*RTfirst,Response*RTlast,Response*strictAcc,Response*lenientAcc,Response*focus,Response*JOL,Response*Focus
w10012841bm,q9m5ltys9l,"BOI Norms",1,1,2021-09-16T15:11:16-07:00,12.32611989975,3,"updated stim.csv",Version53.csv,"Version 53","List 53",,,,,,0,Instruct,-,10,"In this section, you will be presented with a series of objects. Please name as many possible uses for this object as you can think of by typing them in the box below each object.",,Instruct1,12105,,,-1,-1,,,,,1
w10012841bm,q9m5ltys9l,"BOI Norms",1,2,2021-09-16T15:12:18-07:00,62.21909403801,3,"updated stim.csv",Version53.csv,"Version 53","List 53",,,,,,0,Instruct,-,10,"Please keep in mind that a single object will have more than one use. For example, a ball can be thrown or can be bounced or even stepped on. When listing multiple uses for one object, please separate each use with a comma (i.e., thrown, bounced, stepped on)",,Instruct2,61958,,,-1,-1,,,,,0.467
w10012841bm,q9m5ltys9l,"BOI Norms",1,3,2021-09-16T15:12:26-07:00,8.1202399730682,3,"updated stim.csv",Version53.csv,"Version 53","List 53",,,,,,0,Instruct,-,-,"Before starting the experiment, you will complete a short practice sesstion. Press ENTER when you are ready to begin.",,Instruct3,7860,,,-1,-1,,,,,1
w10012841bm,q9m5ltys9l,"BOI Norms",1,4,2021-09-16T15:12:42-07:00,15.428189992905,3,"updated stim.csv",Version53.csv,"Version 53","List 53",spaghetti,,3003,6,2461,3004,BOI,-,-,"Please name all of the ways you could use this object. Keep in mind that one object can have many uses. Separate your responses with a comma.",,n,12297,,,2775,10039,,,,"eating, cooking, throwing",1
w10012841bm,q9m5ltys9l,"BOI Norms",1,5,2021-09-16T15:13:02-07:00,20.280288934708,3,"updated stim.csv",Version53.csv,"Version 53","List 53",paperwork,,3001,5.625,1866,3002,BOI,-,-,"Please name all of the ways you could use this object. Keep in mind that one object can have many uses. Separate your responses with a comma.",,n,20034,,,2816,18265,,,,"studying, recycling, writing, scanning, copying",1
w10012841bm,q9m5ltys9l,"BOI Norms",1,6,2021-09-16T15:13:15-07:00,13.064773082733,3,"updated stim.csv",Version53.csv,"Version 53","List 53",shortening,,3002,4.92,2358,3003,BOI,-,-,"Please name all of the ways you could use this object. Keep in mind that one object can have many uses. Separate your responses with a comma.",,n,12824,,,9541,10639,,,,cooking,1
w10012841bm,q9m5ltys9l,"BOI Norms",1,7,2021-09-16T15:13:37-07:00,21.969666004181,3,"updated stim.csv",Version53.csv,"Version 53","List 53",grain,,3004,5.217391304,1143,3005,BOI,-,-,"Please name all of the ways you could use this object. Keep in mind that one object can have many uses. Separate your responses with a comma.",,n,21731,,,1961,15964,,,,"cooking, bread, pasta",1
w10012841bm,q9m5ltys9l,"BOI Norms",1,8,2021-09-16T15:14:24-07:00,47.423806905746,3,"updated stim.csv",Version53.csv,"Version 53","List 53",saucer,,3005,5.777777778,2249,3006,BOI,-,-,"Please name all of the ways you could use this object. Keep in mind that one object can have many uses. Separate your responses with a comma.",,n,47178,,,26186,45299,,,,"condiments, coffee, cup",1
w10012841bm,q9m5ltys9l,"BOI Norms",1,9,2021-09-16T15:14:26-07:00,1.8792660236359,3,"updated stim.csv",Version53.csv,"Version 53","List 53",,,,,,0,Instruct,-,-,"You have completed this section. Press ENTER to continue",,"Instruct 5",1691,,,-1,-1,,,,,1
w10012841bm,q9m5ltys9l,"BOI Norms",1,10,2021-09-16T15:14:30-07:00,3.9466240406036,3,"updated stim.csv",Version53.csv,"Version 53","List 53",,,,,,0,Instruct,-,-,"You will now start the full experiment. Press ENTER when you are ready to begin.",,,3709,,,-1,-1,,,,,1
w10012841bm,q9m5ltys9l,"BOI Norms",1,11,2021-09-16T15:14:48-07:00,18.227061033249,3,"updated stim.csv",Version53.csv,"Version 53","List 53",cashmere,,1586,4.875,450,1587,BOI,-,-,"Please name all of the ways you could use this object. Keep in mind that one object can have many uses. Separate your responses with a comma.",,y,17978,,,1896,17033,,,,"clothing, carpet, handbag, blankets",1
w10012841bm,q9m5ltys9l,"BOI Norms",1,12,2021-09-16T15:15:11-07:00,22.101325035095,3,"updated stim.csv",Version53.csv,"Version 53","List 53",excrement,,1577,4.56,926,1578,BOI,-,-,"Please name all of the ways you could use this object. Keep in mind that one object can have many uses. Separate your responses with a comma.",,y,21846,,,17374,21214,,,,"waste management",1
w10012841bm,q9m5ltys9l,"BOI Norms",1,13,2021-09-16T15:15:31-07:00,20.434732913971,3,"updated stim.csv",Version53.csv,"Version 53","List 53",rosemary,,1569,5.379310345,2196,1570,BOI,-,-,"Please name all of the ways you could use this object. Keep in mind that one object can have many uses. Separate your responses with a comma.",,y,20186,,,3983,19657,,,,"scent, seasoning, candle",1
w10012841bm,q9m5ltys9l,"BOI Norms",1,14,2021-09-16T15:16:06-07:00,34.96408200264,3,"updated stim.csv",Version53.csv,"Version 53","List 53",custard,,1574,4.956521739,734,1575,BOI,-,-,"Please name all of the ways you could use this object. Keep in mind that one object can have many uses. Separate your responses with a comma.",,y,34719,,,2816,30621,,,,"food, ingredient",1
w10012841bm,q9m5ltys9l,"BOI Norms",1,15,2021-09-16T15:16:13-07:00,7.0907819271088,3,"updated stim.csv",Version53.csv,"Version 53","List 53",earwax,,1575,5.041666667,884,1576,BOI,-,-,"Please name all of the ways you could use this object. Keep in mind that one object can have many uses. Separate your responses with a comma.",,y,6856,,,3838,5825,,,,protection,1
w10012841bm,q9m5ltys9l,"BOI Norms",1,16,2021-09-16T15:16:36-07:00,22.620018959045,3,"updated stim.csv",Version53.csv,"Version 53","List 53",bridesmaid,,1568,5.08,321,1569,BOI,-,-,"Please name all of the ways you could use this object. Keep in mind that one object can have many uses. Separate your responses with a comma.",,y,22365,,,5120,21742,,,,"wedding, helper",1
w10012841bm,q9m5ltys9l,"BOI Norms",1,17,2021-09-16T15:16:49-07:00,13.720888137817,3,"updated stim.csv",Version53.csv,"Version 53","List 53",carrot,,1583,6.043478261,441,1584,BOI,-,-,"Please name all of the ways you could use this object. Keep in mind that one object can have many uses. Separate your responses with a comma.",,y,13466,,,2066,9620,,,,"ingredient, rabbit food",1
w10012841bm,q9m5ltys9l,"BOI Norms",1,18,2021-09-16T15:16:58-07:00,8.6365649700165,3,"updated stim.csv",Version53.csv,"Version 53","List 53",ammunition,,1567,4.592592593,35,1568,BOI,-,-,"Please name all of the ways you could use this object. Keep in mind that one object can have many uses. Separate your responses with a comma.",,y,8377,,,2670,3725,,,,guns,1
w10012841bm,q9m5ltys9l,"BOI Norms",1,19,2021-09-16T15:17:27-07:00,28.647006034851,3,"updated stim.csv",Version53.csv,"Version 53","List 53",therapist,,1576,5.148148148,2675,1577,BOI,-,-,"Please name all of the ways you could use this object. Keep in mind that one object can have many uses. Separate your responses with a comma.",,y,28401,,,4460,27604,,,,"help, treatment, conversation",0.482
w10012841bm,q9m5ltys9l,"BOI Norms",1,20,2021-09-16T15:17:37-07:00,9.9150359630585,3,"updated stim.csv",Version53.csv,"Version 53","List 53",publication,,1578,4.48,2085,1579,BOI,-,-,"Please name all of the ways you could use this object. Keep in mind that one object can have many uses. Separate your responses with a comma.",,y,9665,,,2785,8827,,,,"books, movies, music",1
w10012841bm,q9m5ltys9l,"BOI Norms",1,21,2021-09-16T15:17:58-07:00,21.699831962585,3,"updated stim.csv",Version53.csv,"Version 53","List 53",napkin,,1579,6.333333333,1735,1580,BOI,-,-,"Please name all of the ways you could use this object. Keep in mind that one object can have many uses. Separate your responses with a comma.",,y,21450,,,1839,17664,,,,"cleaning, plate, coaster",1
w10012841bm,q9m5ltys9l,"BOI Norms",1,22,2021-09-16T15:18:26-07:00,28.012971162796,3,"updated stim.csv",Version53.csv,"Version 53","List 53",speakers,,1565,4.92,2464,1566,BOI,-,-,"Please name all of the ways you could use this object. Keep in mind that one object can have many uses. Separate your responses with a comma.",,y,27769,,,4339,15305,,,,"music, television",1
w10012841bm,q9m5ltys9l,"BOI Norms",1,23,2021-09-16T15:18:31-07:00,4.5318648815155,3,"updated stim.csv",Version53.csv,"Version 53","List 53",slipper,,1564,6.166666667,2417,1565,BOI,-,-,"Please name all of the ways you could use this object. Keep in mind that one object can have many uses. Separate your responses with a comma.",,y,4288,,,2202,2878,,,,feet,1
w10012841bm,q9m5ltys9l,"BOI Norms",1,24,2021-09-16T15:18:49-07:00,18.623509883881,3,"updated stim.csv",Version53.csv,"Version 53","List 53",planner,,1563,4.916666667,1988,1564,BOI,-,-,"Please name all of the ways you could use this object. Keep in mind that one object can have many uses. Separate your responses with a comma.",,y,18368,,,3269,17748,,,,"scheduling, nutrition",1
w10012841bm,q9m5ltys9l,"BOI Norms",1,25,2021-09-16T15:18:55-07:00,6.0303490161896,3,"updated stim.csv",Version53.csv,"Version 53","List 53",bifocal,,1584,4.9,211,1585,BOI,-,-,"Please name all of the ways you could use this object. Keep in mind that one object can have many uses. Separate your responses with a comma.",,y,5771,,,4427,5499,,,,glasses,1
w10012841bm,q9m5ltys9l,"BOI Norms",1,26,2021-09-16T15:19:33-07:00,37.751910209656,3,"updated stim.csv",Version53.csv,"Version 53","List 53",graphite,,1580,4.590909091,1159,1581,BOI,-,-,"Please name all of the ways you could use this object. Keep in mind that one object can have many uses. Separate your responses with a comma.",,y,37493,,,2168,37185,,,,"sports, steal, plastic, pencils",1
w10012841bm,q9m5ltys9l,"BOI Norms",1,27,2021-09-16T15:19:42-07:00,8.4428119659424,3,"updated stim.csv",Version53.csv,"Version 53","List 53",mucus,,1585,4.88,1709,1586,BOI,-,-,"Please name all of the ways you could use this object. Keep in mind that one object can have many uses. Separate your responses with a comma.",,y,8191,,,3851,7940,,,,moisture,1
w10012841bm,q9m5ltys9l,"BOI Norms",1,28,2021-09-16T15:19:46-07:00,4.672492980957,3,"updated stim.csv",Version53.csv,"Version 53","List 53",bodyguard,,1570,4.72,262,1571,BOI,-,-,"Please name all of the ways you could use this object. Keep in mind that one object can have many uses. Separate your responses with a comma.",,y,4429,,,1689,4101,,,,protection,1
w10012841bm,q9m5ltys9l,"BOI Norms",1,29,2021-09-16T15:20:04-07:00,17.219303846359,3,"updated stim.csv",Version53.csv,"Version 53","List 53",penknife,,1572,5.833333333,1915,1573,BOI,-,-,"Please name all of the ways you could use this object. Keep in mind that one object can have many uses. Separate your responses with a comma.",,y,16962,,,14272,15270,,,,cutting,1
w10012841bm,q9m5ltys9l,"BOI Norms",1,30,2021-09-16T15:20:17-07:00,13.464819192886,3,"updated stim.csv",Version53.csv,"Version 53","List 53",kids,,1571,6.44,1416,1572,BOI,-,-,"Please name all of the ways you could use this object. Keep in mind that one object can have many uses. Separate your responses with a comma.",,y,13215,,,2706,12490,,,,"joy, help, guidance ",1
w10012841bm,q9m5ltys9l,"BOI Norms",1,31,2021-09-16T15:20:34-07:00,16.923147916794,3,"updated stim.csv",Version53.csv,"Version 53","List 53",table,,1589,6.4,2616,1590,BOI,-,-,"Please name all of the ways you could use this object. Keep in mind that one object can have many uses. Separate your responses with a comma.",,y,16678,,,3132,15303,,,,"platform, eating off of, desk",1
w10012841bm,q9m5ltys9l,"BOI Norms",1,32,2021-09-16T15:20:37-07:00,3.0461399555206,3,"updated stim.csv",Version53.csv,"Version 53","List 53",cuttlefish,,1588,4.454545455,740,1589,BOI,-,-,"Please name all of the ways you could use this object. Keep in mind that one object can have many uses. Separate your responses with a comma.",,y,2799,,,2219,2549,,,,food,1
w10012841bm,q9m5ltys9l,"BOI Norms",1,33,2021-09-16T15:20:45-07:00,8.4471120834351,3,"updated stim.csv",Version53.csv,"Version 53","List 53",waistcoat,,1573,6.44,2882,1574,BOI,-,-,"Please name all of the ways you could use this object. Keep in mind that one object can have many uses. Separate your responses with a comma.",,y,8188,,,4223,7761,,,,"clothing, warmth",1
w10012841bm,q9m5ltys9l,"BOI Norms",1,34,2021-09-16T15:20:57-07:00,11.087756872177,3,"updated stim.csv",Version53.csv,"Version 53","List 53",ham,,1581,5.541666667,1221,1582,BOI,-,-,"Please name all of the ways you could use this object. Keep in mind that one object can have many uses. Separate your responses with a comma.",,y,10832,,,1821,3678,,,,food,1
w10012841bm,q9m5ltys9l,"BOI Norms",1,35,2021-09-16T15:21:10-07:00,13.590865135193,3,"updated stim.csv",Version53.csv,"Version 53","List 53",trashcan,,1561,5.76,2765,1562,BOI,-,-,"Please name all of the ways you could use this object. Keep in mind that one object can have many uses. Separate your responses with a comma.",,y,13344,,,2642,4650,,,,waste,1
w10012841bm,q9m5ltys9l,"BOI Norms",1,36,2021-09-16T15:21:18-07:00,7.8972859382629,3,"updated stim.csv",Version53.csv,"Version 53","List 53",defendant,,1562,4.291666667,767,1563,BOI,-,-,"Please name all of the ways you could use this object. Keep in mind that one object can have many uses. Separate your responses with a comma.",,y,7629,,,4731,6307,,,,courtroom,1
w10012841bm,q9m5ltys9l,"BOI Norms",1,37,2021-09-16T15:21:27-07:00,8.6202960014343,3,"updated stim.csv",Version53.csv,"Version 53","List 53",gourd,,1566,5.208333333,1141,1567,BOI,-,-,"Please name all of the ways you could use this object. Keep in mind that one object can have many uses. Separate your responses with a comma.",,y,8373,,,2114,6880,,,,"cooking, decoration",1
w10012841bm,q9m5ltys9l,"BOI Norms",1,38,2021-09-16T15:21:50-07:00,22.948281049728,3,"updated stim.csv",Version53.csv,"Version 53","List 53",maiden,,1582,4.44,1575,1583,BOI,-,-,"Please name all of the ways you could use this object. Keep in mind that one object can have many uses. Separate your responses with a comma.",,y,22690,,,19790,21460,,,,horse,1
w10012841bm,q9m5ltys9l,"BOI Norms",1,39,2021-09-16T15:22:39-07:00,49.616992950439,3,"updated stim.csv",Version53.csv,"Version 53","List 53",you,,1590,5.52,2996,1591,BOI,-,-,"Please name all of the ways you could use this object. Keep in mind that one object can have many uses. Separate your responses with a comma.",,y,49364,,,8407,48869,,,,"cooking, cleaning, clown, baking, driving, talking",1
w10012841bm,q9m5ltys9l,"BOI Norms",1,40,2021-09-16T15:22:45-07:00,5.4840590953827,3,"updated stim.csv",Version53.csv,"Version 53","List 53",bankbook,,1587,5.363636364,143,1588,BOI,-,-,"Please name all of the ways you could use this object. Keep in mind that one object can have many uses. Separate your responses with a comma.",,y,4854,,,3232,4335,,,,finances,1
w10012841bm,q9m5ltys9l,"BOI Norms",1,41,2021-09-16T15:22:48-07:00,2.9388859272003,3,"updated stim.csv",Version53.csv,"Version 53","List 53",,,,,,0,Instruct,,,"You will now be asked a few questions about your experience today.",,"Instruct 4",2677,,,-1,-1,,,,,1
