Username,ID,ExperimentName,Session,Trial,Date,TimeDif,"Condition Number","Stimuli File","Order File","Condition Description","Condition Notes",Stimuli*Cue,Stimuli*Answer,Stimuli*Shuffle,"Stimuli*Stimuli Notes",Stimuli*Value,Procedure*Item,"Procedure*Trial Type","Procedure*Max Time","Procedure*Min Time",Procedure*Text,"Procedure*Procedure Notes",Procedure*Shuffle,Response*RT,Response*Response,Response*Accuracy,Response*RTfirst,Response*RTlast,Response*strictAcc,Response*lenientAcc,Response*focus,Response*JOL,Response*Focus
w10094029_wsh,16c8b9lsyl,"BOI Norms",1,1,2020-11-11T05:56:25-08:00,13.526756048203,17,"updated stim.csv",Version17.csv,"Version 17","List 17",,,,,,0,Instruct,-,10,"In this section, you will be presented with a series of objects. Please name as many possible uses for this object as you can think of by typing them in the box below each object.",,Instruct1,13234,,,-1,-1,,,,,1
w10094029_wsh,16c8b9lsyl,"BOI Norms",1,2,2020-11-11T05:56:36-08:00,10.381138801575,17,"updated stim.csv",Version17.csv,"Version 17","List 17",,,,,,0,Instruct,-,10,"Please keep in mind that a single object will have more than one use. For example, a ball can be thrown or can be bounced or even stepped on. When listing multiple uses for one object, please separate each use with a comma (i.e., thrown, bounced, stepped on)",,Instruct2,10069,,,-1,-1,,,,,1
w10094029_wsh,16c8b9lsyl,"BOI Norms",1,3,2020-11-11T05:56:41-08:00,5.5117661952972,17,"updated stim.csv",Version17.csv,"Version 17","List 17",,,,,,0,Instruct,-,-,"Before starting the experiment, you will complete a short practice sesstion. Press ENTER when you are ready to begin.",,Instruct3,5293,,,-1,-1,,,,,1
w10094029_wsh,16c8b9lsyl,"BOI Norms",1,4,2020-11-11T05:56:52-08:00,11.143533945084,17,"updated stim.csv",Version17.csv,"Version 17","List 17",spaghetti,,3003,6,2461,3004,BOI,-,-,"Please name all of the ways you could use this object. Keep in mind that one object can have many uses. Separate your responses with a comma.",,n,10806,,,3400,5934,,,,"cook, eat",1
w10094029_wsh,16c8b9lsyl,"BOI Norms",1,5,2020-11-11T05:56:59-08:00,7.2085299491882,17,"updated stim.csv",Version17.csv,"Version 17","List 17",shortening,,3002,4.92,2358,3003,BOI,-,-,"Please name all of the ways you could use this object. Keep in mind that one object can have many uses. Separate your responses with a comma.",,n,6894,,,2297,4246,,,,"cook, bake",1
w10094029_wsh,16c8b9lsyl,"BOI Norms",1,6,2020-11-11T05:57:08-08:00,8.2031650543213,17,"updated stim.csv",Version17.csv,"Version 17","List 17",grain,,3004,5.217391304,1143,3005,BOI,-,-,"Please name all of the ways you could use this object. Keep in mind that one object can have many uses. Separate your responses with a comma.",,n,7911,,,2919,5465,,,,"cook, bake, eat",1
w10094029_wsh,16c8b9lsyl,"BOI Norms",1,7,2020-11-11T05:57:19-08:00,11.674175024033,17,"updated stim.csv",Version17.csv,"Version 17","List 17",paperwork,,3001,5.625,1866,3002,BOI,-,-,"Please name all of the ways you could use this object. Keep in mind that one object can have many uses. Separate your responses with a comma.",,n,11376,,,3529,9952,,,,"file, complete, submit",1
w10094029_wsh,16c8b9lsyl,"BOI Norms",1,8,2020-11-11T05:57:28-08:00,8.3986439704895,17,"updated stim.csv",Version17.csv,"Version 17","List 17",saucer,,3005,5.777777778,2249,3006,BOI,-,-,"Please name all of the ways you could use this object. Keep in mind that one object can have many uses. Separate your responses with a comma.",,n,8075,,,3115,5932,,,,"clean, use",1
w10094029_wsh,16c8b9lsyl,"BOI Norms",1,9,2020-11-11T05:57:30-08:00,2.3066620826721,17,"updated stim.csv",Version17.csv,"Version 17","List 17",,,,,,0,Instruct,-,-,"You have completed this section. Press ENTER to continue",,"Instruct 5",2083,,,-1,-1,,,,,1
w10094029_wsh,16c8b9lsyl,"BOI Norms",1,10,2020-11-11T05:57:33-08:00,2.5681838989258,17,"updated stim.csv",Version17.csv,"Version 17","List 17",,,,,,0,Instruct,-,-,"You will now start the full experiment. Press ENTER when you are ready to begin.",,,2334,,,-1,-1,,,,,1
w10094029_wsh,16c8b9lsyl,"BOI Norms",1,11,2020-11-11T05:57:57-08:00,24.141258955002,17,"updated stim.csv",Version17.csv,"Version 17","List 17",parka,,481,5.875,1876,482,BOI,-,-,"Please name all of the ways you could use this object. Keep in mind that one object can have many uses. Separate your responses with a comma.",,y,23841,,,5099,15866,,,,"wear, burn",1
w10094029_wsh,16c8b9lsyl,"BOI Norms",1,12,2020-11-11T05:58:31-08:00,34.268289089203,17,"updated stim.csv",Version17.csv,"Version 17","List 17",groom,,482,5,1181,483,BOI,-,-,"Please name all of the ways you could use this object. Keep in mind that one object can have many uses. Separate your responses with a comma.",,y,33924,,,6566,18125,,,,"shave, clean, style",1
w10094029_wsh,16c8b9lsyl,"BOI Norms",1,13,2020-11-11T05:59:00-08:00,28.644525051117,17,"updated stim.csv",Version17.csv,"Version 17","List 17",memorabilia,,490,4.434782609,1643,491,BOI,-,-,"Please name all of the ways you could use this object. Keep in mind that one object can have many uses. Separate your responses with a comma.",,y,28327,,,2504,18454,,,,"sell, buy, trade, display, admire",1
w10094029_wsh,16c8b9lsyl,"BOI Norms",1,14,2020-11-11T05:59:19-08:00,19.856887817383,17,"updated stim.csv",Version17.csv,"Version 17","List 17",bookseller,,483,5,278,484,BOI,-,-,"Please name all of the ways you could use this object. Keep in mind that one object can have many uses. Separate your responses with a comma.",,y,19627,,,5701,17059,,,,"sell, suit, books, ",1
w10094029_wsh,16c8b9lsyl,"BOI Norms",1,15,2020-11-11T06:00:07-08:00,47.732131004333,17,"updated stim.csv",Version17.csv,"Version 17","List 17",frame,,502,4.956521739,1053,503,BOI,-,-,"Please name all of the ways you could use this object. Keep in mind that one object can have many uses. Separate your responses with a comma.",,y,47432,,,3323,42632,,,,"wood, metal, plastic, hang, impersonate for crime",1
w10094029_wsh,16c8b9lsyl,"BOI Norms",1,16,2020-11-11T06:00:46-08:00,38.755367994308,17,"updated stim.csv",Version17.csv,"Version 17","List 17",wastebasket,,484,6.217391304,2904,485,BOI,-,-,"Please name all of the ways you could use this object. Keep in mind that one object can have many uses. Separate your responses with a comma.",,y,38514,,,2011,34794,,,,"trash, paper, plastic, glass, wire, recycle, trash bag, ",1
w10094029_wsh,16c8b9lsyl,"BOI Norms",1,17,2020-11-11T06:01:09-08:00,23.247274160385,17,"updated stim.csv",Version17.csv,"Version 17","List 17",caddy,,489,4.913043478,393,490,BOI,-,-,"Please name all of the ways you could use this object. Keep in mind that one object can have many uses. Separate your responses with a comma.",,y,23021,,,2807,20197,,,,"golf, golf clubs, resort, course, green, motorized",1
w10094029_wsh,16c8b9lsyl,"BOI Norms",1,18,2020-11-11T06:01:56-08:00,46.883026838303,17,"updated stim.csv",Version17.csv,"Version 17","List 17",chapel,,497,4.52,494,498,BOI,-,-,"Please name all of the ways you could use this object. Keep in mind that one object can have many uses. Separate your responses with a comma.",,y,46575,,,4969,43872,,,,"church, music, religion, prayer, gathering, hymns, singing, praising",1
w10094029_wsh,16c8b9lsyl,"BOI Norms",1,19,2020-11-11T06:02:11-08:00,15.079822063446,17,"updated stim.csv",Version17.csv,"Version 17","List 17",mincemeat,,504,5.083333333,1662,505,BOI,-,-,"Please name all of the ways you could use this object. Keep in mind that one object can have many uses. Separate your responses with a comma.",,y,14842,,,2676,14051,,,,"food, cook, eat,",1
w10094029_wsh,16c8b9lsyl,"BOI Norms",1,20,2020-11-11T06:02:48-08:00,36.336035013199,17,"updated stim.csv",Version17.csv,"Version 17","List 17",leech,,498,4.291666667,1484,499,BOI,-,-,"Please name all of the ways you could use this object. Keep in mind that one object can have many uses. Separate your responses with a comma.",,y,36106,,,2340,32681,,,,"bug, water, blood sucking, medical",1
w10094029_wsh,16c8b9lsyl,"BOI Norms",1,21,2020-11-11T06:03:22-08:00,34.273536920547,17,"updated stim.csv",Version17.csv,"Version 17","List 17",gearbox,,487,5.041666667,1092,488,BOI,-,-,"Please name all of the ways you could use this object. Keep in mind that one object can have many uses. Separate your responses with a comma.",,y,34050,,,4619,22634,,,,"gears, cars, machines, robots, ",1
w10094029_wsh,16c8b9lsyl,"BOI Norms",1,22,2020-11-11T06:03:45-08:00,23.706717014313,17,"updated stim.csv",Version17.csv,"Version 17","List 17",handbook,,499,5.782608696,1231,500,BOI,-,-,"Please name all of the ways you could use this object. Keep in mind that one object can have many uses. Separate your responses with a comma.",,y,23481,,,2673,19841,,,,"journal, diary, school's policy, ",1
w10094029_wsh,16c8b9lsyl,"BOI Norms",1,23,2020-11-11T06:04:07-08:00,21.595970153809,17,"updated stim.csv",Version17.csv,"Version 17","List 17",headphones,,486,6.083333333,1269,487,BOI,-,-,"Please name all of the ways you could use this object. Keep in mind that one object can have many uses. Separate your responses with a comma.",,y,21383,,,1792,19168,,,,"music, silence, people don't talk to you, peace",1
w10094029_wsh,16c8b9lsyl,"BOI Norms",1,24,2020-11-11T06:04:46-08:00,38.46025800705,17,"updated stim.csv",Version17.csv,"Version 17","List 17",sleigh,,507,4.84,2410,508,BOI,-,-,"Please name all of the ways you could use this object. Keep in mind that one object can have many uses. Separate your responses with a comma.",,y,38247,,,2128,36287,,,,"Christmas, Santa Claus, reindeer, Rudolph, decorations, presents ",1
w10094029_wsh,16c8b9lsyl,"BOI Norms",1,25,2020-11-11T06:05:11-08:00,25.635363817215,17,"updated stim.csv",Version17.csv,"Version 17","List 17",bubble,,495,4.64,339,496,BOI,-,-,"Please name all of the ways you could use this object. Keep in mind that one object can have many uses. Separate your responses with a comma.",,y,25404,,,4846,19180,,,,"pop, blow, big, small, multiple",1
w10094029_wsh,16c8b9lsyl,"BOI Norms",1,26,2020-11-11T06:05:21-08:00,9.4297339916229,17,"updated stim.csv",Version17.csv,"Version 17","List 17",kitten,,492,6.4,1428,493,BOI,-,-,"Please name all of the ways you could use this object. Keep in mind that one object can have many uses. Separate your responses with a comma.",,y,9202,,,1212,7161,,,,"small, baby, cute, furry",1
w10094029_wsh,16c8b9lsyl,"BOI Norms",1,27,2020-11-11T06:05:34-08:00,13.128158092499,17,"updated stim.csv",Version17.csv,"Version 17","List 17",nutshell,,500,4.375,1793,501,BOI,-,-,"Please name all of the ways you could use this object. Keep in mind that one object can have many uses. Separate your responses with a comma.",,y,12917,,,1814,12565,,,,"hard, break, peel off, throw away",1
w10094029_wsh,16c8b9lsyl,"BOI Norms",1,28,2020-11-11T06:05:45-08:00,11.658691883087,17,"updated stim.csv",Version17.csv,"Version 17","List 17",aftershave,,505,5.375,18,506,BOI,-,-,"Please name all of the ways you could use this object. Keep in mind that one object can have many uses. Separate your responses with a comma.",,y,11420,,,3701,9907,,,,"men, shaving, ",1
w10094029_wsh,16c8b9lsyl,"BOI Norms",1,29,2020-11-11T06:05:55-08:00,9.2220540046692,17,"updated stim.csv",Version17.csv,"Version 17","List 17",fingerboard,,506,5.15,978,507,BOI,-,-,"Please name all of the ways you could use this object. Keep in mind that one object can have many uses. Separate your responses with a comma.",,y,8994,,,5924,8338,,,,"board for finger",1
w10094029_wsh,16c8b9lsyl,"BOI Norms",1,30,2020-11-11T06:06:10-08:00,14.978957176208,17,"updated stim.csv",Version17.csv,"Version 17","List 17",jacket,,493,6.333333333,1370,494,BOI,-,-,"Please name all of the ways you could use this object. Keep in mind that one object can have many uses. Separate your responses with a comma.",,y,14746,,,1475,9682,,,,"wear, warmth, keep dry, ",1
w10094029_wsh,16c8b9lsyl,"BOI Norms",1,31,2020-11-11T06:06:26-08:00,16.438091039658,17,"updated stim.csv",Version17.csv,"Version 17","List 17",kid,,496,5.68,1414,497,BOI,-,-,"Please name all of the ways you could use this object. Keep in mind that one object can have many uses. Separate your responses with a comma.",,y,16231,,,2456,15958,,,,"baby, young, fun, youthful",1
w10094029_wsh,16c8b9lsyl,"BOI Norms",1,32,2020-11-11T06:06:49-08:00,22.710344791412,17,"updated stim.csv",Version17.csv,"Version 17","List 17",spice,,509,5.125,2470,510,BOI,-,-,"Please name all of the ways you could use this object. Keep in mind that one object can have many uses. Separate your responses with a comma.",,y,22482,,,5089,22298,,,,"cooking, seasoning",1
w10094029_wsh,16c8b9lsyl,"BOI Norms",1,33,2020-11-11T06:06:59-08:00,10.607017040253,17,"updated stim.csv",Version17.csv,"Version 17","List 17",washerwoman,,510,4.55,2900,511,BOI,-,-,"Please name all of the ways you could use this object. Keep in mind that one object can have many uses. Separate your responses with a comma.",,y,10365,,,3533,9020,,,,"someone who washes clothes, ",1
w10094029_wsh,16c8b9lsyl,"BOI Norms",1,34,2020-11-11T06:07:28-08:00,28.852909088135,17,"updated stim.csv",Version17.csv,"Version 17","List 17",drill,,485,5.739130435,848,486,BOI,-,-,"Please name all of the ways you could use this object. Keep in mind that one object can have many uses. Separate your responses with a comma.",,y,28626,,,1509,27506,,,,"tool, repair, drill bits, ",1
w10094029_wsh,16c8b9lsyl,"BOI Norms",1,35,2020-11-11T06:07:32-08:00,3.8140859603882,17,"updated stim.csv",Version17.csv,"Version 17","List 17",gingersnap,,488,4.703703704,1106,489,BOI,-,-,"Please name all of the ways you could use this object. Keep in mind that one object can have many uses. Separate your responses with a comma.",,y,3582,,,2864,3245,,,,food,1
w10094029_wsh,16c8b9lsyl,"BOI Norms",1,36,2020-11-11T06:07:47-08:00,14.554417133331,17,"updated stim.csv",Version17.csv,"Version 17","List 17",colander,,501,6,598,502,BOI,-,-,"Please name all of the ways you could use this object. Keep in mind that one object can have many uses. Separate your responses with a comma.",,y,14250,,,3593,13243,,,,"utensil, food, drainer",1
w10094029_wsh,16c8b9lsyl,"BOI Norms",1,37,2020-11-11T06:08:40-08:00,53.168120861053,17,"updated stim.csv",Version17.csv,"Version 17","List 17",rum,,491,5.64,2206,492,BOI,-,-,"Please name all of the ways you could use this object. Keep in mind that one object can have many uses. Separate your responses with a comma.",,y,52860,,,3678,14795,,,,"delicious, alcohol, flavorful, ",1
w10094029_wsh,16c8b9lsyl,"BOI Norms",1,38,2020-11-11T06:08:48-08:00,8.4530630111694,17,"updated stim.csv",Version17.csv,"Version 17","List 17",doorknob,,508,6.518518519,824,509,BOI,-,-,"Please name all of the ways you could use this object. Keep in mind that one object can have many uses. Separate your responses with a comma.",,y,8224,,,1450,7169,,,,"door, lock, turn, gold",1
w10094029_wsh,16c8b9lsyl,"BOI Norms",1,39,2020-11-11T06:09:13-08:00,24.766832113266,17,"updated stim.csv",Version17.csv,"Version 17","List 17",wart,,503,4.56,2894,504,BOI,-,-,"Please name all of the ways you could use this object. Keep in mind that one object can have many uses. Separate your responses with a comma.",,y,24540,,,3629,21660,,,,"disgusting, frogs, ",1
w10094029_wsh,16c8b9lsyl,"BOI Norms",1,40,2020-11-11T06:09:33-08:00,19.630089998245,17,"updated stim.csv",Version17.csv,"Version 17","List 17",feline,,494,5.458333333,959,495,BOI,-,-,"Please name all of the ways you could use this object. Keep in mind that one object can have many uses. Separate your responses with a comma.",,y,19401,,,1698,18922,,,,"cat, lion, tiger, jaguar, cheetah",1
w10094029_wsh,16c8b9lsyl,"BOI Norms",1,41,2020-11-11T06:09:38-08:00,5.8487188816071,17,"updated stim.csv",Version17.csv,"Version 17","List 17",,,,,,0,Instruct,,,"You will now be asked a few questions about your experience today.",,"Instruct 4",5619,,,-1,-1,,,,,1
