Username,ID,ExperimentName,Session,Trial,Date,TimeDif,"Condition Number","Stimuli File","Order File","Condition Description","Condition Notes",Stimuli*Cue,Stimuli*Answer,Stimuli*Shuffle,"Stimuli*Stimuli Notes",Stimuli*Value,Procedure*Item,"Procedure*Trial Type","Procedure*Max Time","Procedure*Min Time",Procedure*Text,"Procedure*Procedure Notes",Procedure*Shuffle,Response*RT,Response*Response,Response*Accuracy,Response*RTfirst,Response*RTlast,Response*strictAcc,Response*lenientAcc,Response*focus,Response*JOL,Response*Focus
w10093220beb,t7rqyvbw1v,"BOI Norms",1,1,2021-01-05T10:19:16-08:00,12.568464994431,1,"updated stim.csv",Version76.csv,"Version 76","List 76",,,,,,0,Instruct,-,10,"In this section, you will be presented with a series of objects. Please name as many possible uses for this object as you can think of by typing them in the box below each object.",,Instruct1,12333,,,-1,-1,,,,,1
w10093220beb,t7rqyvbw1v,"BOI Norms",1,2,2021-01-05T10:19:27-08:00,11.079573869705,1,"updated stim.csv",Version76.csv,"Version 76","List 76",,,,,,0,Instruct,-,10,"Please keep in mind that a single object will have more than one use. For example, a ball can be thrown or can be bounced or even stepped on. When listing multiple uses for one object, please separate each use with a comma (i.e., thrown, bounced, stepped on)",,Instruct2,10847,,,-1,-1,,,,,1
w10093220beb,t7rqyvbw1v,"BOI Norms",1,3,2021-01-05T10:19:32-08:00,5.0956361293793,1,"updated stim.csv",Version76.csv,"Version 76","List 76",,,,,,0,Instruct,-,-,"Before starting the experiment, you will complete a short practice sesstion. Press ENTER when you are ready to begin.",,Instruct3,4860,,,-1,-1,,,,,1
w10093220beb,t7rqyvbw1v,"BOI Norms",1,4,2021-01-05T10:20:00-08:00,28.266428947449,1,"updated stim.csv",Version76.csv,"Version 76","List 76",saucer,,3005,5.777777778,2249,3006,BOI,-,-,"Please name all of the ways you could use this object. Keep in mind that one object can have many uses. Separate your responses with a comma.",,n,27880,,,6084,18853,,,,"hold stuff, hit people, cook",1
w10093220beb,t7rqyvbw1v,"BOI Norms",1,5,2021-01-05T10:23:27-08:00,207.19800186157,1,"updated stim.csv",Version76.csv,"Version 76","List 76",paperwork,,3001,5.625,1866,3002,BOI,-,-,"Please name all of the ways you could use this object. Keep in mind that one object can have many uses. Separate your responses with a comma.",,n,206710,,,3469,203981,,,,"write, read, draw, attack, protect, throw, step on, destroy, origami, fold, give to someone, make noise, scatter it, crumple, touch it, drop it, throw it, stepping stool, eat, tap, deliver, paper airplane, separate, fill out, crumple, taste",1
w10093220beb,t7rqyvbw1v,"BOI Norms",1,6,2021-01-05T10:25:51-08:00,143.67793798447,1,"updated stim.csv",Version76.csv,"Version 76","List 76",grain,,3004,5.217391304,1143,3005,BOI,-,-,"Please name all of the ways you could use this object. Keep in mind that one object can have many uses. Separate your responses with a comma.",,n,143216,,,5321,137713,,,,"hide behind, make bread, make flour, make cake, make purse, make an instrument, blow into it, stomp on it, burn it, destroy it, put it through a mill, taste, eat, touch, smell, weave it, rub between hands, grow it, plant it",1
w10093220beb,t7rqyvbw1v,"BOI Norms",1,7,2021-01-05T10:27:46-08:00,114.84976220131,1,"updated stim.csv",Version76.csv,"Version 76","List 76",shortening,,3002,4.92,2358,3003,BOI,-,-,"Please name all of the ways you could use this object. Keep in mind that one object can have many uses. Separate your responses with a comma.",,n,114437,,,5727,110538,,,,"make cake, use it as oil, make cookies, warm it, melt it, eat it, taste it, smell it, wipe hands with it, put in fridge, stomp on it, prank someone with it, destroy it, lick it, cut it into pieces, massage it, rub it, cook with it",1
w10093220beb,t7rqyvbw1v,"BOI Norms",1,8,2021-01-05T10:29:15-08:00,88.833311796188,1,"updated stim.csv",Version76.csv,"Version 76","List 76",spaghetti,,3003,6,2461,3004,BOI,-,-,"Please name all of the ways you could use this object. Keep in mind that one object can have many uses. Separate your responses with a comma.",,n,88526,,,2341,78921,,,,"make spaghetti, eat it raw, boil it, eat it cooked, stab someone with it raw, eat it as spaghetti, taste it, break it in half, crunch it, hammer it, give to dogs, make ramen",1
w10093220beb,t7rqyvbw1v,"BOI Norms",1,9,2021-01-05T10:29:17-08:00,2.0826101303101,1,"updated stim.csv",Version76.csv,"Version 76","List 76",,,,,,0,Instruct,-,-,"You have completed this section. Press ENTER to continue",,"Instruct 5",1820,,,-1,-1,,,,,1
w10093220beb,t7rqyvbw1v,"BOI Norms",1,10,2021-01-05T10:29:20-08:00,3.2833769321442,1,"updated stim.csv",Version76.csv,"Version 76","List 76",,,,,,0,Instruct,-,-,"You will now start the full experiment. Press ENTER when you are ready to begin.",,,2986,,,-1,-1,,,,,1
w10093220beb,t7rqyvbw1v,"BOI Norms",1,11,2021-01-05T10:30:38-08:00,78.227630138397,1,"updated stim.csv",Version76.csv,"Version 76","List 76",ventilator,,2279,4.72,2848,2280,BOI,-,-,"Please name all of the ways you could use this object. Keep in mind that one object can have many uses. Separate your responses with a comma.",,y,77952,,,7736,71087,,,,"breathe through it, clean it, use it as a weapon, hide behind it, destroy it, rebuilt it, lick it, touch it, kick it, give it away, pat it, decorate it, tap it, make an instrument out of it, ",1
w10093220beb,t7rqyvbw1v,"BOI Norms",1,12,2021-01-05T10:32:41-08:00,122.42137479782,1,"updated stim.csv",Version76.csv,"Version 76","List 76",underpants,,2255,6,2823,2256,BOI,-,-,"Please name all of the ways you could use this object. Keep in mind that one object can have many uses. Separate your responses with a comma.",,y,122029,,,2956,120848,,,,"wear it, make socks, wash it, use it to clean, destroy it, tear it, stomp on it, touch it, feel it, lick it, slingshot it, make it into pants, wear it on your head, give it to your dog, stretch it, squeeze it, pat it, rub it, burn it",1
w10093220beb,t7rqyvbw1v,"BOI Norms",1,13,2021-01-05T10:34:14-08:00,92.998019218445,1,"updated stim.csv",Version76.csv,"Version 76","List 76",carton,,2270,5,443,2271,BOI,-,-,"Please name all of the ways you could use this object. Keep in mind that one object can have many uses. Separate your responses with a comma.",,y,92670,,,2713,91524,,,,"hold liquid, throw it, throw at someone, make a weapon, smash it, crush it, destroy it, drink from it, make coin holder, make pencil holder, give to dog, make an instrument, refill it, drink from it, hold it, put it down",1
w10093220beb,t7rqyvbw1v,"BOI Norms",1,14,2021-01-05T10:34:37-08:00,22.93123292923,1,"updated stim.csv",Version76.csv,"Version 76","List 76",underbrush,,2273,4.5,2818,2274,BOI,-,-,"Please name all of the ways you could use this object. Keep in mind that one object can have many uses. Separate your responses with a comma.",,y,22631,,,8485,18745,,,,"touch, see, lick, feel, taste, hear",1
w10093220beb,t7rqyvbw1v,"BOI Norms",1,15,2021-01-05T10:35:16-08:00,39.68446803093,1,"updated stim.csv",Version76.csv,"Version 76","List 76",slaw,,2277,4.8,2405,2278,BOI,-,-,"Please name all of the ways you could use this object. Keep in mind that one object can have many uses. Separate your responses with a comma.",,y,39441,,,4095,29275,,,,"eat it, touch, taste, pat, destroy, listen, stomp",1
w10093220beb,t7rqyvbw1v,"BOI Norms",1,16,2021-01-05T10:35:24-08:00,8.02587890625,1,"updated stim.csv",Version76.csv,"Version 76","List 76",suppository,,2267,5.782608696,2593,2268,BOI,-,-,"Please name all of the ways you could use this object. Keep in mind that one object can have many uses. Separate your responses with a comma.",,y,7759,,,3328,4989,,,,"put money in it",1
w10093220beb,t7rqyvbw1v,"BOI Norms",1,17,2021-01-05T10:36:17-08:00,52.753062009811,1,"updated stim.csv",Version76.csv,"Version 76","List 76",faucet,,2276,5.869565217,952,2277,BOI,-,-,"Please name all of the ways you could use this object. Keep in mind that one object can have many uses. Separate your responses with a comma.",,y,52433,,,2344,43524,,,,"drip water, run water, hold towels, punch it, wash dishes with it, get water, drink from it, touch it, turn it on, turn it off, ",1
w10093220beb,t7rqyvbw1v,"BOI Norms",1,18,2021-01-05T10:37:38-08:00,80.943010091782,1,"updated stim.csv",Version76.csv,"Version 76","List 76",spectacles,,2253,5.28,2466,2254,BOI,-,-,"Please name all of the ways you could use this object. Keep in mind that one object can have many uses. Separate your responses with a comma.",,y,80627,,,2073,43993,,,,"look through, see, touch, fashion statement, taste, readjust, break them, start a fire, tap them ",1
w10093220beb,t7rqyvbw1v,"BOI Norms",1,19,2021-01-05T10:38:43-08:00,65.462643861771,1,"updated stim.csv",Version76.csv,"Version 76","List 76",clipboard,,2260,5.652173913,561,2261,BOI,-,-,"Please name all of the ways you could use this object. Keep in mind that one object can have many uses. Separate your responses with a comma.",,y,65116,,,1863,62614,,,,"tap it, hold papers, carry it, throw it, whack someone, make it a weapon, protect self with it, draw with it, draw on it, taste it, lick it, put it down, pick it up, ",1
w10093220beb,t7rqyvbw1v,"BOI Norms",1,20,2021-01-05T10:38:57-08:00,13.886934041977,1,"updated stim.csv",Version76.csv,"Version 76","List 76",archives,,2271,4.333333333,70,2272,BOI,-,-,"Please name all of the ways you could use this object. Keep in mind that one object can have many uses. Separate your responses with a comma.",,y,13630,,,3497,7735,,,,"read it",1
w10093220beb,t7rqyvbw1v,"BOI Norms",1,21,2021-01-05T10:39:48-08:00,50.518299102783,1,"updated stim.csv",Version76.csv,"Version 76","List 76",skateboard,,2251,6.04,2390,2252,BOI,-,-,"Please name all of the ways you could use this object. Keep in mind that one object can have many uses. Separate your responses with a comma.",,y,50225,,,1454,35034,,,,"ride it, use it as a weapon, whack someone with it, destroy it, rebuild it, give it to someone, steal it, ",1
w10093220beb,t7rqyvbw1v,"BOI Norms",1,22,2021-01-05T10:40:47-08:00,59.654538869858,1,"updated stim.csv",Version76.csv,"Version 76","List 76",furniture,,2264,6.56,1068,2265,BOI,-,-,"Please name all of the ways you could use this object. Keep in mind that one object can have many uses. Separate your responses with a comma.",,y,59332,,,2468,56619,,,,"sit on it, lay it on, destroy it, hold a dog, hold a cat, stand on it, put items on it, take items off of it, move it, turn it, twist it, touch it, burn it, tap it, ",1
w10093220beb,t7rqyvbw1v,"BOI Norms",1,23,2021-01-05T10:41:54-08:00,66.337698936462,1,"updated stim.csv",Version76.csv,"Version 76","List 76",branch,,2275,4.821428571,303,2276,BOI,-,-,"Please name all of the ways you could use this object. Keep in mind that one object can have many uses. Separate your responses with a comma.",,y,66047,,,2544,64124,,,,"break it, burn it, destroy it, hold it, use it as a weapon, whack someone with it, throw it, play fetch with it, pick it up, put it down, stomp on it, eat it, fire, defend self, ",1
w10093220beb,t7rqyvbw1v,"BOI Norms",1,24,2021-01-05T10:42:53-08:00,59.114513158798,1,"updated stim.csv",Version76.csv,"Version 76","List 76",jelly,,2268,5.48,1381,2269,BOI,-,-,"Please name all of the ways you could use this object. Keep in mind that one object can have many uses. Separate your responses with a comma.",,y,58720,,,1660,52951,,,,"eat it, use it as glue, clean it, prank someone with it, lick it, put on toast, put in waffles, put it up, take it out, use it, make it, throw it away, touch it",1
w10093220beb,t7rqyvbw1v,"BOI Norms",1,25,2021-01-05T10:43:42-08:00,49.396553993225,1,"updated stim.csv",Version76.csv,"Version 76","List 76",picture,,2265,5.32,1952,2266,BOI,-,-,"Please name all of the ways you could use this object. Keep in mind that one object can have many uses. Separate your responses with a comma.",,y,49093,,,1888,44368,,,,"look at it, observe it, touch it, lick it, taste it, throw it, tear it, destroy it, burn it, hide it, write on it, draw on it, hang it up, take it down, hold it, put it down",1
w10093220beb,t7rqyvbw1v,"BOI Norms",1,26,2021-01-05T10:47:17-08:00,214.64172792435,1,"updated stim.csv",Version76.csv,"Version 76","List 76",automobile,,2254,5.64,101,2255,BOI,-,-,"Please name all of the ways you could use this object. Keep in mind that one object can have many uses. Separate your responses with a comma.",,y,214323,,,1561,208715,,,,"drive, sit in it, sleep in it, cook food in it, cook food on it, hide in it, use it as a weapon, parallel park, speed up, slow down, run into someone, honk horn, do doughnuts, buy it, sell it, destroy it, go somewhere, go home, tap, lick, taste, take apart, rebuild, clean it, party in it, blast music, open door, close door, open trunk, close trunk, start engine, stop engine, vroom it, turn on heater, turn off heater, turn on air conditioner, turn off air conditioner, speed, put license plate, wait",1
w10093220beb,t7rqyvbw1v,"BOI Norms",1,27,2021-01-05T10:50:24-08:00,186.83974313736,1,"updated stim.csv",Version76.csv,"Version 76","List 76",son,,2258,5.875,2451,2259,BOI,-,-,"Please name all of the ways you could use this object. Keep in mind that one object can have many uses. Separate your responses with a comma.",,y,186525,,,114384,184760,,,,"birth him, love him, support it, don't support him, enslave him, kill him, watch him grow, pet him, pat him, take care of him, protect him, watch him get married, watch him have kids, watch him die, dress him up, help him",1
w10093220beb,t7rqyvbw1v,"BOI Norms",1,28,2021-01-05T10:51:13-08:00,48.887061834335,1,"updated stim.csv",Version76.csv,"Version 76","List 76",bracelet,,2262,6.5,300,2263,BOI,-,-,"Please name all of the ways you could use this object. Keep in mind that one object can have many uses. Separate your responses with a comma.",,y,48601,,,1873,47388,,,,"wear it, shoot it, lick it, taste it, hold it, fidget it, rub it, touch it, feel it, destroy it, burn it, recreate it",1
w10093220beb,t7rqyvbw1v,"BOI Norms",1,29,2021-01-05T10:51:31-08:00,18.581233978271,1,"updated stim.csv",Version76.csv,"Version 76","List 76",stair,,2252,5.36,2499,2253,BOI,-,-,"Please name all of the ways you could use this object. Keep in mind that one object can have many uses. Separate your responses with a comma.",,y,18330,,,1598,17168,,,,"walk up, walk down, jump on it, sit on it, lay on it",1
w10093220beb,t7rqyvbw1v,"BOI Norms",1,30,2021-01-05T10:51:42-08:00,10.238387107849,1,"updated stim.csv",Version76.csv,"Version 76","List 76",hairdresser,,2278,5.384615385,1212,2279,BOI,-,-,"Please name all of the ways you could use this object. Keep in mind that one object can have many uses. Separate your responses with a comma.",,y,10001,,,3239,4858,,,,"do hair, ",1
w10093220beb,t7rqyvbw1v,"BOI Norms",1,31,2021-01-05T10:52:32-08:00,50.616055011749,1,"updated stim.csv",Version76.csv,"Version 76","List 76",instrument,,2269,5.739130435,1361,2270,BOI,-,-,"Please name all of the ways you could use this object. Keep in mind that one object can have many uses. Separate your responses with a comma.",,y,50332,,,1479,43110,,,,"play it, destroy it, fix it, clean it, protect it, love it, make music, use it as a weapon, signal someone, tap it, hold it, pose with it, ",1
w10093220beb,t7rqyvbw1v,"BOI Norms",1,32,2021-01-05T10:52:59-08:00,26.519531965256,1,"updated stim.csv",Version76.csv,"Version 76","List 76",creature,,2257,4.833333333,690,2258,BOI,-,-,"Please name all of the ways you could use this object. Keep in mind that one object can have many uses. Separate your responses with a comma.",,y,26285,,,1866,24586,,,,"hold it, protect it, kill it, feed it, starve it, let it out, let it in, pet it, ",1
w10093220beb,t7rqyvbw1v,"BOI Norms",1,33,2021-01-05T10:53:09-08:00,9.9222939014435,1,"updated stim.csv",Version76.csv,"Version 76","List 76",bodice,,2272,4.80952381,259,2273,BOI,-,-,"Please name all of the ways you could use this object. Keep in mind that one object can have many uses. Separate your responses with a comma.",,y,9649,,,3541,8330,,,,"hold it, ",1
w10093220beb,t7rqyvbw1v,"BOI Norms",1,34,2021-01-05T10:53:38-08:00,28.933997154236,1,"updated stim.csv",Version76.csv,"Version 76","List 76",student,,2266,5.043478261,2573,2267,BOI,-,-,"Please name all of the ways you could use this object. Keep in mind that one object can have many uses. Separate your responses with a comma.",,y,28666,,,2343,21673,,,,"teach them, protect them, shoot them, enslave them, ",1
w10093220beb,t7rqyvbw1v,"BOI Norms",1,35,2021-01-05T10:53:55-08:00,17.729269981384,1,"updated stim.csv",Version76.csv,"Version 76","List 76",puzzle,,2261,5.44,2108,2262,BOI,-,-,"Please name all of the ways you could use this object. Keep in mind that one object can have many uses. Separate your responses with a comma.",,y,17451,,,2108,14098,,,,"finish it, start it, destroy it, watch it, be confused, ",1
w10093220beb,t7rqyvbw1v,"BOI Norms",1,36,2021-01-05T10:54:15-08:00,19.911299943924,1,"updated stim.csv",Version76.csv,"Version 76","List 76",caramel,,2274,5.28,429,2275,BOI,-,-,"Please name all of the ways you could use this object. Keep in mind that one object can have many uses. Separate your responses with a comma.",,y,19657,,,1619,17328,,,,"eat it, lick it, love it, hold it, throw it, stomp on it, ",1
w10093220beb,t7rqyvbw1v,"BOI Norms",1,37,2021-01-05T10:55:14-08:00,58.647938966751,1,"updated stim.csv",Version76.csv,"Version 76","List 76",quilt,,2263,5.826086957,2116,2264,BOI,-,-,"Please name all of the ways you could use this object. Keep in mind that one object can have many uses. Separate your responses with a comma.",,y,58335,,,2883,56584,,,,"keep warm with it, hold it, cuddle it, hide it in, suffocate someone with it, decorate it, wash it, clean it, dry it, hang it, stretch it, fold it, ",1
w10093220beb,t7rqyvbw1v,"BOI Norms",1,38,2021-01-05T10:55:45-08:00,31.123576164246,1,"updated stim.csv",Version76.csv,"Version 76","List 76",pinewood,,2280,4.541666667,1973,2281,BOI,-,-,"Please name all of the ways you could use this object. Keep in mind that one object can have many uses. Separate your responses with a comma.",,y,30850,,,5299,29410,,,,"make wood things with it, break it down, replant it, plant it, tap it, ",1
w10093220beb,t7rqyvbw1v,"BOI Norms",1,39,2021-01-05T10:56:11-08:00,26.549728870392,1,"updated stim.csv",Version76.csv,"Version 76","List 76",thorn,,2259,4.925925926,2683,2260,BOI,-,-,"Please name all of the ways you could use this object. Keep in mind that one object can have many uses. Separate your responses with a comma.",,y,26305,,,2701,25290,,,,"stay away from it, look at it, touch it, cut with it, destroy it, burn it",1
w10093220beb,t7rqyvbw1v,"BOI Norms",1,40,2021-01-05T10:56:52-08:00,40.558305978775,1,"updated stim.csv",Version76.csv,"Version 76","List 76",canine,,2256,5.375,414,2257,BOI,-,-,"Please name all of the ways you could use this object. Keep in mind that one object can have many uses. Separate your responses with a comma.",,y,40323,,,2157,33756,,,,"pet it, love it, feed it, kill it, protect it, walk it, hold it, cuddle it, brush it, sing to it, have it hunt, ",1
w10093220beb,t7rqyvbw1v,"BOI Norms",1,41,2021-01-05T10:56:54-08:00,2.4314041137695,1,"updated stim.csv",Version76.csv,"Version 76","List 76",,,,,,0,Instruct,,,"You will now be asked a few questions about your experience today.",,"Instruct 4",2191,,,-1,-1,,,,,1
