Username,ID,ExperimentName,Session,Trial,Date,TimeDif,"Condition Number","Stimuli File","Order File","Condition Description","Condition Notes",Stimuli*Cue,Stimuli*Answer,Stimuli*Shuffle,"Stimuli*Stimuli Notes",Stimuli*Value,Procedure*Item,"Procedure*Trial Type","Procedure*Max Time","Procedure*Min Time",Procedure*Text,"Procedure*Procedure Notes",Procedure*Shuffle,Response*RT,Response*Response,Response*Accuracy,Response*RTfirst,Response*RTlast,Response*strictAcc,Response*lenientAcc,Response*focus,Response*JOL,Response*Focus
w536517_avg,lkwku7izmm,"BOI Norms",1,1,2021-05-30T02:33:14-07:00,10.926742076874,7,"updated stim.csv",Version82.csv,"Version 82","List 82",,,,,,0,Instruct,-,10,"In this section, you will be presented with a series of objects. Please name as many possible uses for this object as you can think of by typing them in the box below each object.",,Instruct1,10631,,,-1,-1,,,,,1
w536517_avg,lkwku7izmm,"BOI Norms",1,2,2021-05-30T02:33:26-07:00,12.217712879181,7,"updated stim.csv",Version82.csv,"Version 82","List 82",,,,,,0,Instruct,-,10,"Please keep in mind that a single object will have more than one use. For example, a ball can be thrown or can be bounced or even stepped on. When listing multiple uses for one object, please separate each use with a comma (i.e., thrown, bounced, stepped on)",,Instruct2,11842,,,-1,-1,,,,,1
w536517_avg,lkwku7izmm,"BOI Norms",1,3,2021-05-30T02:33:29-07:00,2.8572580814362,7,"updated stim.csv",Version82.csv,"Version 82","List 82",,,,,,0,Instruct,-,-,"Before starting the experiment, you will complete a short practice sesstion. Press ENTER when you are ready to begin.",,Instruct3,2558,,,-1,-1,,,,,1
w536517_avg,lkwku7izmm,"BOI Norms",1,4,2021-05-30T02:33:41-07:00,11.548660993576,7,"updated stim.csv",Version82.csv,"Version 82","List 82",paperwork,,3001,5.625,1866,3002,BOI,-,-,"Please name all of the ways you could use this object. Keep in mind that one object can have many uses. Separate your responses with a comma.",,n,9524,,,3784,8398,,,,"completed, written, signed",1
w536517_avg,lkwku7izmm,"BOI Norms",1,5,2021-05-30T02:34:06-07:00,25.722020864487,7,"updated stim.csv",Version82.csv,"Version 82","List 82",spaghetti,,3003,6,2461,3004,BOI,-,-,"Please name all of the ways you could use this object. Keep in mind that one object can have many uses. Separate your responses with a comma.",,n,25370,,,2329,24072,,,,"eaten, cooked, packaged, thrown against a wall to check and see if it’s done",1
w536517_avg,lkwku7izmm,"BOI Norms",1,6,2021-05-30T02:34:29-07:00,22.541568994522,7,"updated stim.csv",Version82.csv,"Version 82","List 82",shortening,,3002,4.92,2358,3003,BOI,-,-,"Please name all of the ways you could use this object. Keep in mind that one object can have many uses. Separate your responses with a comma.",,n,22245,,,2469,18947,,,,"cooking, lubrication",1
w536517_avg,lkwku7izmm,"BOI Norms",1,7,2021-05-30T02:34:49-07:00,19.928309202194,7,"updated stim.csv",Version82.csv,"Version 82","List 82",saucer,,3005,5.777777778,2249,3006,BOI,-,-,"Please name all of the ways you could use this object. Keep in mind that one object can have many uses. Separate your responses with a comma.",,n,19633,,,3644,17670,,,,"eat from, use with tea, broken, smashed, thrown, washed",1
w536517_avg,lkwku7izmm,"BOI Norms",1,8,2021-05-30T02:34:56-07:00,7.5663228034973,7,"updated stim.csv",Version82.csv,"Version 82","List 82",grain,,3004,5.217391304,1143,3005,BOI,-,-,"Please name all of the ways you could use this object. Keep in mind that one object can have many uses. Separate your responses with a comma.",,n,7270,,,1954,5848,,,,"eaten, grown, harvested",1
w536517_avg,lkwku7izmm,"BOI Norms",1,9,2021-05-30T02:34:58-07:00,1.8381991386414,7,"updated stim.csv",Version82.csv,"Version 82","List 82",,,,,,0,Instruct,-,-,"You have completed this section. Press ENTER to continue",,"Instruct 5",1537,,,-1,-1,,,,,1
w536517_avg,lkwku7izmm,"BOI Norms",1,10,2021-05-30T02:35:00-07:00,1.8944718837738,7,"updated stim.csv",Version82.csv,"Version 82","List 82",,,,,,0,Instruct,-,-,"You will now start the full experiment. Press ENTER when you are ready to begin.",,,1601,,,-1,-1,,,,,1
w536517_avg,lkwku7izmm,"BOI Norms",1,11,2021-05-30T02:35:12-07:00,11.395265102386,7,"updated stim.csv",Version82.csv,"Version 82","List 82",peppermint,,2452,5.391304348,1923,2453,BOI,-,-,"Please name all of the ways you could use this object. Keep in mind that one object can have many uses. Separate your responses with a comma.",,y,11085,,,2068,8003,,,,"grown, eaten, smelled",1
w536517_avg,lkwku7izmm,"BOI Norms",1,12,2021-05-30T02:35:24-07:00,12.526932954788,7,"updated stim.csv",Version82.csv,"Version 82","List 82",sidecar,,2434,4.347826087,2376,2435,BOI,-,-,"Please name all of the ways you could use this object. Keep in mind that one object can have many uses. Separate your responses with a comma.",,y,12237,,,1942,11024,,,,"ridden, attached",1
w536517_avg,lkwku7izmm,"BOI Norms",1,13,2021-05-30T02:35:38-07:00,14.281023979187,7,"updated stim.csv",Version82.csv,"Version 82","List 82",saxophone,,2456,6.222222222,2257,2457,BOI,-,-,"Please name all of the ways you could use this object. Keep in mind that one object can have many uses. Separate your responses with a comma.",,y,13972,,,1910,12247,,,,"played, polished, stored",1
w536517_avg,lkwku7izmm,"BOI Norms",1,14,2021-05-30T02:36:00-07:00,22.020643949509,7,"updated stim.csv",Version82.csv,"Version 82","List 82",doorframe,,2455,5.086956522,823,2456,BOI,-,-,"Please name all of the ways you could use this object. Keep in mind that one object can have many uses. Separate your responses with a comma.",,y,21711,,,4188,14773,,,,"touched, cleaned, ",1
w536517_avg,lkwku7izmm,"BOI Norms",1,15,2021-05-30T02:36:09-07:00,8.2915639877319,7,"updated stim.csv",Version82.csv,"Version 82","List 82",dumpling,,2449,4.826086957,867,2450,BOI,-,-,"Please name all of the ways you could use this object. Keep in mind that one object can have many uses. Separate your responses with a comma.",,y,7989,,,1395,5628,,,,"eaten, cooked, ",1
w536517_avg,lkwku7izmm,"BOI Norms",1,16,2021-05-30T02:36:21-07:00,12.432521104813,7,"updated stim.csv",Version82.csv,"Version 82","List 82",soda,,2450,6.47826087,2442,2451,BOI,-,-,"Please name all of the ways you could use this object. Keep in mind that one object can have many uses. Separate your responses with a comma.",,y,11914,,,1344,10433,,,,"drank, use as a battery cleaner, ",1
w536517_avg,lkwku7izmm,"BOI Norms",1,17,2021-05-30T02:36:33-07:00,11.680658102036,7,"updated stim.csv",Version82.csv,"Version 82","List 82",corduroy,,2446,5.041666667,641,2447,BOI,-,-,"Please name all of the ways you could use this object. Keep in mind that one object can have many uses. Separate your responses with a comma.",,y,11385,,,1920,10161,,,,"worn, felt, stitched",1
w536517_avg,lkwku7izmm,"BOI Norms",1,18,2021-05-30T02:36:47-07:00,13.704137802124,7,"updated stim.csv",Version82.csv,"Version 82","List 82",oven,,2445,5.923076923,1831,2446,BOI,-,-,"Please name all of the ways you could use this object. Keep in mind that one object can have many uses. Separate your responses with a comma.",,y,13405,,,1608,11670,,,,"cooked, cleaned, moved",1
w536517_avg,lkwku7izmm,"BOI Norms",1,19,2021-05-30T02:36:56-07:00,9.1547191143036,7,"updated stim.csv",Version82.csv,"Version 82","List 82",buck,,2440,4.291666667,340,2441,BOI,-,-,"Please name all of the ways you could use this object. Keep in mind that one object can have many uses. Separate your responses with a comma.",,y,8848,,,2104,7690,,,,"spend, shoot",1
w536517_avg,lkwku7izmm,"BOI Norms",1,20,2021-05-30T02:37:18-07:00,22.518830060959,7,"updated stim.csv",Version82.csv,"Version 82","List 82",socket,,2458,5.24,2440,2459,BOI,-,-,"Please name all of the ways you could use this object. Keep in mind that one object can have many uses. Separate your responses with a comma.",,y,22212,,,6420,20668,,,,"wrench, bend, tighten",1
w536517_avg,lkwku7izmm,"BOI Norms",1,21,2021-05-30T02:37:28-07:00,9.7091348171234,7,"updated stim.csv",Version82.csv,"Version 82","List 82",petroleum,,2438,4.333333333,1934,2439,BOI,-,-,"Please name all of the ways you could use this object. Keep in mind that one object can have many uses. Separate your responses with a comma.",,y,9405,,,4020,8130,,,,"fuel, lubrication",1
w536517_avg,lkwku7izmm,"BOI Norms",1,22,2021-05-30T02:37:40-07:00,12.040280103683,7,"updated stim.csv",Version82.csv,"Version 82","List 82",backboard,,2431,4.565217391,112,2432,BOI,-,-,"Please name all of the ways you could use this object. Keep in mind that one object can have many uses. Separate your responses with a comma.",,y,11738,,,6110,6991,,,,"diving, ",1
w536517_avg,lkwku7izmm,"BOI Norms",1,23,2021-05-30T02:38:07-07:00,27.198648929596,7,"updated stim.csv",Version82.csv,"Version 82","List 82",teakwood,,2436,5.136363636,2647,2437,BOI,-,-,"Please name all of the ways you could use this object. Keep in mind that one object can have many uses. Separate your responses with a comma.",,y,26900,,,3653,22681,,,,"jewelry, harvesting, knickknacks",1
w536517_avg,lkwku7izmm,"BOI Norms",1,24,2021-05-30T02:38:17-07:00,10.101222038269,7,"updated stim.csv",Version82.csv,"Version 82","List 82",buffet,,2451,5.409090909,346,2452,BOI,-,-,"Please name all of the ways you could use this object. Keep in mind that one object can have many uses. Separate your responses with a comma.",,y,9777,,,1240,8444,,,,"eaten, cleaned, stored",1
w536517_avg,lkwku7izmm,"BOI Norms",1,25,2021-05-30T02:38:22-07:00,4.5276019573212,7,"updated stim.csv",Version82.csv,"Version 82","List 82",punter,,2454,4.464285714,2100,2455,BOI,-,-,"Please name all of the ways you could use this object. Keep in mind that one object can have many uses. Separate your responses with a comma.",,y,4214,,,2568,3179,,,,kicker,1
w536517_avg,lkwku7izmm,"BOI Norms",1,26,2021-05-30T02:38:34-07:00,12.383310079575,7,"updated stim.csv",Version82.csv,"Version 82","List 82",slingshot,,2433,5.4,2414,2434,BOI,-,-,"Please name all of the ways you could use this object. Keep in mind that one object can have many uses. Separate your responses with a comma.",,y,12070,,,2328,11067,,,,"slung, pulled, thrown",1
w536517_avg,lkwku7izmm,"BOI Norms",1,27,2021-05-30T02:38:45-07:00,10.662618875504,7,"updated stim.csv",Version82.csv,"Version 82","List 82",announcer,,2439,4.296296296,44,2440,BOI,-,-,"Please name all of the ways you could use this object. Keep in mind that one object can have many uses. Separate your responses with a comma.",,y,10367,,,1946,4976,,,,speaker,1
w536517_avg,lkwku7izmm,"BOI Norms",1,28,2021-05-30T02:39:02-07:00,17.237025022507,7,"updated stim.csv",Version82.csv,"Version 82","List 82",classmate,,2460,5.363636364,549,2461,BOI,-,-,"Please name all of the ways you could use this object. Keep in mind that one object can have many uses. Separate your responses with a comma.",,y,16932,,,4624,15844,,,,"homework help, cohort",1
w536517_avg,lkwku7izmm,"BOI Norms",1,29,2021-05-30T02:39:14-07:00,11.90828704834,7,"updated stim.csv",Version82.csv,"Version 82","List 82",candlestick,,2441,6,411,2442,BOI,-,-,"Please name all of the ways you could use this object. Keep in mind that one object can have many uses. Separate your responses with a comma.",,y,11608,,,4024,10562,,,,"as a light, scent, decor",1
w536517_avg,lkwku7izmm,"BOI Norms",1,30,2021-05-30T02:39:26-07:00,12.352782964706,7,"updated stim.csv",Version82.csv,"Version 82","List 82",mattress,,2453,6.72,1626,2454,BOI,-,-,"Please name all of the ways you could use this object. Keep in mind that one object can have many uses. Separate your responses with a comma.",,y,12042,,,1229,11090,,,,"slept on, cleaned, jumped on, moved, flipped",1
w536517_avg,lkwku7izmm,"BOI Norms",1,31,2021-05-30T02:39:59-07:00,32.840204000473,7,"updated stim.csv",Version82.csv,"Version 82","List 82",card,,2437,5.56,430,2438,BOI,-,-,"Please name all of the ways you could use this object. Keep in mind that one object can have many uses. Separate your responses with a comma.",,y,32544,,,3581,31301,,,,"greeting, swipe, play",1
w536517_avg,lkwku7izmm,"BOI Norms",1,32,2021-05-30T02:40:29-07:00,30.268959999084,7,"updated stim.csv",Version82.csv,"Version 82","List 82",tablet,,2448,6.517241379,2619,2449,BOI,-,-,"Please name all of the ways you could use this object. Keep in mind that one object can have many uses. Separate your responses with a comma.",,y,29947,,,18621,29003,,,,"charged, played, read",1
w536517_avg,lkwku7izmm,"BOI Norms",1,33,2021-05-30T02:40:36-07:00,6.5753920078278,7,"updated stim.csv",Version82.csv,"Version 82","List 82",eclair,,2435,6.166666667,886,2436,BOI,-,-,"Please name all of the ways you could use this object. Keep in mind that one object can have many uses. Separate your responses with a comma.",,y,6242,,,1384,5322,,,,"eaten, cooked, sold",1
w536517_avg,lkwku7izmm,"BOI Norms",1,34,2021-05-30T02:40:44-07:00,7.5969109535217,7,"updated stim.csv",Version82.csv,"Version 82","List 82",cartridge,,2444,5.12,444,2445,BOI,-,-,"Please name all of the ways you could use this object. Keep in mind that one object can have many uses. Separate your responses with a comma.",,y,7286,,,2289,6268,,,,"print, stock",1
w536517_avg,lkwku7izmm,"BOI Norms",1,35,2021-05-30T02:41:01-07:00,17.200606107712,7,"updated stim.csv",Version82.csv,"Version 82","List 82",blender,,2442,5.739130435,236,2443,BOI,-,-,"Please name all of the ways you could use this object. Keep in mind that one object can have many uses. Separate your responses with a comma.",,y,16883,,,1409,15478,,,,"blend food, blend makeup",1
w536517_avg,lkwku7izmm,"BOI Norms",1,36,2021-05-30T02:41:08-07:00,7.6613309383392,7,"updated stim.csv",Version82.csv,"Version 82","List 82",burglar,,2447,4.260869565,366,2448,BOI,-,-,"Please name all of the ways you could use this object. Keep in mind that one object can have many uses. Separate your responses with a comma.",,y,7358,,,4038,5830,,,,"steal, caught",1
w536517_avg,lkwku7izmm,"BOI Norms",1,37,2021-05-30T02:41:26-07:00,17.371113061905,7,"updated stim.csv",Version82.csv,"Version 82","List 82",Crab,,2432,4.889189189,674,2433,BOI,-,-,"Please name all of the ways you could use this object. Keep in mind that one object can have many uses. Separate your responses with a comma.",,y,17066,,,2295,15416,,,,"crabbing, cooked, running, hiding",1
w536517_avg,lkwku7izmm,"BOI Norms",1,38,2021-05-30T02:41:53-07:00,27.29820895195,7,"updated stim.csv",Version82.csv,"Version 82","List 82",arrowhead,,2457,4.44,77,2458,BOI,-,-,"Please name all of the ways you could use this object. Keep in mind that one object can have many uses. Separate your responses with a comma.",,y,26985,,,5821,25781,,,,"decor, found, collect, tool, weapon",1
w536517_avg,lkwku7izmm,"BOI Norms",1,39,2021-05-30T02:42:04-07:00,10.597773075104,7,"updated stim.csv",Version82.csv,"Version 82","List 82",net,,2459,5.208333333,1751,2460,BOI,-,-,"Please name all of the ways you could use this object. Keep in mind that one object can have many uses. Separate your responses with a comma.",,y,10296,,,3763,8191,,,,"catch a ball, fishing, ",1
w536517_avg,lkwku7izmm,"BOI Norms",1,40,2021-05-30T02:42:14-07:00,10.623760938644,7,"updated stim.csv",Version82.csv,"Version 82","List 82",shrine,,2443,4.555555556,2367,2444,BOI,-,-,"Please name all of the ways you could use this object. Keep in mind that one object can have many uses. Separate your responses with a comma.",,y,10321,,,2488,8658,,,,"worshipped, added to",1
w536517_avg,lkwku7izmm,"BOI Norms",1,41,2021-05-30T02:42:17-07:00,2.3506319522858,7,"updated stim.csv",Version82.csv,"Version 82","List 82",,,,,,0,Instruct,,,"You will now be asked a few questions about your experience today.",,"Instruct 4",2046,,,-1,-1,,,,,1
