Username,ID,ExperimentName,Session,Trial,Date,TimeDif,"Condition Number","Stimuli File","Order File","Condition Description","Condition Notes",Stimuli*Cue,Stimuli*Answer,Stimuli*Shuffle,"Stimuli*Stimuli Notes",Stimuli*Value,Procedure*Item,"Procedure*Trial Type","Procedure*Max Time","Procedure*Min Time",Procedure*Text,"Procedure*Procedure Notes",Procedure*Shuffle,Response*RT,Response*Response,Response*Accuracy,Response*RTfirst,Response*RTlast,Response*strictAcc,Response*lenientAcc,Response*focus,Response*JOL,Response*Focus
w10006438,cydtn10af0,"BOI Norms",1,1,2020-11-10T11:32:12-08:00,11.352780103683,12,"updated stim.csv",Version12.csv,"Version 12","List 12",,,,,,0,Instruct,-,10,"In this section, you will be presented with a series of objects. Please name as many possible uses for this object as you can think of by typing them in the box below each object.",,Instruct1,10953,,,-1,-1,,,,,1
w10006438,cydtn10af0,"BOI Norms",1,2,2020-11-10T11:32:25-08:00,12.850392818451,12,"updated stim.csv",Version12.csv,"Version 12","List 12",,,,,,0,Instruct,-,10,"Please keep in mind that a single object will have more than one use. For example, a ball can be thrown or can be bounced or even stepped on. When listing multiple uses for one object, please separate each use with a comma (i.e., thrown, bounced, stepped on)",,Instruct2,12476,,,-1,-1,,,,,1
w10006438,cydtn10af0,"BOI Norms",1,3,2020-11-10T11:32:30-08:00,4.9301052093506,12,"updated stim.csv",Version12.csv,"Version 12","List 12",,,,,,0,Instruct,-,-,"Before starting the experiment, you will complete a short practice sesstion. Press ENTER when you are ready to begin.",,Instruct3,4597,,,-1,-1,,,,,1
w10006438,cydtn10af0,"BOI Norms",1,4,2020-11-10T11:32:55-08:00,25.131680011749,12,"updated stim.csv",Version12.csv,"Version 12","List 12",grain,,3004,5.217391304,1143,3005,BOI,-,-,"Please name all of the ways you could use this object. Keep in mind that one object can have many uses. Separate your responses with a comma.",,n,24789,,,3472,22677,,,,"rice, food, engrain on your mind, roll, digest",1
w10006438,cydtn10af0,"BOI Norms",1,5,2020-11-10T11:33:20-08:00,25.02640581131,12,"updated stim.csv",Version12.csv,"Version 12","List 12",paperwork,,3001,5.625,1866,3002,BOI,-,-,"Please name all of the ways you could use this object. Keep in mind that one object can have many uses. Separate your responses with a comma.",,n,24649,,,8766,22935,,,,"organize, work, assist, busy work, task",1
w10006438,cydtn10af0,"BOI Norms",1,6,2020-11-10T11:33:38-08:00,17.927635192871,12,"updated stim.csv",Version12.csv,"Version 12","List 12",spaghetti,,3003,6,2461,3004,BOI,-,-,"Please name all of the ways you could use this object. Keep in mind that one object can have many uses. Separate your responses with a comma.",,n,17550,,,1578,16308,,,,"eat, make, throw at ceiling, slurp, stir, cook",1
w10006438,cydtn10af0,"BOI Norms",1,7,2020-11-10T11:33:54-08:00,16.605906963348,12,"updated stim.csv",Version12.csv,"Version 12","List 12",saucer,,3005,5.777777778,2249,3006,BOI,-,-,"Please name all of the ways you could use this object. Keep in mind that one object can have many uses. Separate your responses with a comma.",,n,16137,,,4229,15108,,,,"fly, tea time, break, spin, flip",1
w10006438,cydtn10af0,"BOI Norms",1,8,2020-11-10T11:34:23-08:00,28.2712059021,12,"updated stim.csv",Version12.csv,"Version 12","List 12",shortening,,3002,4.92,2358,3003,BOI,-,-,"Please name all of the ways you could use this object. Keep in mind that one object can have many uses. Separate your responses with a comma.",,n,9714,,,3073,6117,,,,"bake, eat, ",1
w10006438,cydtn10af0,"BOI Norms",1,9,2020-11-10T11:34:32-08:00,9.003438949585,12,"updated stim.csv",Version12.csv,"Version 12","List 12",,,,,,0,Instruct,-,-,"You have completed this section. Press ENTER to continue",,"Instruct 5",8548,,,-1,-1,,,,,1
w10006438,cydtn10af0,"BOI Norms",1,10,2020-11-10T11:34:35-08:00,3.6234049797058,12,"updated stim.csv",Version12.csv,"Version 12","List 12",,,,,,0,Instruct,-,-,"You will now start the full experiment. Press ENTER when you are ready to begin.",,,3257,,,-1,-1,,,,,1
w10006438,cydtn10af0,"BOI Norms",1,11,2020-11-10T11:34:57-08:00,21.661394119263,12,"updated stim.csv",Version12.csv,"Version 12","List 12",someone,,357,4.625,2450,358,BOI,-,-,"Please name all of the ways you could use this object. Keep in mind that one object can have many uses. Separate your responses with a comma.",,y,21341,,,3315,19673,,,,"speak, help, play, jump, ",1
w10006438,cydtn10af0,"BOI Norms",1,12,2020-11-10T11:35:05-08:00,7.8316910266876,12,"updated stim.csv",Version12.csv,"Version 12","List 12",beet,,345,5.32,193,346,BOI,-,-,"Please name all of the ways you could use this object. Keep in mind that one object can have many uses. Separate your responses with a comma.",,y,7519,,,1563,6821,,,,"eat, pickle, salad topping",1
w10006438,cydtn10af0,"BOI Norms",1,13,2020-11-10T11:35:17-08:00,11.901938915253,12,"updated stim.csv",Version12.csv,"Version 12","List 12",necklace,,338,5.821428571,1741,339,BOI,-,-,"Please name all of the ways you could use this object. Keep in mind that one object can have many uses. Separate your responses with a comma.",,y,11570,,,1565,11160,,,,"wear, gift, tug, play with",1
w10006438,cydtn10af0,"BOI Norms",1,14,2020-11-10T11:35:36-08:00,19.394587039948,12,"updated stim.csv",Version12.csv,"Version 12","List 12",sifter,,350,4.782608696,2378,351,BOI,-,-,"Please name all of the ways you could use this object. Keep in mind that one object can have many uses. Separate your responses with a comma.",,y,19032,,,10880,18909,,,,"sift, sort sand from rocks",0.698
w10006438,cydtn10af0,"BOI Norms",1,15,2020-11-10T11:35:48-08:00,11.779215097427,12,"updated stim.csv",Version12.csv,"Version 12","List 12",cobweb,,359,4.916666667,584,360,BOI,-,-,"Please name all of the ways you could use this object. Keep in mind that one object can have many uses. Separate your responses with a comma.",,y,11403,,,1704,10841,,,,"spooky, haunt, decorate, dust,",1
w10006438,cydtn10af0,"BOI Norms",1,16,2020-11-10T11:36:06-08:00,18.196971893311,12,"updated stim.csv",Version12.csv,"Version 12","List 12",String,,334,5.626180837,2568,335,BOI,-,-,"Please name all of the ways you could use this object. Keep in mind that one object can have many uses. Separate your responses with a comma.",,y,17861,,,15642,17543,,,,"tie, lace",0.867
w10006438,cydtn10af0,"BOI Norms",1,17,2020-11-10T11:36:11-08:00,5.2124359607697,12,"updated stim.csv",Version12.csv,"Version 12","List 12",champagne,,333,5.583333333,493,334,BOI,-,-,"Please name all of the ways you could use this object. Keep in mind that one object can have many uses. Separate your responses with a comma.",,y,4827,,,1334,4265,,,,"pop, drink, fizz",1
w10006438,cydtn10af0,"BOI Norms",1,18,2020-11-10T11:36:16-08:00,5.1034331321716,12,"updated stim.csv",Version12.csv,"Version 12","List 12",shot,,356,4.392857143,2360,357,BOI,-,-,"Please name all of the ways you could use this object. Keep in mind that one object can have many uses. Separate your responses with a comma.",,y,4714,,,2351,4525,,,,"stab, drink",1
w10006438,cydtn10af0,"BOI Norms",1,19,2020-11-10T11:36:22-08:00,6.012727022171,12,"updated stim.csv",Version12.csv,"Version 12","List 12",mulberry,,339,4.703703704,1714,340,BOI,-,-,"Please name all of the ways you could use this object. Keep in mind that one object can have many uses. Separate your responses with a comma.",,y,5627,,,1877,5315,,,,"eat, bake, jam",1
w10006438,cydtn10af0,"BOI Norms",1,20,2020-11-10T11:36:36-08:00,14.12690782547,12,"updated stim.csv",Version12.csv,"Version 12","List 12",toddler,,349,5.875,2714,350,BOI,-,-,"Please name all of the ways you could use this object. Keep in mind that one object can have many uses. Separate your responses with a comma.",,y,13765,,,5784,13403,,,,"rock, play, cuddle, sleep",1
w10006438,cydtn10af0,"BOI Norms",1,21,2020-11-10T11:36:49-08:00,12.412821054459,12,"updated stim.csv",Version12.csv,"Version 12","List 12",hourglass,,354,4.583333333,1325,355,BOI,-,-,"Please name all of the ways you could use this object. Keep in mind that one object can have many uses. Separate your responses with a comma.",,y,12048,,,7410,11878,,,,"flip over, watch, break",1
w10006438,cydtn10af0,"BOI Norms",1,22,2020-11-10T11:36:56-08:00,7.5027339458466,12,"updated stim.csv",Version12.csv,"Version 12","List 12",condiment,,347,5.76,620,348,BOI,-,-,"Please name all of the ways you could use this object. Keep in mind that one object can have many uses. Separate your responses with a comma.",,y,7141,,,3286,6913,,,,"apply to other foods",1
w10006438,cydtn10af0,"BOI Norms",1,23,2020-11-10T11:37:11-08:00,14.37327504158,12,"updated stim.csv",Version12.csv,"Version 12","List 12",man,,352,5.346153846,1586,353,BOI,-,-,"Please name all of the ways you could use this object. Keep in mind that one object can have many uses. Separate your responses with a comma.",,y,14007,,,5442,8282,,,,"be aware, ",1
w10006438,cydtn10af0,"BOI Norms",1,24,2020-11-10T11:37:25-08:00,14.583653926849,12,"updated stim.csv",Version12.csv,"Version 12","List 12",hip,,341,5.086956522,1291,342,BOI,-,-,"Please name all of the ways you could use this object. Keep in mind that one object can have many uses. Separate your responses with a comma.",,y,14182,,,2759,13811,,,,"run into counter tops, shake, roll",1
w10006438,cydtn10af0,"BOI Norms",1,25,2020-11-10T11:37:42-08:00,17.235169172287,12,"updated stim.csv",Version12.csv,"Version 12","List 12",fungus,,346,4.32,1064,347,BOI,-,-,"Please name all of the ways you could use this object. Keep in mind that one object can have many uses. Separate your responses with a comma.",,y,16242,,,1825,16038,,,,"eat, throw away, look at",1
w10006438,cydtn10af0,"BOI Norms",1,26,2020-11-10T11:37:51-08:00,8.1949858665466,12,"updated stim.csv",Version12.csv,"Version 12","List 12",bass,,337,4.37037037,164,338,BOI,-,-,"Please name all of the ways you could use this object. Keep in mind that one object can have many uses. Separate your responses with a comma.",,y,7828,,,2381,7480,,,,"eat, play?",1
w10006438,cydtn10af0,"BOI Norms",1,27,2020-11-10T11:38:00-08:00,9.4397649765015,12,"updated stim.csv",Version12.csv,"Version 12","List 12",ruby,,332,4.76,2202,333,BOI,-,-,"Please name all of the ways you could use this object. Keep in mind that one object can have many uses. Separate your responses with a comma.",,y,9097,,,3491,8885,,,,"wear, decorate, break",1
w10006438,cydtn10af0,"BOI Norms",1,28,2020-11-10T11:38:10-08:00,10.133460044861,12,"updated stim.csv",Version12.csv,"Version 12","List 12",bystander,,331,4.791666667,384,332,BOI,-,-,"Please name all of the ways you could use this object. Keep in mind that one object can have many uses. Separate your responses with a comma.",,y,9756,,,3973,9612,,,,"watch, walk, ignore",1
w10006438,cydtn10af0,"BOI Norms",1,29,2020-11-10T11:38:23-08:00,12.296414136887,12,"updated stim.csv",Version12.csv,"Version 12","List 12",mayonnaise,,342,5.523809524,1628,343,BOI,-,-,"Please name all of the ways you could use this object. Keep in mind that one object can have many uses. Separate your responses with a comma.",,y,11772,,,1564,5197,,,,"eat, throw, ",1
w10006438,cydtn10af0,"BOI Norms",1,30,2020-11-10T11:38:32-08:00,9.2663037776947,12,"updated stim.csv",Version12.csv,"Version 12","List 12",showerhead,,360,5.041666667,2365,361,BOI,-,-,"Please name all of the ways you could use this object. Keep in mind that one object can have many uses. Separate your responses with a comma.",,y,8877,,,5237,7936,,,,"run water, clean, ",1
w10006438,cydtn10af0,"BOI Norms",1,31,2020-11-10T11:38:40-08:00,7.9270820617676,12,"updated stim.csv",Version12.csv,"Version 12","List 12",mall,,340,4.36,1582,341,BOI,-,-,"Please name all of the ways you could use this object. Keep in mind that one object can have many uses. Separate your responses with a comma.",,y,7586,,,2439,7445,,,,"hang out, shop, get food",1
w10006438,cydtn10af0,"BOI Norms",1,32,2020-11-10T11:38:47-08:00,6.8002910614014,12,"updated stim.csv",Version12.csv,"Version 12","List 12",stockings,,344,5.84,2542,345,BOI,-,-,"Please name all of the ways you could use this object. Keep in mind that one object can have many uses. Separate your responses with a comma.",,y,6517,,,1363,6224,,,,"wear, hang at christmas",1
w10006438,cydtn10af0,"BOI Norms",1,33,2020-11-10T11:38:57-08:00,10.678364992142,12,"updated stim.csv",Version12.csv,"Version 12","List 12",certificate,,358,5.041666667,482,359,BOI,-,-,"Please name all of the ways you could use this object. Keep in mind that one object can have many uses. Separate your responses with a comma.",,y,10132,,,3420,9546,,,,"hang on wall, take picture",1
w10006438,cydtn10af0,"BOI Norms",1,34,2020-11-10T11:39:08-08:00,10.567135095596,12,"updated stim.csv",Version12.csv,"Version 12","List 12",bartender,,353,4.64,156,354,BOI,-,-,"Please name all of the ways you could use this object. Keep in mind that one object can have many uses. Separate your responses with a comma.",,y,10248,,,3877,10079,,,,"make drinks, help people",1
w10006438,cydtn10af0,"BOI Norms",1,35,2020-11-10T11:39:18-08:00,9.7813169956207,12,"updated stim.csv",Version12.csv,"Version 12","List 12",flower,,343,5.916666667,1015,344,BOI,-,-,"Please name all of the ways you could use this object. Keep in mind that one object can have many uses. Separate your responses with a comma.",,y,9461,,,5687,9270,,,,"smell, eat, pick",1
w10006438,cydtn10af0,"BOI Norms",1,36,2020-11-10T11:39:31-08:00,13.294668912888,12,"updated stim.csv",Version12.csv,"Version 12","List 12",dumbbell,,351,5.958333333,865,352,BOI,-,-,"Please name all of the ways you could use this object. Keep in mind that one object can have many uses. Separate your responses with a comma.",,y,12732,,,3293,12122,,,,"work out, throw out window",1
w10006438,cydtn10af0,"BOI Norms",1,37,2020-11-10T11:39:39-08:00,8.5309898853302,12,"updated stim.csv",Version12.csv,"Version 12","List 12",dock,,336,4.541666667,808,337,BOI,-,-,"Please name all of the ways you could use this object. Keep in mind that one object can have many uses. Separate your responses with a comma.",,y,7988,,,5041,7774,,,,"sit on, tie up to",1
w10006438,cydtn10af0,"BOI Norms",1,38,2020-11-10T11:39:55-08:00,15.982567071915,12,"updated stim.csv",Version12.csv,"Version 12","List 12",pinkie,,355,5.260869565,1974,356,BOI,-,-,"Please name all of the ways you could use this object. Keep in mind that one object can have many uses. Separate your responses with a comma.",,y,15686,,,7173,15347,,,,"promise, paint, wear ring",1
w10006438,cydtn10af0,"BOI Norms",1,39,2020-11-10T11:40:14-08:00,18.237236022949,12,"updated stim.csv",Version12.csv,"Version 12","List 12",closet,,348,4.962962963,567,349,BOI,-,-,"Please name all of the ways you could use this object. Keep in mind that one object can have many uses. Separate your responses with a comma.",,y,17880,,,11305,17522,,,,"sit in, hang clothes",1
w10006438,cydtn10af0,"BOI Norms",1,40,2020-11-10T11:40:24-08:00,10.577592134476,12,"updated stim.csv",Version12.csv,"Version 12","List 12",dairy,,335,4.28,750,336,BOI,-,-,"Please name all of the ways you could use this object. Keep in mind that one object can have many uses. Separate your responses with a comma.",,y,10204,,,1178,9797,,,,"eat, bake, cook",1
w10006438,cydtn10af0,"BOI Norms",1,41,2020-11-10T11:40:26-08:00,2.269740819931,12,"updated stim.csv",Version12.csv,"Version 12","List 12",,,,,,0,Instruct,,,"You will now be asked a few questions about your experience today.",,"Instruct 4",1836,,,-1,-1,,,,,1
