Username,ID,ExperimentName,Session,Trial,Date,TimeDif,"Condition Number","Stimuli File","Order File","Condition Description","Condition Notes",Stimuli*Cue,Stimuli*Answer,Stimuli*Shuffle,"Stimuli*Stimuli Notes",Stimuli*Value,Procedure*Item,"Procedure*Trial Type","Procedure*Max Time","Procedure*Min Time",Procedure*Text,"Procedure*Procedure Notes",Procedure*Shuffle,Response*RT,Response*Response,Response*Accuracy,Response*RTfirst,Response*RTlast,Response*strictAcc,Response*lenientAcc,Response*focus,Response*JOL,Response*Focus
w10131848pas,196mdytjz3,"BOI Norms",1,1,2021-11-24T23:07:49+00:00,10.386310100555,13,"updated stim.csv",Version63.csv,"Version 63","List 63",,,,,,0,Instruct,-,10,"In this section, you will be presented with a series of objects. Please name as many possible uses for this object as you can think of by typing them in the box below each object.",,Instruct1,10058,,,-1,-1,,,,,1
w10131848pas,196mdytjz3,"BOI Norms",1,2,2021-11-24T23:08:02+00:00,12.712446928024,13,"updated stim.csv",Version63.csv,"Version 63","List 63",,,,,,0,Instruct,-,10,"Please keep in mind that a single object will have more than one use. For example, a ball can be thrown or can be bounced or even stepped on. When listing multiple uses for one object, please separate each use with a comma (i.e., thrown, bounced, stepped on)",,Instruct2,12403,,,-1,-1,,,,,1
w10131848pas,196mdytjz3,"BOI Norms",1,3,2021-11-24T23:08:08+00:00,6.3803689479828,13,"updated stim.csv",Version63.csv,"Version 63","List 63",,,,,,0,Instruct,-,-,"Before starting the experiment, you will complete a short practice sesstion. Press ENTER when you are ready to begin.",,Instruct3,6087,,,-1,-1,,,,,1
w10131848pas,196mdytjz3,"BOI Norms",1,4,2021-11-24T23:08:28+00:00,19.473476171494,13,"updated stim.csv",Version63.csv,"Version 63","List 63",Taco,,Practice,,3005,3004,BOI,-,-,"Please name all of the ways you could use this object. Keep in mind that one object can have many uses. Separate your responses with a comma.",,n,19199,,,5205,17509,,,,"meat, shell, cheese, eat",1
w10131848pas,196mdytjz3,"BOI Norms",1,5,2021-11-24T23:09:04+00:00,36.213271856308,13,"updated stim.csv",Version63.csv,"Version 63","List 63","Picture Frame",,Practice,,3002,3002,BOI,-,-,"Please name all of the ways you could use this object. Keep in mind that one object can have many uses. Separate your responses with a comma.",,n,35905,,,7269,24595,,,,"put pictures in, paintings, ",1
w10131848pas,196mdytjz3,"BOI Norms",1,6,2021-11-24T23:09:24+00:00,19.873816013336,13,"updated stim.csv",Version63.csv,"Version 63","List 63",Donut,,Practice,,3003,3003,BOI,-,-,"Please name all of the ways you could use this object. Keep in mind that one object can have many uses. Separate your responses with a comma.",,n,19570,,,5911,10785,,,,"eat, dunk, ",1
w10131848pas,196mdytjz3,"BOI Norms",1,7,2021-11-24T23:09:45+00:00,21.507513999939,13,"updated stim.csv",Version63.csv,"Version 63","List 63",Swan,,Practice,,3004,3006,BOI,-,-,"Please name all of the ways you could use this object. Keep in mind that one object can have many uses. Separate your responses with a comma.",,n,21211,,,6415,17454,,,,"beautiful, ",1
w10131848pas,196mdytjz3,"BOI Norms",1,8,2021-11-24T23:10:03+00:00,17.296462059021,13,"updated stim.csv",Version63.csv,"Version 63","List 63",Cheeseburger,,Practice,,3001,3005,BOI,-,-,"Please name all of the ways you could use this object. Keep in mind that one object can have many uses. Separate your responses with a comma.",,n,16949,,,5922,10521,,,,"eat, share, ",1
w10131848pas,196mdytjz3,"BOI Norms",1,9,2021-11-24T23:10:07+00:00,4.6077830791473,13,"updated stim.csv",Version63.csv,"Version 63","List 63",,,,,,0,Instruct,-,-,"You have completed this section. Press ENTER to continue",,"Instruct 5",4279,,,-1,-1,,,,,1
w10131848pas,196mdytjz3,"BOI Norms",1,10,2021-11-24T23:10:13+00:00,6.0782909393311,13,"updated stim.csv",Version63.csv,"Version 63","List 63",,,,,,0,Instruct,-,-,"You will now start the full experiment. Press ENTER when you are ready to begin.",,,5823,,,-1,-1,,,,,1
w10131848pas,196mdytjz3,"BOI Norms",1,11,2021-11-24T23:10:46+00:00,32.532702922821,13,"updated stim.csv",Version63.csv,"Version 63","List 63",cellar,,ON,4.6,472,1873,BOI,-,-,"Please name all of the ways you could use this object. Keep in mind that one object can have many uses. Separate your responses with a comma.",,y,32259,,,3878,30284,,,,"store, safety, laundry, bedroom",1
w10131848pas,196mdytjz3,"BOI Norms",1,12,2021-11-24T23:11:10+00:00,24.257676124573,13,"updated stim.csv",Version63.csv,"Version 63","List 63",mouse,,ON,5.24,1701,1869,BOI,-,-,"Please name all of the ways you could use this object. Keep in mind that one object can have many uses. Separate your responses with a comma.",,y,23951,,,6135,21600,,,,"trap, catch, kill",1
w10131848pas,196mdytjz3,"BOI Norms",1,13,2021-11-24T23:11:40+00:00,29.905939817429,13,"updated stim.csv",Version63.csv,"Version 63","List 63",handwork,,ON,4.928571429,1244,1864,BOI,-,-,"Please name all of the ways you could use this object. Keep in mind that one object can have many uses. Separate your responses with a comma.",,y,29602,,,10949,28510,,,,"woodwork, sew, hammer",1
w10131848pas,196mdytjz3,"BOI Norms",1,14,2021-11-24T23:11:59+00:00,19.109585046768,13,"updated stim.csv",Version63.csv,"Version 63","List 63",tangerine,,ON,5.772727273,2630,1887,BOI,-,-,"Please name all of the ways you could use this object. Keep in mind that one object can have many uses. Separate your responses with a comma.",,y,18797,,,2626,18119,,,,"peel, eat, water, drinks",1
w10131848pas,196mdytjz3,"BOI Norms",1,15,2021-11-24T23:12:23+00:00,23.585544109344,13,"updated stim.csv",Version63.csv,"Version 63","List 63",plate,,ON,5.590909091,1996,1874,BOI,-,-,"Please name all of the ways you could use this object. Keep in mind that one object can have many uses. Separate your responses with a comma.",,y,23282,,,4665,11645,,,,"paint, eat, hang, ",1
w10131848pas,196mdytjz3,"BOI Norms",1,16,2021-11-24T23:12:52+00:00,28.984416007996,13,"updated stim.csv",Version63.csv,"Version 63","List 63",car,,ON,6.035714286,428,1890,BOI,-,-,"Please name all of the ways you could use this object. Keep in mind that one object can have many uses. Separate your responses with a comma.",,y,28676,,,1847,27010,,,,"drive, vacation, shopping",1
w10131848pas,196mdytjz3,"BOI Norms",1,17,2021-11-24T23:13:02+00:00,10.593405008316,13,"updated stim.csv",Version63.csv,"Version 63","List 63",worm,,ON,4.681818182,2975,1877,BOI,-,-,"Please name all of the ways you could use this object. Keep in mind that one object can have many uses. Separate your responses with a comma.",,y,10301,,,2360,4641,,,,"fishing, ",1
w10131848pas,196mdytjz3,"BOI Norms",1,18,2021-11-24T23:13:22+00:00,19.865644931793,13,"updated stim.csv",Version63.csv,"Version 63","List 63",wart,,ON,4.56,2894,1886,BOI,-,-,"Please name all of the ways you could use this object. Keep in mind that one object can have many uses. Separate your responses with a comma.",,y,19563,,,10476,13605,,,,"beauty mark, ",1
w10131848pas,196mdytjz3,"BOI Norms",1,19,2021-11-24T23:13:41+00:00,18.675437927246,13,"updated stim.csv",Version63.csv,"Version 63","List 63",storehouse,,ON,4.5,2551,1867,BOI,-,-,"Please name all of the ways you could use this object. Keep in mind that one object can have many uses. Separate your responses with a comma.",,y,18368,,,3335,8363,,,,"furniture, ",1
w10131848pas,196mdytjz3,"BOI Norms",1,20,2021-11-24T23:13:57+00:00,16.310033082962,13,"updated stim.csv",Version63.csv,"Version 63","List 63",elephant,,ON,4.36,900,1885,BOI,-,-,"Please name all of the ways you could use this object. Keep in mind that one object can have many uses. Separate your responses with a comma.",,y,15865,,,4149,8792,,,,"ride, circus, ",1
w10131848pas,196mdytjz3,"BOI Norms",1,21,2021-11-24T23:14:14+00:00,17.094537973404,13,"updated stim.csv",Version63.csv,"Version 63","List 63",skittles,,ON,5.24,2402,1872,BOI,-,-,"Please name all of the ways you could use this object. Keep in mind that one object can have many uses. Separate your responses with a comma.",,y,16774,,,2595,8804,,,,"eat, bake, ",1
w10131848pas,196mdytjz3,"BOI Norms",1,22,2021-11-24T23:14:42+00:00,27.948590993881,13,"updated stim.csv",Version63.csv,"Version 63","List 63",ruler,,ON,5.25,2205,1863,BOI,-,-,"Please name all of the ways you could use this object. Keep in mind that one object can have many uses. Separate your responses with a comma.",,y,27617,,,2179,19873,,,,"measure, tap someone, ",1
w10131848pas,196mdytjz3,"BOI Norms",1,23,2021-11-24T23:14:53+00:00,10.410577058792,13,"updated stim.csv",Version63.csv,"Version 63","List 63",quill,,ON,4.565217391,2115,1862,BOI,-,-,"Please name all of the ways you could use this object. Keep in mind that one object can have many uses. Separate your responses with a comma.",,y,10116,,,3287,8241,,,,"write, beautiful",1
w10131848pas,196mdytjz3,"BOI Norms",1,24,2021-11-24T23:15:13+00:00,20.475013017654,13,"updated stim.csv",Version63.csv,"Version 63","List 63",kebab,,ON,5.916666667,1402,1888,BOI,-,-,"Please name all of the ways you could use this object. Keep in mind that one object can have many uses. Separate your responses with a comma.",,y,20165,,,3741,17888,,,,"meat, vegetables, eat, grill, bake",1
w10131848pas,196mdytjz3,"BOI Norms",1,25,2021-11-24T23:15:43+00:00,29.616844892502,13,"updated stim.csv",Version63.csv,"Version 63","List 63",servant,,ON,4.782608696,2313,1868,BOI,-,-,"Please name all of the ways you could use this object. Keep in mind that one object can have many uses. Separate your responses with a comma.",,y,29307,,,10146,27667,,,,"clean, laundry, fix food, bring drinks",1
w10131848pas,196mdytjz3,"BOI Norms",1,26,2021-11-24T23:15:57+00:00,14.557698011398,13,"updated stim.csv",Version63.csv,"Version 63","List 63",cafe,,ON,4.772727273,396,1880,BOI,-,-,"Please name all of the ways you could use this object. Keep in mind that one object can have many uses. Separate your responses with a comma.",,y,14256,,,4218,12333,,,,"food, eat, order, take out",1
w10131848pas,196mdytjz3,"BOI Norms",1,27,2021-11-24T23:16:13+00:00,15.534523010254,13,"updated stim.csv",Version63.csv,"Version 63","List 63",grandniece,,ON,4.708333333,1150,1884,BOI,-,-,"Please name all of the ways you could use this object. Keep in mind that one object can have many uses. Separate your responses with a comma.",,y,15221,,,4971,5975,,,,"love, ",1
w10131848pas,196mdytjz3,"BOI Norms",1,28,2021-11-24T23:16:29+00:00,15.671970129013,13,"updated stim.csv",Version63.csv,"Version 63","List 63",passionflower,,ON,4.782608696,1882,1875,BOI,-,-,"Please name all of the ways you could use this object. Keep in mind that one object can have many uses. Separate your responses with a comma.",,y,15369,,,3760,12788,,,,"beautiful, put in a vase, grow",1
w10131848pas,196mdytjz3,"BOI Norms",1,29,2021-11-24T23:16:47+00:00,18.513141870499,13,"updated stim.csv",Version63.csv,"Version 63","List 63",molasses,,ON,5,1675,1871,BOI,-,-,"Please name all of the ways you could use this object. Keep in mind that one object can have many uses. Separate your responses with a comma.",,y,18210,,,3041,16116,,,,"put on pancakes, bake pies, bake cakes",1
w10131848pas,196mdytjz3,"BOI Norms",1,30,2021-11-24T23:17:09+00:00,21.562253952026,13,"updated stim.csv",Version63.csv,"Version 63","List 63",atlas,,ON,5.166666667,93,1889,BOI,-,-,"Please name all of the ways you could use this object. Keep in mind that one object can have many uses. Separate your responses with a comma.",,y,21256,,,2928,19925,,,,"directions, miles, places to eat, get gas",1
w10131848pas,196mdytjz3,"BOI Norms",1,31,2021-11-24T23:17:31+00:00,22.404078960419,13,"updated stim.csv",Version63.csv,"Version 63","List 63",technician,,ON,4.56,2655,1870,BOI,-,-,"Please name all of the ways you could use this object. Keep in mind that one object can have many uses. Separate your responses with a comma.",,y,22093,,,3226,20350,,,,"fix appliances, fix cable, fix internet",1
w10131848pas,196mdytjz3,"BOI Norms",1,32,2021-11-24T23:17:54+00:00,23.006463050842,13,"updated stim.csv",Version63.csv,"Version 63","List 63",ballplayer,,ON,4.56,133,1866,BOI,-,-,"Please name all of the ways you could use this object. Keep in mind that one object can have many uses. Separate your responses with a comma.",,y,22693,,,3383,20651,,,,"bat, pitch, throw ball, catcher",1
w10131848pas,196mdytjz3,"BOI Norms",1,33,2021-11-24T23:18:08+00:00,14.268085002899,13,"updated stim.csv",Version63.csv,"Version 63","List 63",album,,ON,5.791666667,23,1865,BOI,-,-,"Please name all of the ways you could use this object. Keep in mind that one object can have many uses. Separate your responses with a comma.",,y,13962,,,2716,12270,,,,"put pictures, scrapbook",1
w10131848pas,196mdytjz3,"BOI Norms",1,34,2021-11-24T23:18:47+00:00,38.245455026627,13,"updated stim.csv",Version63.csv,"Version 63","List 63",tweezer,,ON,5.272727273,2810,1876,BOI,-,-,"Please name all of the ways you could use this object. Keep in mind that one object can have many uses. Separate your responses with a comma.",,y,37934,,,2344,36585,,,,"tweeze eyebrows, tweeze stray hairs, pull out splinters",1
w10131848pas,196mdytjz3,"BOI Norms",1,35,2021-11-24T23:18:55+00:00,8.3075349330902,13,"updated stim.csv",Version63.csv,"Version 63","List 63",candle,,ON,5.166666667,410,1882,BOI,-,-,"Please name all of the ways you could use this object. Keep in mind that one object can have many uses. Separate your responses with a comma.",,y,7999,,,2589,4143,,,,"light, ",1
w10131848pas,196mdytjz3,"BOI Norms",1,36,2021-11-24T23:19:18+00:00,23.216701030731,13,"updated stim.csv",Version63.csv,"Version 63","List 63",snowman,,ON,4.916666667,2435,1891,BOI,-,-,"Please name all of the ways you could use this object. Keep in mind that one object can have many uses. Separate your responses with a comma.",,y,22942,,,2564,21509,,,,"build a snowman, dress up a snowman, carrot",1
w10131848pas,196mdytjz3,"BOI Norms",1,37,2021-11-24T23:19:43+00:00,25.256544113159,13,"updated stim.csv",Version63.csv,"Version 63","List 63",woodwork,,ON,5.12,2966,1881,BOI,-,-,"Please name all of the ways you could use this object. Keep in mind that one object can have many uses. Separate your responses with a comma.",,y,24975,,,11886,21105,,,,"make things, tables, chairs, ",1
w10131848pas,196mdytjz3,"BOI Norms",1,38,2021-11-24T23:19:54+00:00,10.950417041779,13,"updated stim.csv",Version63.csv,"Version 63","List 63",bunion,,ON,4.36,359,1879,BOI,-,-,"Please name all of the ways you could use this object. Keep in mind that one object can have many uses. Separate your responses with a comma.",,y,10642,,,3428,8775,,,,"painful, remove",1
w10131848pas,196mdytjz3,"BOI Norms",1,39,2021-11-24T23:19:57+00:00,2.8325009346008,13,"updated stim.csv",Version63.csv,"Version 63","List 63",hashish,,ON,4.909090909,1257,1878,BOI,-,-,"Please name all of the ways you could use this object. Keep in mind that one object can have many uses. Separate your responses with a comma.",,y,2533,,,-1,-1,,,,,1
w10131848pas,196mdytjz3,"BOI Norms",1,40,2021-11-24T23:20:01+00:00,3.6823649406433,13,"updated stim.csv",Version63.csv,"Version 63","List 63",plantain,,ON,5.409090909,1990,1883,BOI,-,-,"Please name all of the ways you could use this object. Keep in mind that one object can have many uses. Separate your responses with a comma.",,y,3413,,,-1,-1,,,,,1
w10131848pas,196mdytjz3,"BOI Norms",1,41,2021-11-24T23:20:04+00:00,3.6063129901886,13,"updated stim.csv",Version63.csv,"Version 63","List 63",,,,,,0,Instruct,,,"You will now be asked a few questions about your experience today.",,"Instruct 4",3352,,,-1,-1,,,,,1
