Username,ID,ExperimentName,Session,Trial,Date,TimeDif,"Condition Number","Stimuli File","Order File","Condition Description","Condition Notes",Stimuli*Cue,Stimuli*Answer,Stimuli*Shuffle,"Stimuli*Stimuli Notes",Stimuli*Value,Procedure*Item,"Procedure*Trial Type","Procedure*Max Time","Procedure*Min Time",Procedure*Text,"Procedure*Procedure Notes",Procedure*Shuffle,Response*RT,Response*Response,Response*Accuracy,Response*RTfirst,Response*RTlast,Response*strictAcc,Response*lenientAcc,Response*focus,Response*JOL,Response*Focus
781666KW,n42gs20dyg,"BOI Norms",1,1,2021-12-01T22:21:56+00:00,12.483266830444,16,"updated stim.csv",Version16.csv,"Version 16","List 16",,,,,,0,Instruct,-,10,"In this section, you will be presented with a series of objects. Please name as many possible uses for this object as you can think of by typing them in the box below each object.",,Instruct1,12264,,,-1,-1,,,,,1
781666KW,n42gs20dyg,"BOI Norms",1,2,2021-12-01T22:22:07+00:00,11.278599977493,16,"updated stim.csv",Version16.csv,"Version 16","List 16",,,,,,0,Instruct,-,10,"Please keep in mind that a single object will have more than one use. For example, a ball can be thrown or can be bounced or even stepped on. When listing multiple uses for one object, please separate each use with a comma (i.e., thrown, bounced, stepped on)",,Instruct2,11027,,,-1,-1,,,,,1
781666KW,n42gs20dyg,"BOI Norms",1,3,2021-12-01T22:22:11+00:00,3.8801491260529,16,"updated stim.csv",Version16.csv,"Version 16","List 16",,,,,,0,Instruct,-,-,"Before starting the experiment, you will complete a short practice sesstion. Press ENTER when you are ready to begin.",,Instruct3,3641,,,-1,-1,,,,,1
781666KW,n42gs20dyg,"BOI Norms",1,4,2021-12-01T22:22:26+00:00,15.045516014099,16,"updated stim.csv",Version16.csv,"Version 16","List 16",spaghetti,,3003,6,2461,3004,BOI,-,-,"Please name all of the ways you could use this object. Keep in mind that one object can have many uses. Separate your responses with a comma.",,n,14782,,,4225,7361,,,,"Eat, Art, ",1
781666KW,n42gs20dyg,"BOI Norms",1,5,2021-12-01T22:22:36+00:00,9.8991079330444,16,"updated stim.csv",Version16.csv,"Version 16","List 16",shortening,,3002,4.92,2358,3003,BOI,-,-,"Please name all of the ways you could use this object. Keep in mind that one object can have many uses. Separate your responses with a comma.",,n,9641,,,3158,9278,,,,"Cook, Baking",1
781666KW,n42gs20dyg,"BOI Norms",1,6,2021-12-01T22:22:41+00:00,5.5392389297485,16,"updated stim.csv",Version16.csv,"Version 16","List 16",paperwork,,3001,5.625,1866,3002,BOI,-,-,"Please name all of the ways you could use this object. Keep in mind that one object can have many uses. Separate your responses with a comma.",,n,5270,,,3380,4940,,,,"Art, Work",1
781666KW,n42gs20dyg,"BOI Norms",1,7,2021-12-01T22:22:55+00:00,14.009268045425,16,"updated stim.csv",Version16.csv,"Version 16","List 16",grain,,3004,5.217391304,1143,3005,BOI,-,-,"Please name all of the ways you could use this object. Keep in mind that one object can have many uses. Separate your responses with a comma.",,n,13763,,,9537,13538,,,,"Art, Food, Bread",1
781666KW,n42gs20dyg,"BOI Norms",1,8,2021-12-01T22:23:08+00:00,12.598348140717,16,"updated stim.csv",Version16.csv,"Version 16","List 16",saucer,,3005,5.777777778,2249,3006,BOI,-,-,"Please name all of the ways you could use this object. Keep in mind that one object can have many uses. Separate your responses with a comma.",,n,12350,,,6276,12067,,,,"Teacup, ride at disney",1
781666KW,n42gs20dyg,"BOI Norms",1,9,2021-12-01T22:23:09+00:00,1.3360478878021,16,"updated stim.csv",Version16.csv,"Version 16","List 16",,,,,,0,Instruct,-,-,"You have completed this section. Press ENTER to continue",,"Instruct 5",1102,,,-1,-1,,,,,1
781666KW,n42gs20dyg,"BOI Norms",1,10,2021-12-01T22:23:11+00:00,1.5569319725037,16,"updated stim.csv",Version16.csv,"Version 16","List 16",,,,,,0,Instruct,-,-,"You will now start the full experiment. Press ENTER when you are ready to begin.",,,1333,,,-1,-1,,,,,1
781666KW,n42gs20dyg,"BOI Norms",1,11,2021-12-01T22:23:18+00:00,6.8414440155029,16,"updated stim.csv",Version16.csv,"Version 16","List 16",cocaine,,468,5.913043478,585,469,BOI,-,-,"Please name all of the ways you could use this object. Keep in mind that one object can have many uses. Separate your responses with a comma.",,y,6613,,,1579,6370,,,,"drug, coke",1
781666KW,n42gs20dyg,"BOI Norms",1,12,2021-12-01T22:23:25+00:00,7.6187810897827,16,"updated stim.csv",Version16.csv,"Version 16","List 16",jean,,477,5.956521739,1378,478,BOI,-,-,"Please name all of the ways you could use this object. Keep in mind that one object can have many uses. Separate your responses with a comma.",,y,7373,,,1643,7082,,,,"pants, woman, dna",1
781666KW,n42gs20dyg,"BOI Norms",1,13,2021-12-01T22:23:30+00:00,5.1016609668732,16,"updated stim.csv",Version16.csv,"Version 16","List 16",checklist,,457,4.464285714,501,458,BOI,-,-,"Please name all of the ways you could use this object. Keep in mind that one object can have many uses. Separate your responses with a comma.",,y,4867,,,1386,4569,,,,"walmart, to do",1
781666KW,n42gs20dyg,"BOI Norms",1,14,2021-12-01T22:23:37+00:00,6.6727268695831,16,"updated stim.csv",Version16.csv,"Version 16","List 16",satin,,455,5.125,2246,456,BOI,-,-,"Please name all of the ways you could use this object. Keep in mind that one object can have many uses. Separate your responses with a comma.",,y,6433,,,1769,6256,,,,"fabric, paint type",1
781666KW,n42gs20dyg,"BOI Norms",1,15,2021-12-01T22:23:41+00:00,4.0746710300446,16,"updated stim.csv",Version16.csv,"Version 16","List 16",rupee,,480,4.826086957,2208,481,BOI,-,-,"Please name all of the ways you could use this object. Keep in mind that one object can have many uses. Separate your responses with a comma.",,y,3838,,,2573,3647,,,,"no idea",1
781666KW,n42gs20dyg,"BOI Norms",1,16,2021-12-01T22:23:49+00:00,8.0662410259247,16,"updated stim.csv",Version16.csv,"Version 16","List 16",lip,,463,5.52173913,1521,464,BOI,-,-,"Please name all of the ways you could use this object. Keep in mind that one object can have many uses. Separate your responses with a comma.",,y,7787,,,2954,7593,,,,"kiss, bite, etc",1
781666KW,n42gs20dyg,"BOI Norms",1,17,2021-12-01T22:23:57+00:00,7.7703649997711,16,"updated stim.csv",Version16.csv,"Version 16","List 16",lake,,465,5.035714286,1452,466,BOI,-,-,"Please name all of the ways you could use this object. Keep in mind that one object can have many uses. Separate your responses with a comma.",,y,7415,,,1645,7174,,,,"swin, pond",1
781666KW,n42gs20dyg,"BOI Norms",1,18,2021-12-01T22:23:59+00:00,2.2382521629333,16,"updated stim.csv",Version16.csv,"Version 16","List 16",thigh,,454,5.76,2680,455,BOI,-,-,"Please name all of the ways you could use this object. Keep in mind that one object can have many uses. Separate your responses with a comma.",,y,1955,,,1307,1713,,,,leg,1
781666KW,n42gs20dyg,"BOI Norms",1,19,2021-12-01T22:24:08+00:00,8.5491969585419,16,"updated stim.csv",Version16.csv,"Version 16","List 16",coal,,458,4.875,579,459,BOI,-,-,"Please name all of the ways you could use this object. Keep in mind that one object can have many uses. Separate your responses with a comma.",,y,8250,,,2360,7935,,,,"grill, fire, mining",1
781666KW,n42gs20dyg,"BOI Norms",1,20,2021-12-01T22:24:12+00:00,3.8287699222565,16,"updated stim.csv",Version16.csv,"Version 16","List 16",note,,459,5.434782609,1781,460,BOI,-,-,"Please name all of the ways you could use this object. Keep in mind that one object can have many uses. Separate your responses with a comma.",,y,3560,,,1216,3408,,,,"write, post it",1
781666KW,n42gs20dyg,"BOI Norms",1,21,2021-12-01T22:24:14+00:00,2.3684360980988,16,"updated stim.csv",Version16.csv,"Version 16","List 16",scientist,,456,4.47826087,2274,457,BOI,-,-,"Please name all of the ways you could use this object. Keep in mind that one object can have many uses. Separate your responses with a comma.",,y,2140,,,1419,1987,,,,smart,1
781666KW,n42gs20dyg,"BOI Norms",1,22,2021-12-01T22:24:18+00:00,4.3167538642883,16,"updated stim.csv",Version16.csv,"Version 16","List 16",policewoman,,479,4.904761905,2023,480,BOI,-,-,"Please name all of the ways you could use this object. Keep in mind that one object can have many uses. Separate your responses with a comma.",,y,4069,,,2365,3875,,,,brave,1
781666KW,n42gs20dyg,"BOI Norms",1,23,2021-12-01T22:24:21+00:00,2.6848080158234,16,"updated stim.csv",Version16.csv,"Version 16","List 16",pole,,475,5.32,2020,476,BOI,-,-,"Please name all of the ways you could use this object. Keep in mind that one object can have many uses. Separate your responses with a comma.",,y,2452,,,1507,2074,,,,stick,1
781666KW,n42gs20dyg,"BOI Norms",1,24,2021-12-01T22:24:24+00:00,2.781877040863,16,"updated stim.csv",Version16.csv,"Version 16","List 16",linen,,462,5.875,1517,463,BOI,-,-,"Please name all of the ways you could use this object. Keep in mind that one object can have many uses. Separate your responses with a comma.",,y,2541,,,1572,2203,,,,coat,1
781666KW,n42gs20dyg,"BOI Norms",1,25,2021-12-01T22:24:28+00:00,4.3109180927277,16,"updated stim.csv",Version16.csv,"Version 16","List 16",genital,,464,5.826086957,1095,465,BOI,-,-,"Please name all of the ways you could use this object. Keep in mind that one object can have many uses. Separate your responses with a comma.",,y,4082,,,2907,3778,,,,science,1
781666KW,n42gs20dyg,"BOI Norms",1,26,2021-12-01T22:24:32+00:00,3.6148369312286,16,"updated stim.csv",Version16.csv,"Version 16","List 16",paintbox,,478,4.44,1848,479,BOI,-,-,"Please name all of the ways you could use this object. Keep in mind that one object can have many uses. Separate your responses with a comma.",,y,3385,,,2856,3191,,,,art,1
781666KW,n42gs20dyg,"BOI Norms",1,27,2021-12-01T22:24:37+00:00,5.4002459049225,16,"updated stim.csv",Version16.csv,"Version 16","List 16",mutton,,474,5,1729,475,BOI,-,-,"Please name all of the ways you could use this object. Keep in mind that one object can have many uses. Separate your responses with a comma.",,y,5164,,,1763,4932,,,,"no idea",1
781666KW,n42gs20dyg,"BOI Norms",1,28,2021-12-01T22:24:42+00:00,4.4319939613342,16,"updated stim.csv",Version16.csv,"Version 16","List 16",cellar,,476,4.6,472,477,BOI,-,-,"Please name all of the ways you could use this object. Keep in mind that one object can have many uses. Separate your responses with a comma.",,y,4190,,,1310,4007,,,,"no idea",1
781666KW,n42gs20dyg,"BOI Norms",1,29,2021-12-01T22:24:44+00:00,2.3840870857239,16,"updated stim.csv",Version16.csv,"Version 16","List 16",spatula,,461,5.708333333,2463,462,BOI,-,-,"Please name all of the ways you could use this object. Keep in mind that one object can have many uses. Separate your responses with a comma.",,y,2147,,,1187,1947,,,,cooking,1
781666KW,n42gs20dyg,"BOI Norms",1,30,2021-12-01T22:24:46+00:00,2.4758820533752,16,"updated stim.csv",Version16.csv,"Version 16","List 16",nickel,,467,5.814814815,1766,468,BOI,-,-,"Please name all of the ways you could use this object. Keep in mind that one object can have many uses. Separate your responses with a comma.",,y,2005,,,1421,1740,,,,coin,1
781666KW,n42gs20dyg,"BOI Norms",1,31,2021-12-01T22:24:49+00:00,2.2866609096527,16,"updated stim.csv",Version16.csv,"Version 16","List 16",raindrop,,460,5.208333333,2131,461,BOI,-,-,"Please name all of the ways you could use this object. Keep in mind that one object can have many uses. Separate your responses with a comma.",,y,2059,,,1579,1858,,,,wet,1
781666KW,n42gs20dyg,"BOI Norms",1,32,2021-12-01T22:24:55+00:00,5.9467930793762,16,"updated stim.csv",Version16.csv,"Version 16","List 16",stoop,,473,4.5,2548,474,BOI,-,-,"Please name all of the ways you could use this object. Keep in mind that one object can have many uses. Separate your responses with a comma.",,y,5717,,,4733,5323,,,,step,1
781666KW,n42gs20dyg,"BOI Norms",1,33,2021-12-01T22:24:57+00:00,2.7170190811157,16,"updated stim.csv",Version16.csv,"Version 16","List 16",apprentice,,466,4.321428571,65,467,BOI,-,-,"Please name all of the ways you could use this object. Keep in mind that one object can have many uses. Separate your responses with a comma.",,y,2480,,,1352,2222,,,,worker,1
781666KW,n42gs20dyg,"BOI Norms",1,34,2021-12-01T22:25:04+00:00,6.2394559383392,16,"updated stim.csv",Version16.csv,"Version 16","List 16",easel,,470,4.72,885,471,BOI,-,-,"Please name all of the ways you could use this object. Keep in mind that one object can have many uses. Separate your responses with a comma.",,y,6014,,,5558,5876,,,,art,1
781666KW,n42gs20dyg,"BOI Norms",1,35,2021-12-01T22:25:06+00:00,2.2597088813782,16,"updated stim.csv",Version16.csv,"Version 16","List 16",sardine,,453,4.869565217,2242,454,BOI,-,-,"Please name all of the ways you could use this object. Keep in mind that one object can have many uses. Separate your responses with a comma.",,y,2015,,,1463,1815,,,,fish,1
781666KW,n42gs20dyg,"BOI Norms",1,36,2021-12-01T22:25:09+00:00,3.3188819885254,16,"updated stim.csv",Version16.csv,"Version 16","List 16",paraphernalia,,472,4.5,1871,473,BOI,-,-,"Please name all of the ways you could use this object. Keep in mind that one object can have many uses. Separate your responses with a comma.",,y,3053,,,1741,2716,,,,drug,1
781666KW,n42gs20dyg,"BOI Norms",1,37,2021-12-01T22:25:12+00:00,2.8452711105347,16,"updated stim.csv",Version16.csv,"Version 16","List 16",bayonet,,471,4.916666667,174,472,BOI,-,-,"Please name all of the ways you could use this object. Keep in mind that one object can have many uses. Separate your responses with a comma.",,y,2600,,,1591,2367,,,,"no idea",1
781666KW,n42gs20dyg,"BOI Norms",1,38,2021-12-01T22:25:15+00:00,2.6384360790253,16,"updated stim.csv",Version16.csv,"Version 16","List 16",soap,,452,6.434782609,2437,453,BOI,-,-,"Please name all of the ways you could use this object. Keep in mind that one object can have many uses. Separate your responses with a comma.",,y,2363,,,1379,2129,,,,wash,1
781666KW,n42gs20dyg,"BOI Norms",1,39,2021-12-01T22:25:18+00:00,3.3286278247833,16,"updated stim.csv",Version16.csv,"Version 16","List 16",collar,,469,5.12,600,470,BOI,-,-,"Please name all of the ways you could use this object. Keep in mind that one object can have many uses. Separate your responses with a comma.",,y,3050,,,1690,2800,,,,necklace,1
781666KW,n42gs20dyg,"BOI Norms",1,40,2021-12-01T22:25:20+00:00,2.4003570079803,16,"updated stim.csv",Version16.csv,"Version 16","List 16",mortician,,451,4.833333333,1686,452,BOI,-,-,"Please name all of the ways you could use this object. Keep in mind that one object can have many uses. Separate your responses with a comma.",,y,2159,,,1343,1917,,,,dead,1
781666KW,n42gs20dyg,"BOI Norms",1,41,2021-12-01T22:25:22+00:00,1.9027590751648,16,"updated stim.csv",Version16.csv,"Version 16","List 16",,,,,,0,Instruct,,,"You will now be asked a few questions about your experience today.",,"Instruct 4",1655,,,-1,-1,,,,,1
