Username,ID,ExperimentName,Session,Trial,Date,TimeDif,"Condition Number","Stimuli File","Order File","Condition Description","Condition Notes",Stimuli*Cue,Stimuli*Answer,Stimuli*Shuffle,"Stimuli*Stimuli Notes",Stimuli*Value,Procedure*Item,"Procedure*Trial Type","Procedure*Max Time","Procedure*Min Time",Procedure*Text,"Procedure*Procedure Notes",Procedure*Shuffle,Response*RT,Response*Response,Response*Accuracy,Response*RTfirst,Response*RTlast,Response*strictAcc,Response*lenientAcc,Response*focus,Response*JOL,Response*Focus
10066011BB,ntpnqkczha,"BOI Norms",1,1,2021-11-27T04:30:21+00:00,11.890160083771,14,"updated stim.csv",Version89.csv,"Version 89","List 89",,,,,,0,Instruct,-,10,"In this section, you will be presented with a series of objects. Please name as many possible uses for this object as you can think of by typing them in the box below each object.",,Instruct1,11782,,,-1,-1,,,,,1
10066011BB,ntpnqkczha,"BOI Norms",1,2,2021-11-27T04:30:39+00:00,17.252686977386,14,"updated stim.csv",Version89.csv,"Version 89","List 89",,,,,,0,Instruct,-,10,"Please keep in mind that a single object will have more than one use. For example, a ball can be thrown or can be bounced or even stepped on. When listing multiple uses for one object, please separate each use with a comma (i.e., thrown, bounced, stepped on)",,Instruct2,17090,,,-1,-1,,,,,1
10066011BB,ntpnqkczha,"BOI Norms",1,3,2021-11-27T04:30:42+00:00,3.1216659545898,14,"updated stim.csv",Version89.csv,"Version 89","List 89",,,,,,0,Instruct,-,-,"Before starting the experiment, you will complete a short practice sesstion. Press ENTER when you are ready to begin.",,Instruct3,2966,,,-1,-1,,,,,1
10066011BB,ntpnqkczha,"BOI Norms",1,4,2021-11-27T04:31:06+00:00,24.407899141312,14,"updated stim.csv",Version89.csv,"Version 89","List 89","Picture Frame",,Practice,,3002,3004,BOI,-,-,"Please name all of the ways you could use this object. Keep in mind that one object can have many uses. Separate your responses with a comma.",,n,24265,,,2563,22644,,,,"holding pictures, holding awards",1
10066011BB,ntpnqkczha,"BOI Norms",1,5,2021-11-27T04:31:16+00:00,9.3731617927551,14,"updated stim.csv",Version89.csv,"Version 89","List 89",Taco,,Practice,,3005,3002,BOI,-,-,"Please name all of the ways you could use this object. Keep in mind that one object can have many uses. Separate your responses with a comma.",,n,9213,,,2290,3973,,,,ate,1
10066011BB,ntpnqkczha,"BOI Norms",1,6,2021-11-27T04:31:26+00:00,10.333123207092,14,"updated stim.csv",Version89.csv,"Version 89","List 89",Swan,,Practice,,3004,3006,BOI,-,-,"Please name all of the ways you could use this object. Keep in mind that one object can have many uses. Separate your responses with a comma.",,n,10180,,,2892,8606,,,,"looked at, pet",1
10066011BB,ntpnqkczha,"BOI Norms",1,7,2021-11-27T04:31:30+00:00,3.6568229198456,14,"updated stim.csv",Version89.csv,"Version 89","List 89",Donut,,Practice,,3003,3005,BOI,-,-,"Please name all of the ways you could use this object. Keep in mind that one object can have many uses. Separate your responses with a comma.",,n,3515,,,1609,2396,,,,ate,1
10066011BB,ntpnqkczha,"BOI Norms",1,8,2021-11-27T04:31:32+00:00,2.9183900356293,14,"updated stim.csv",Version89.csv,"Version 89","List 89",Cheeseburger,,Practice,,3001,3003,BOI,-,-,"Please name all of the ways you could use this object. Keep in mind that one object can have many uses. Separate your responses with a comma.",,n,2774,,,1105,1740,,,,ate,1
10066011BB,ntpnqkczha,"BOI Norms",1,9,2021-11-27T04:31:35+00:00,2.218554019928,14,"updated stim.csv",Version89.csv,"Version 89","List 89",,,,,,0,Instruct,-,-,"You have completed this section. Press ENTER to continue",,"Instruct 5",2081,,,-1,-1,,,,,1
10066011BB,ntpnqkczha,"BOI Norms",1,10,2021-11-27T04:31:36+00:00,1.2786958217621,14,"updated stim.csv",Version89.csv,"Version 89","List 89",,,,,,0,Instruct,-,-,"You will now start the full experiment. Press ENTER when you are ready to begin.",,,1139,,,-1,-1,,,,,1
10066011BB,ntpnqkczha,"BOI Norms",1,11,2021-11-27T04:31:47+00:00,11.369675159454,14,"updated stim.csv",Version89.csv,"Version 89","List 89",journalist,,ON,4.5,1391,2649,BOI,-,-,"Please name all of the ways you could use this object. Keep in mind that one object can have many uses. Separate your responses with a comma.",,y,11230,,,3167,10083,,,,"hired, talked to",1
10066011BB,ntpnqkczha,"BOI Norms",1,12,2021-11-27T04:32:05+00:00,17.586853027344,14,"updated stim.csv",Version89.csv,"Version 89","List 89",appendage,,ON,5,59,2650,BOI,-,-,"Please name all of the ways you could use this object. Keep in mind that one object can have many uses. Separate your responses with a comma.",,y,17436,,,7317,15232,,,,"looked at",0.886
10066011BB,ntpnqkczha,"BOI Norms",1,13,2021-11-27T04:32:22+00:00,17.330922842026,14,"updated stim.csv",Version89.csv,"Version 89","List 89",plate,,ON,5.590909091,1996,2647,BOI,-,-,"Please name all of the ways you could use this object. Keep in mind that one object can have many uses. Separate your responses with a comma.",,y,17174,,,2441,15830,,,,"broke, hold food, placed",1
10066011BB,ntpnqkczha,"BOI Norms",1,14,2021-11-27T04:32:30+00:00,7.6868109703064,14,"updated stim.csv",Version89.csv,"Version 89","List 89",bangle,,ON,5.115384615,139,2669,BOI,-,-,"Please name all of the ways you could use this object. Keep in mind that one object can have many uses. Separate your responses with a comma.",,y,7247,,,3458,5838,,,,"looked at",1
10066011BB,ntpnqkczha,"BOI Norms",1,15,2021-11-27T04:32:37+00:00,7.5040950775146,14,"updated stim.csv",Version89.csv,"Version 89","List 89",bubble,,ON,4.64,339,2654,BOI,-,-,"Please name all of the ways you could use this object. Keep in mind that one object can have many uses. Separate your responses with a comma.",,y,7360,,,2433,6622,,,,"blown, popped",1
10066011BB,ntpnqkczha,"BOI Norms",1,16,2021-11-27T04:32:44+00:00,6.4903030395508,14,"updated stim.csv",Version89.csv,"Version 89","List 89",lollipop,,ON,6.48,1545,2643,BOI,-,-,"Please name all of the ways you could use this object. Keep in mind that one object can have many uses. Separate your responses with a comma.",,y,6343,,,1540,4827,,,,"ate, held",1
10066011BB,ntpnqkczha,"BOI Norms",1,17,2021-11-27T04:32:55+00:00,10.725986003876,14,"updated stim.csv",Version89.csv,"Version 89","List 89",placard,,ON,4.458333333,1983,2651,BOI,-,-,"Please name all of the ways you could use this object. Keep in mind that one object can have many uses. Separate your responses with a comma.",,y,10587,,,2555,9192,,,,"looked at, touched",1
10066011BB,ntpnqkczha,"BOI Norms",1,18,2021-11-27T04:33:00+00:00,5.8014888763428,14,"updated stim.csv",Version89.csv,"Version 89","List 89",apricot,,ON,6.291666667,66,2645,BOI,-,-,"Please name all of the ways you could use this object. Keep in mind that one object can have many uses. Separate your responses with a comma.",,y,5662,,,1434,4457,,,,"ate, held",1
10066011BB,ntpnqkczha,"BOI Norms",1,19,2021-11-27T04:33:25+00:00,24.398652076721,14,"updated stim.csv",Version89.csv,"Version 89","List 89",mansion,,ON,4.52173913,1593,2646,BOI,-,-,"Please name all of the ways you could use this object. Keep in mind that one object can have many uses. Separate your responses with a comma.",,y,24216,,,1820,22946,,,,"lived in, rented, looked at, visited",1
10066011BB,ntpnqkczha,"BOI Norms",1,20,2021-11-27T04:34:02+00:00,37.545346021652,14,"updated stim.csv",Version89.csv,"Version 89","List 89",fruitcake,,ON,6,1061,2657,BOI,-,-,"Please name all of the ways you could use this object. Keep in mind that one object can have many uses. Separate your responses with a comma.",,y,37385,,,33191,36251,,,,"ate, made",1
10066011BB,ntpnqkczha,"BOI Norms",1,21,2021-11-27T04:34:09+00:00,6.4631969928741,14,"updated stim.csv",Version89.csv,"Version 89","List 89",democrat,,ON,4.416666667,771,2668,BOI,-,-,"Please name all of the ways you could use this object. Keep in mind that one object can have many uses. Separate your responses with a comma.",,y,6174,,,2023,5216,,,,"talked to",1
10066011BB,ntpnqkczha,"BOI Norms",1,22,2021-11-27T04:35:24+00:00,74.643165111542,14,"updated stim.csv",Version89.csv,"Version 89","List 89",mouthwash,,ON,6.230769231,1707,2642,BOI,-,-,"Please name all of the ways you could use this object. Keep in mind that one object can have many uses. Separate your responses with a comma.",,y,74397,,,1929,72631,,,,"swallowed, spit, tasted",1
10066011BB,ntpnqkczha,"BOI Norms",1,23,2021-11-27T04:35:35+00:00,11.264307975769,14,"updated stim.csv",Version89.csv,"Version 89","List 89",gingerbread,,ON,5.48,1105,2648,BOI,-,-,"Please name all of the ways you could use this object. Keep in mind that one object can have many uses. Separate your responses with a comma.",,y,11099,,,1403,10416,,,,"ate, formed to house, broke",1
10066011BB,ntpnqkczha,"BOI Norms",1,24,2021-11-27T04:36:03+00:00,27.973503828049,14,"updated stim.csv",Version89.csv,"Version 89","List 89",portrait,,ON,4.272727273,2040,2665,BOI,-,-,"Please name all of the ways you could use this object. Keep in mind that one object can have many uses. Separate your responses with a comma.",,y,27814,,,1720,26258,,,,"painted, taken of, drawn, gave to someone",1
10066011BB,ntpnqkczha,"BOI Norms",1,25,2021-11-27T04:36:12+00:00,9.2152180671692,14,"updated stim.csv",Version89.csv,"Version 89","List 89",raisin,,ON,5.64,2134,2658,BOI,-,-,"Please name all of the ways you could use this object. Keep in mind that one object can have many uses. Separate your responses with a comma.",,y,9062,,,1654,8416,,,,"ate, thrown away",1
10066011BB,ntpnqkczha,"BOI Norms",1,26,2021-11-27T04:36:19+00:00,7.2991991043091,14,"updated stim.csv",Version89.csv,"Version 89","List 89",quadriceps,,ON,4.5,2109,2661,BOI,-,-,"Please name all of the ways you could use this object. Keep in mind that one object can have many uses. Separate your responses with a comma.",,y,7150,,,2963,6589,,,,"formed, hurt",1
10066011BB,ntpnqkczha,"BOI Norms",1,27,2021-11-27T04:36:25+00:00,5.6315948963165,14,"updated stim.csv",Version89.csv,"Version 89","List 89",pupil,,ON,4.8,2102,2671,BOI,-,-,"Please name all of the ways you could use this object. Keep in mind that one object can have many uses. Separate your responses with a comma.",,y,5486,,,1936,4629,,,,dialated,1
10066011BB,ntpnqkczha,"BOI Norms",1,28,2021-11-27T04:36:29+00:00,4.4775359630585,14,"updated stim.csv",Version89.csv,"Version 89","List 89",pacemaker,,ON,4.363636364,1835,2653,BOI,-,-,"Please name all of the ways you could use this object. Keep in mind that one object can have many uses. Separate your responses with a comma.",,y,4331,,,2425,3750,,,,injured,1
10066011BB,ntpnqkczha,"BOI Norms",1,29,2021-11-27T04:36:35+00:00,5.7824621200562,14,"updated stim.csv",Version89.csv,"Version 89","List 89",rum,,ON,5.64,2206,2652,BOI,-,-,"Please name all of the ways you could use this object. Keep in mind that one object can have many uses. Separate your responses with a comma.",,y,5637,,,3940,5153,,,,drank,1
10066011BB,ntpnqkczha,"BOI Norms",1,30,2021-11-27T04:36:49+00:00,13.530520915985,14,"updated stim.csv",Version89.csv,"Version 89","List 89",sheepdog,,ON,5.375,2329,2667,BOI,-,-,"Please name all of the ways you could use this object. Keep in mind that one object can have many uses. Separate your responses with a comma.",,y,13381,,,8081,12117,,,,"pet,owned",1
10066011BB,ntpnqkczha,"BOI Norms",1,31,2021-11-27T04:36:56+00:00,7.3496589660645,14,"updated stim.csv",Version89.csv,"Version 89","List 89",applicator,,ON,5.185185185,63,2664,BOI,-,-,"Please name all of the ways you could use this object. Keep in mind that one object can have many uses. Separate your responses with a comma.",,y,7206,,,2371,6587,,,,"used to apply",1
10066011BB,ntpnqkczha,"BOI Norms",1,32,2021-11-27T04:37:05+00:00,9.4111471176147,14,"updated stim.csv",Version89.csv,"Version 89","List 89",crystal,,ON,4.37037037,720,2656,BOI,-,-,"Please name all of the ways you could use this object. Keep in mind that one object can have many uses. Separate your responses with a comma.",,y,9266,,,3159,8592,,,,"looked at, collected",1
10066011BB,ntpnqkczha,"BOI Norms",1,33,2021-11-27T04:37:27+00:00,21.071957826614,14,"updated stim.csv",Version89.csv,"Version 89","List 89",viewfinder,,ON,4.916666667,2857,2659,BOI,-,-,"Please name all of the ways you could use this object. Keep in mind that one object can have many uses. Separate your responses with a comma.",,y,20918,,,18216,20325,,,,locator,1
10066011BB,ntpnqkczha,"BOI Norms",1,34,2021-11-27T04:37:41+00:00,14.501385211945,14,"updated stim.csv",Version89.csv,"Version 89","List 89",pet,,ON,6.214285714,1932,2655,BOI,-,-,"Please name all of the ways you could use this object. Keep in mind that one object can have many uses. Separate your responses with a comma.",,y,14346,,,1730,6341,,,,"owned, pet, ",1
10066011BB,ntpnqkczha,"BOI Norms",1,35,2021-11-27T04:37:50+00:00,8.58256483078,14,"updated stim.csv",Version89.csv,"Version 89","List 89",tailcoat,,ON,5.47826087,2624,2670,BOI,-,-,"Please name all of the ways you could use this object. Keep in mind that one object can have many uses. Separate your responses with a comma.",,y,8435,,,4671,7851,,,,worn,1
10066011BB,ntpnqkczha,"BOI Norms",1,36,2021-11-27T04:38:06+00:00,16.306020975113,14,"updated stim.csv",Version89.csv,"Version 89","List 89",file,,ON,5.041666667,974,2660,BOI,-,-,"Please name all of the ways you could use this object. Keep in mind that one object can have many uses. Separate your responses with a comma.",,y,16149,,,2312,9158,,,,"looked at, made",1
10066011BB,ntpnqkczha,"BOI Norms",1,37,2021-11-27T04:38:15+00:00,8.7511560916901,14,"updated stim.csv",Version89.csv,"Version 89","List 89",sleigh,,ON,4.84,2410,2666,BOI,-,-,"Please name all of the ways you could use this object. Keep in mind that one object can have many uses. Separate your responses with a comma.",,y,8342,,,1968,7653,,,,"rode, bought",1
10066011BB,ntpnqkczha,"BOI Norms",1,38,2021-11-27T04:38:19+00:00,4.1368389129639,14,"updated stim.csv",Version89.csv,"Version 89","List 89",rosary,,ON,5.791666667,2193,2644,BOI,-,-,"Please name all of the ways you could use this object. Keep in mind that one object can have many uses. Separate your responses with a comma.",,y,3996,,,2081,3466,,,,worn,1
10066011BB,ntpnqkczha,"BOI Norms",1,39,2021-11-27T04:38:51+00:00,32.448080062866,14,"updated stim.csv",Version89.csv,"Version 89","List 89",pullover,,ON,4.56,2093,2663,BOI,-,-,"Please name all of the ways you could use this object. Keep in mind that one object can have many uses. Separate your responses with a comma.",,y,32299,,,2687,11698,,,,"worn, bought",1
10066011BB,ntpnqkczha,"BOI Norms",1,40,2021-11-27T04:39:04+00:00,12.376915931702,14,"updated stim.csv",Version89.csv,"Version 89","List 89",woodpecker,,ON,4.833333333,2961,2662,BOI,-,-,"Please name all of the ways you could use this object. Keep in mind that one object can have many uses. Separate your responses with a comma.",,y,12148,,,3159,10917,,,,"looked at, peck wood",1
10066011BB,ntpnqkczha,"BOI Norms",1,41,2021-11-27T04:39:06+00:00,2.5477910041809,14,"updated stim.csv",Version89.csv,"Version 89","List 89",,,,,,0,Instruct,,,"You will now be asked a few questions about your experience today.",,"Instruct 4",2395,,,-1,-1,,,,,1
