Username,ID,ExperimentName,Session,Trial,Date,TimeDif,"Condition Number","Stimuli File","Order File","Condition Description","Condition Notes",Stimuli*Cue,Stimuli*Answer,Stimuli*Shuffle,"Stimuli*Stimuli Notes",Stimuli*Value,Procedure*Item,"Procedure*Trial Type","Procedure*Max Time","Procedure*Min Time",Procedure*Text,"Procedure*Procedure Notes",Procedure*Shuffle,Response*RT,Response*Response,Response*Accuracy,Response*RTfirst,Response*RTlast,Response*strictAcc,Response*lenientAcc,Response*focus,Response*JOL,Response*Focus
W10054029_chl,yb0wngaxwu,"BOI Norms",1,1,2022-01-10T05:41:51+00:00,11.938728094101,8,"updated stim.csv",Version8.csv,"Version 8","List 8",,,,,,0,Instruct,-,10,"In this section, you will be presented with a series of objects. Please name as many possible uses for this object as you can think of by typing them in the box below each object.",,Instruct1,11775,,,-1,-1,,,,,1
W10054029_chl,yb0wngaxwu,"BOI Norms",1,2,2022-01-10T05:42:04+00:00,13.208788871765,8,"updated stim.csv",Version8.csv,"Version 8","List 8",,,,,,0,Instruct,-,10,"Please keep in mind that a single object will have more than one use. For example, a ball can be thrown or can be bounced or even stepped on. When listing multiple uses for one object, please separate each use with a comma (i.e., thrown, bounced, stepped on)",,Instruct2,12981,,,-1,-1,,,,,1
W10054029_chl,yb0wngaxwu,"BOI Norms",1,3,2022-01-10T05:42:10+00:00,5.947282075882,8,"updated stim.csv",Version8.csv,"Version 8","List 8",,,,,,0,Instruct,-,-,"Before starting the experiment, you will complete a short practice sesstion. Press ENTER when you are ready to begin.",,Instruct3,5738,,,-1,-1,,,,,1
W10054029_chl,yb0wngaxwu,"BOI Norms",1,4,2022-01-10T05:42:28+00:00,17.730577945709,8,"updated stim.csv",Version8.csv,"Version 8","List 8",spaghetti,,3003,6,2461,3004,BOI,-,-,"Please name all of the ways you could use this object. Keep in mind that one object can have many uses. Separate your responses with a comma.",,n,17518,,,3741,16056,,,,"cooked, eaten",1
W10054029_chl,yb0wngaxwu,"BOI Norms",1,5,2022-01-10T05:42:45+00:00,17.396461009979,8,"updated stim.csv",Version8.csv,"Version 8","List 8",saucer,,3005,5.777777778,2249,3006,BOI,-,-,"Please name all of the ways you could use this object. Keep in mind that one object can have many uses. Separate your responses with a comma.",,n,17052,,,6228,13900,,,,"hold food, thrown",1
W10054029_chl,yb0wngaxwu,"BOI Norms",1,6,2022-01-10T05:43:19+00:00,33.431766986847,8,"updated stim.csv",Version8.csv,"Version 8","List 8",paperwork,,3001,5.625,1866,3002,BOI,-,-,"Please name all of the ways you could use this object. Keep in mind that one object can have many uses. Separate your responses with a comma.",,n,33114,,,3023,28804,,,,"organize, keep busy, completed, turned-in, anaylized, ",0.994
W10054029_chl,yb0wngaxwu,"BOI Norms",1,7,2022-01-10T05:43:33+00:00,14.290503978729,8,"updated stim.csv",Version8.csv,"Version 8","List 8",grain,,3004,5.217391304,1143,3005,BOI,-,-,"Please name all of the ways you could use this object. Keep in mind that one object can have many uses. Separate your responses with a comma.",,n,14068,,,5857,13161,,,,"eaten, sold, compressed",1
W10054029_chl,yb0wngaxwu,"BOI Norms",1,8,2022-01-10T05:44:04+00:00,31.543715000153,8,"updated stim.csv",Version8.csv,"Version 8","List 8",shortening,,3002,4.92,2358,3003,BOI,-,-,"Please name all of the ways you could use this object. Keep in mind that one object can have many uses. Separate your responses with a comma.",,n,31308,,,15736,30346,,,,"briefing, summarizing",0.994
W10054029_chl,yb0wngaxwu,"BOI Norms",1,9,2022-01-10T05:44:06+00:00,1.8715410232544,8,"updated stim.csv",Version8.csv,"Version 8","List 8",,,,,,0,Instruct,-,-,"You have completed this section. Press ENTER to continue",,"Instruct 5",1656,,,-1,-1,,,,,1
W10054029_chl,yb0wngaxwu,"BOI Norms",1,10,2022-01-10T05:44:09+00:00,2.2192239761353,8,"updated stim.csv",Version8.csv,"Version 8","List 8",,,,,,0,Instruct,-,-,"You will now start the full experiment. Press ENTER when you are ready to begin.",,,2007,,,-1,-1,,,,,1
W10054029_chl,yb0wngaxwu,"BOI Norms",1,11,2022-01-10T05:44:23+00:00,14.75156211853,8,"updated stim.csv",Version8.csv,"Version 8","List 8",torchlight,,219,4.64,2738,220,BOI,-,-,"Please name all of the ways you could use this object. Keep in mind that one object can have many uses. Separate your responses with a comma.",,y,14534,,,2902,13474,,,,"cook, see, guide, light",1
W10054029_chl,yb0wngaxwu,"BOI Norms",1,12,2022-01-10T05:44:39+00:00,16.210569858551,8,"updated stim.csv",Version8.csv,"Version 8","List 8",case,,232,4.272727273,445,233,BOI,-,-,"Please name all of the ways you could use this object. Keep in mind that one object can have many uses. Separate your responses with a comma.",,y,15966,,,2353,15015,,,,"hold, carry, roll, use, storage",1
W10054029_chl,yb0wngaxwu,"BOI Norms",1,13,2022-01-10T05:45:11+00:00,31.879578113556,8,"updated stim.csv",Version8.csv,"Version 8","List 8",matter,,235,4.4,1625,236,BOI,-,-,"Please name all of the ways you could use this object. Keep in mind that one object can have many uses. Separate your responses with a comma.",,y,31629,,,9142,30537,,,,"eat, wear, use, touch, see, taste, smell",1
W10054029_chl,yb0wngaxwu,"BOI Norms",1,14,2022-01-10T05:45:25+00:00,13.405901908875,8,"updated stim.csv",Version8.csv,"Version 8","List 8",beef,,217,5.714285714,189,218,BOI,-,-,"Please name all of the ways you could use this object. Keep in mind that one object can have many uses. Separate your responses with a comma.",,y,13172,,,1556,11550,,,,"eat, cook, grill, smell",1
W10054029_chl,yb0wngaxwu,"BOI Norms",1,15,2022-01-10T05:46:04+00:00,39.700304985046,8,"updated stim.csv",Version8.csv,"Version 8","List 8",phalanges,,226,4.35,1937,227,BOI,-,-,"Please name all of the ways you could use this object. Keep in mind that one object can have many uses. Separate your responses with a comma.",,y,39466,,,18462,34839,,,,"grab, poke, touch, hit, break, scrath",0.995
W10054029_chl,yb0wngaxwu,"BOI Norms",1,16,2022-01-10T05:46:27+00:00,22.932732105255,8,"updated stim.csv",Version8.csv,"Version 8","List 8",motel,,221,4.48,1689,222,BOI,-,-,"Please name all of the ways you could use this object. Keep in mind that one object can have many uses. Separate your responses with a comma.",,y,22689,,,7407,21794,,,,"rest, sleep, shower, bathroom",1
W10054029_chl,yb0wngaxwu,"BOI Norms",1,17,2022-01-10T05:46:36+00:00,8.7925510406494,8,"updated stim.csv",Version8.csv,"Version 8","List 8",pantry,,216,5.260869565,1860,217,BOI,-,-,"Please name all of the ways you could use this object. Keep in mind that one object can have many uses. Separate your responses with a comma.",,y,8561,,,1732,7767,,,,storage,1
W10054029_chl,yb0wngaxwu,"BOI Norms",1,18,2022-01-10T05:46:53+00:00,17.225739955902,8,"updated stim.csv",Version8.csv,"Version 8","List 8",avocado,,220,6.24137931,103,221,BOI,-,-,"Please name all of the ways you could use this object. Keep in mind that one object can have many uses. Separate your responses with a comma.",,y,16997,,,2416,16347,,,,"eat, spread, savor, enjoy",1
W10054029_chl,yb0wngaxwu,"BOI Norms",1,19,2022-01-10T05:47:12+00:00,19.035187005997,8,"updated stim.csv",Version8.csv,"Version 8","List 8",body,,234,6.038461538,260,235,BOI,-,-,"Please name all of the ways you could use this object. Keep in mind that one object can have many uses. Separate your responses with a comma.",,y,18796,,,2434,18097,,,,"grow, work, play, hurt",1
W10054029_chl,yb0wngaxwu,"BOI Norms",1,20,2022-01-10T05:47:22+00:00,9.9731640815735,8,"updated stim.csv",Version8.csv,"Version 8","List 8",roll,,212,4.44,2187,213,BOI,-,-,"Please name all of the ways you could use this object. Keep in mind that one object can have many uses. Separate your responses with a comma.",,y,9735,,,3564,8933,,,,"open, eat, fill",1
W10054029_chl,yb0wngaxwu,"BOI Norms",1,21,2022-01-10T05:47:30+00:00,7.0901329517365,8,"updated stim.csv",Version8.csv,"Version 8","List 8",plum,,238,5.62962963,2010,239,BOI,-,-,"Please name all of the ways you could use this object. Keep in mind that one object can have many uses. Separate your responses with a comma.",,y,6846,,,2551,5988,,,,"pick, eat",1
W10054029_chl,yb0wngaxwu,"BOI Norms",1,22,2022-01-10T05:47:37+00:00,7.3981139659882,8,"updated stim.csv",Version8.csv,"Version 8","List 8",tailcoat,,240,5.47826087,2624,241,BOI,-,-,"Please name all of the ways you could use this object. Keep in mind that one object can have many uses. Separate your responses with a comma.",,y,7126,,,3135,6092,,,,"tuck, see",1
W10054029_chl,yb0wngaxwu,"BOI Norms",1,23,2022-01-10T05:47:59+00:00,21.75115609169,8,"updated stim.csv",Version8.csv,"Version 8","List 8",excavator,,224,4.409090909,925,225,BOI,-,-,"Please name all of the ways you could use this object. Keep in mind that one object can have many uses. Separate your responses with a comma.",,y,21524,,,17409,20672,,,,"dig, remove",1
W10054029_chl,yb0wngaxwu,"BOI Norms",1,24,2022-01-10T05:48:07+00:00,8.4525158405304,8,"updated stim.csv",Version8.csv,"Version 8","List 8",ashcan,,237,4.571428571,82,238,BOI,-,-,"Please name all of the ways you could use this object. Keep in mind that one object can have many uses. Separate your responses with a comma.",,y,8233,,,2406,7349,,,,"store, place",1
W10054029_chl,yb0wngaxwu,"BOI Norms",1,25,2022-01-10T05:48:20+00:00,12.811992168427,8,"updated stim.csv",Version8.csv,"Version 8","List 8",seating,,214,4.84,2302,215,BOI,-,-,"Please name all of the ways you could use this object. Keep in mind that one object can have many uses. Separate your responses with a comma.",,y,12565,,,6930,11304,,,,"sit, gather",1
W10054029_chl,yb0wngaxwu,"BOI Norms",1,26,2022-01-10T05:48:43+00:00,23.554892778397,8,"updated stim.csv",Version8.csv,"Version 8","List 8",accordion,,227,5.826086957,5,228,BOI,-,-,"Please name all of the ways you could use this object. Keep in mind that one object can have many uses. Separate your responses with a comma.",,y,23330,,,15015,22153,,,,"play, practice, use",1
W10054029_chl,yb0wngaxwu,"BOI Norms",1,27,2022-01-10T05:49:01+00:00,17.053004026413,8,"updated stim.csv",Version8.csv,"Version 8","List 8",arrow,,213,4.92,76,214,BOI,-,-,"Please name all of the ways you could use this object. Keep in mind that one object can have many uses. Separate your responses with a comma.",,y,16809,,,2207,15717,,,,"shoot, retrieve, view, make, break",1
W10054029_chl,yb0wngaxwu,"BOI Norms",1,28,2022-01-10T05:49:22+00:00,21.50562620163,8,"updated stim.csv",Version8.csv,"Version 8","List 8",client,,231,4.545454545,558,232,BOI,-,-,"Please name all of the ways you could use this object. Keep in mind that one object can have many uses. Separate your responses with a comma.",,y,21269,,,2905,20526,,,,"support, help, sell, assist",1
W10054029_chl,yb0wngaxwu,"BOI Norms",1,29,2022-01-10T05:49:35+00:00,13.42597079277,8,"updated stim.csv",Version8.csv,"Version 8","List 8",shelter,,236,5.269230769,2335,237,BOI,-,-,"Please name all of the ways you could use this object. Keep in mind that one object can have many uses. Separate your responses with a comma.",,y,13201,,,2418,12443,,,,"use, rebuild, want",1
W10054029_chl,yb0wngaxwu,"BOI Norms",1,30,2022-01-10T05:49:47+00:00,11.93075799942,8,"updated stim.csv",Version8.csv,"Version 8","List 8",hoe,,233,5.545454545,1294,234,BOI,-,-,"Please name all of the ways you could use this object. Keep in mind that one object can have many uses. Separate your responses with a comma.",,y,11701,,,2624,11043,,,,"farm, dig, plant",1
W10054029_chl,yb0wngaxwu,"BOI Norms",1,31,2022-01-10T05:49:58+00:00,10.502535104752,8,"updated stim.csv",Version8.csv,"Version 8","List 8",eggplant,,225,5.807692308,894,226,BOI,-,-,"Please name all of the ways you could use this object. Keep in mind that one object can have many uses. Separate your responses with a comma.",,y,10276,,,2631,9558,,,,"grow, gather, eat",1
W10054029_chl,yb0wngaxwu,"BOI Norms",1,32,2022-01-10T05:50:07+00:00,9.5109848976135,8,"updated stim.csv",Version8.csv,"Version 8","List 8",stick,,228,6.16,2535,229,BOI,-,-,"Please name all of the ways you could use this object. Keep in mind that one object can have many uses. Separate your responses with a comma.",,y,9279,,,2329,8176,,,,"throw, break, burn",1
W10054029_chl,yb0wngaxwu,"BOI Norms",1,33,2022-01-10T05:50:34+00:00,26.666439056396,8,"updated stim.csv",Version8.csv,"Version 8","List 8",linoleum,,215,4.62962963,1519,216,BOI,-,-,"Please name all of the ways you could use this object. Keep in mind that one object can have many uses. Separate your responses with a comma.",,y,26442,,,20554,25361,,,,"cover, step on",1
W10054029_chl,yb0wngaxwu,"BOI Norms",1,34,2022-01-10T05:50:48+00:00,13.534203052521,8,"updated stim.csv",Version8.csv,"Version 8","List 8",creek,,239,4.52,691,240,BOI,-,-,"Please name all of the ways you could use this object. Keep in mind that one object can have many uses. Separate your responses with a comma.",,y,13306,,,2562,11975,,,,"play, drink, fish, tube",1
W10054029_chl,yb0wngaxwu,"BOI Norms",1,35,2022-01-10T05:50:59+00:00,10.975565910339,8,"updated stim.csv",Version8.csv,"Version 8","List 8",groundsman,,222,4.333333333,1183,223,BOI,-,-,"Please name all of the ways you could use this object. Keep in mind that one object can have many uses. Separate your responses with a comma.",,y,10744,,,3751,10037,,,,"talk, pay, hire",1
W10054029_chl,yb0wngaxwu,"BOI Norms",1,36,2022-01-10T05:51:19+00:00,20.614715099335,8,"updated stim.csv",Version8.csv,"Version 8","List 8",fruit,,230,6,1060,231,BOI,-,-,"Please name all of the ways you could use this object. Keep in mind that one object can have many uses. Separate your responses with a comma.",,y,20382,,,1782,19069,,,,"gather, grow, eat, sell, sqaush",1
W10054029_chl,yb0wngaxwu,"BOI Norms",1,37,2022-01-10T05:51:30+00:00,10.55616402626,8,"updated stim.csv",Version8.csv,"Version 8","List 8",paperback,,218,5.090909091,1863,219,BOI,-,-,"Please name all of the ways you could use this object. Keep in mind that one object can have many uses. Separate your responses with a comma.",,y,10309,,,2051,9477,,,,"read, burn, sell, write",1
W10054029_chl,yb0wngaxwu,"BOI Norms",1,38,2022-01-10T05:51:41+00:00,11.626142024994,8,"updated stim.csv",Version8.csv,"Version 8","List 8",illustrator,,229,4.48,1351,230,BOI,-,-,"Please name all of the ways you could use this object. Keep in mind that one object can have many uses. Separate your responses with a comma.",,y,11398,,,2522,10746,,,,"hire, talk, use",1
W10054029_chl,yb0wngaxwu,"BOI Norms",1,39,2022-01-10T05:51:51+00:00,9.8594949245453,8,"updated stim.csv",Version8.csv,"Version 8","List 8",drug,,211,5.375,852,212,BOI,-,-,"Please name all of the ways you could use this object. Keep in mind that one object can have many uses. Separate your responses with a comma.",,y,9629,,,1575,8544,,,,"use, sell, grow, make",1
W10054029_chl,yb0wngaxwu,"BOI Norms",1,40,2022-01-10T05:52:16+00:00,25.207524061203,8,"updated stim.csv",Version8.csv,"Version 8","List 8",strongbox,,223,4.454545455,2571,224,BOI,-,-,"Please name all of the ways you could use this object. Keep in mind that one object can have many uses. Separate your responses with a comma.",,y,24968,,,21267,24203,,,,"protect, store",1
W10054029_chl,yb0wngaxwu,"BOI Norms",1,41,2022-01-10T05:52:20+00:00,3.1924059391022,8,"updated stim.csv",Version8.csv,"Version 8","List 8",,,,,,0,Instruct,,,"You will now be asked a few questions about your experience today.",,"Instruct 4",2972,,,-1,-1,,,,,1
