Username,ID,ExperimentName,Session,Trial,Date,TimeDif,"Condition Number","Stimuli File","Order File","Condition Description","Condition Notes",Stimuli*Cue,Stimuli*Answer,Stimuli*Shuffle,"Stimuli*Stimuli Notes",Stimuli*Value,Procedure*Item,"Procedure*Trial Type","Procedure*Max Time","Procedure*Min Time",Procedure*Text,"Procedure*Procedure Notes",Procedure*Shuffle,Response*RT,Response*Response,Response*Accuracy,Response*RTfirst,Response*RTlast,Response*strictAcc,Response*lenientAcc,Response*focus,Response*JOL,Response*Focus
J00708366_grd,17n0il9xfv,"Affordance Norms_South Alabama",1,1,2022-11-08T19:40:50+00:00,11.376388788223,45,"updated stim.csv",Version45.csv,"Version 45","List 45",,,,,,0,Instruct,-,10,"In this section, you will be presented with a series of objects. Please name as many possible uses for this object as you can think of by typing them in the box below each object.",,Instruct1,11189,,,-1,-1,,,,,1
J00708366_grd,17n0il9xfv,"Affordance Norms_South Alabama",1,2,2022-11-08T19:41:01+00:00,11.480812072754,45,"updated stim.csv",Version45.csv,"Version 45","List 45",,,,,,0,Instruct,-,10,"Please keep in mind that a single object will have more than one use. For example, a ball can be thrown or can be bounced or even stepped on. When listing multiple uses for one object, please separate each use with a comma (i.e., thrown, bounced, stepped on)",,Instruct2,11249,,,-1,-1,,,,,1
J00708366_grd,17n0il9xfv,"Affordance Norms_South Alabama",1,3,2022-11-08T19:41:04+00:00,2.2284369468689,45,"updated stim.csv",Version45.csv,"Version 45","List 45",,,,,,0,Instruct,-,-,"Before starting the experiment, you will complete a short practice sesstion. Press ENTER when you are ready to begin.",,Instruct3,2100,,,-1,-1,,,,,1
J00708366_grd,17n0il9xfv,"Affordance Norms_South Alabama",1,4,2022-11-08T19:41:20+00:00,16.633989095688,45,"updated stim.csv",Version45.csv,"Version 45","List 45",grain,,3004,5.217391304,1143,3005,BOI,-,-,"Please name all of the ways you could use this object. Keep in mind that one object can have many uses. Separate your responses with a comma.",,n,16164,,,2428,15256,,,,"eat, grind,bake,cook",1
J00708366_grd,17n0il9xfv,"Affordance Norms_South Alabama",1,5,2022-11-08T19:41:34+00:00,14.066405057907,45,"updated stim.csv",Version45.csv,"Version 45","List 45",spaghetti,,3003,6,2461,3004,BOI,-,-,"Please name all of the ways you could use this object. Keep in mind that one object can have many uses. Separate your responses with a comma.",,n,13696,,,1392,12948,,,,"eat, cook,toss,boil",1
J00708366_grd,17n0il9xfv,"Affordance Norms_South Alabama",1,6,2022-11-08T19:42:09+00:00,34.677919864655,45,"updated stim.csv",Version45.csv,"Version 45","List 45",paperwork,,3001,5.625,1866,3002,BOI,-,-,"Please name all of the ways you could use this object. Keep in mind that one object can have many uses. Separate your responses with a comma.",,n,34443,,,2638,33836,,,,"fill out, throw away, crumple, toss, throw, shred",1
J00708366_grd,17n0il9xfv,"Affordance Norms_South Alabama",1,7,2022-11-08T19:42:21+00:00,11.893608093262,45,"updated stim.csv",Version45.csv,"Version 45","List 45",saucer,,3005,5.777777778,2249,3006,BOI,-,-,"Please name all of the ways you could use this object. Keep in mind that one object can have many uses. Separate your responses with a comma.",,n,11662,,,4013,11106,,,,"cook, flip, throw, heat",1
J00708366_grd,17n0il9xfv,"Affordance Norms_South Alabama",1,8,2022-11-08T19:42:27+00:00,6.456435918808,45,"updated stim.csv",Version45.csv,"Version 45","List 45",shortening,,3002,4.92,2358,3003,BOI,-,-,"Please name all of the ways you could use this object. Keep in mind that one object can have many uses. Separate your responses with a comma.",,n,6134,,,2359,3491,,,,bake,1
J00708366_grd,17n0il9xfv,"Affordance Norms_South Alabama",1,9,2022-11-08T19:42:29+00:00,1.6112880706787,45,"updated stim.csv",Version45.csv,"Version 45","List 45",,,,,,0,Instruct,-,-,"You have completed this section. Press ENTER to continue",,"Instruct 5",1377,,,-1,-1,,,,,1
J00708366_grd,17n0il9xfv,"Affordance Norms_South Alabama",1,10,2022-11-08T19:42:31+00:00,1.9393808841705,45,"updated stim.csv",Version45.csv,"Version 45","List 45",,,,,,0,Instruct,-,-,"You will now start the full experiment. Press ENTER when you are ready to begin.",,,1468,,,-1,-1,,,,,1
J00708366_grd,17n0il9xfv,"Affordance Norms_South Alabama",1,11,2022-11-08T19:42:44+00:00,13.177213191986,45,"updated stim.csv",Version45.csv,"Version 45","List 45",darkroom,,1333,4.416666667,757,1334,BOI,-,-,"Please name all of the ways you could use this object. Keep in mind that one object can have many uses. Separate your responses with a comma.",,y,12947,,,3512,9790,,,,"develop photos, sleep",1
J00708366_grd,17n0il9xfv,"Affordance Norms_South Alabama",1,12,2022-11-08T19:43:02+00:00,17.436473846436,45,"updated stim.csv",Version45.csv,"Version 45","List 45",slime,,1334,4.37037037,2412,1335,BOI,-,-,"Please name all of the ways you could use this object. Keep in mind that one object can have many uses. Separate your responses with a comma.",,y,17220,,,2192,16090,,,,"play with, throw, squish, toss, step on, collect dust",1
J00708366_grd,17n0il9xfv,"Affordance Norms_South Alabama",1,13,2022-11-08T19:43:12+00:00,9.9865770339966,45,"updated stim.csv",Version45.csv,"Version 45","List 45",watchdog,,1337,4.333333333,2907,1338,BOI,-,-,"Please name all of the ways you could use this object. Keep in mind that one object can have many uses. Separate your responses with a comma.",,y,9738,,,2812,8822,,,,"keep watch, protection, run",1
J00708366_grd,17n0il9xfv,"Affordance Norms_South Alabama",1,14,2022-11-08T19:43:28+00:00,16.520672082901,45,"updated stim.csv",Version45.csv,"Version 45","List 45",vinyl,,1324,4.6,2863,1325,BOI,-,-,"Please name all of the ways you could use this object. Keep in mind that one object can have many uses. Separate your responses with a comma.",,y,16177,,,1595,14460,,,,"listen to music, decoration, collection",1
J00708366_grd,17n0il9xfv,"Affordance Norms_South Alabama",1,15,2022-11-08T19:43:41+00:00,12.592582941055,45,"updated stim.csv",Version45.csv,"Version 45","List 45",teenager,,1329,5.08,2657,1330,BOI,-,-,"Please name all of the ways you could use this object. Keep in mind that one object can have many uses. Separate your responses with a comma.",,y,12378,,,4479,11270,,,,"friend, partner, someone to talk to ",1
J00708366_grd,17n0il9xfv,"Affordance Norms_South Alabama",1,16,2022-11-08T19:44:05+00:00,24.355015993118,45,"updated stim.csv",Version45.csv,"Version 45","List 45",swab,,1339,4.76,2601,1340,BOI,-,-,"Please name all of the ways you could use this object. Keep in mind that one object can have many uses. Separate your responses with a comma.",,y,24137,,,4404,10663,,,,"take off makeup, paint",1
J00708366_grd,17n0il9xfv,"Affordance Norms_South Alabama",1,17,2022-11-08T19:44:18+00:00,12.547805070877,45,"updated stim.csv",Version45.csv,"Version 45","List 45",vinaigrette,,1331,5.363636364,2860,1332,BOI,-,-,"Please name all of the ways you could use this object. Keep in mind that one object can have many uses. Separate your responses with a comma.",,y,11965,,,1767,10715,,,,"dress a salad, cook",1
J00708366_grd,17n0il9xfv,"Affordance Norms_South Alabama",1,18,2022-11-08T19:44:29+00:00,11.106663942337,45,"updated stim.csv",Version45.csv,"Version 45","List 45",hypnotist,,1326,4.44,1343,1327,BOI,-,-,"Please name all of the ways you could use this object. Keep in mind that one object can have many uses. Separate your responses with a comma.",,y,10902,,,1564,10153,,,,"hypnotise someone",1
J00708366_grd,17n0il9xfv,"Affordance Norms_South Alabama",1,19,2022-11-08T19:44:57+00:00,28.790270090103,45,"updated stim.csv",Version45.csv,"Version 45","List 45",eel,,1328,4.653846154,891,1329,BOI,-,-,"Please name all of the ways you could use this object. Keep in mind that one object can have many uses. Separate your responses with a comma.",,y,28388,,,2698,27698,,,,"to sting someone, decoration, food",1
J00708366_grd,17n0il9xfv,"Affordance Norms_South Alabama",1,20,2022-11-08T19:45:07+00:00,9.519907951355,45,"updated stim.csv",Version45.csv,"Version 45","List 45",schoolgirl,,1347,4.625,2271,1348,BOI,-,-,"Please name all of the ways you could use this object. Keep in mind that one object can have many uses. Separate your responses with a comma.",,y,9267,,,2754,7902,,,,"do homework, talk to",1
J00708366_grd,17n0il9xfv,"Affordance Norms_South Alabama",1,21,2022-11-08T19:45:24+00:00,16.808560848236,45,"updated stim.csv",Version45.csv,"Version 45","List 45",statue,,1322,4.777777778,2513,1323,BOI,-,-,"Please name all of the ways you could use this object. Keep in mind that one object can have many uses. Separate your responses with a comma.",,y,15923,,,2528,14360,,,,"take pictures with, gaze at, use as a monument",1
J00708366_grd,17n0il9xfv,"Affordance Norms_South Alabama",1,22,2022-11-08T19:45:36+00:00,12.64807510376,45,"updated stim.csv",Version45.csv,"Version 45","List 45",intern,,1327,4.791666667,1364,1328,BOI,-,-,"Please name all of the ways you could use this object. Keep in mind that one object can have many uses. Separate your responses with a comma.",,y,12320,,,2332,10879,,,,"do the work for you, a friend, someone to talk to",1
J00708366_grd,17n0il9xfv,"Affordance Norms_South Alabama",1,23,2022-11-08T19:45:43+00:00,6.6456279754639,45,"updated stim.csv",Version45.csv,"Version 45","List 45",streetcar,,1345,4.791666667,2564,1346,BOI,-,-,"Please name all of the ways you could use this object. Keep in mind that one object can have many uses. Separate your responses with a comma.",,y,6429,,,1273,5535,,,,"race, drive, crash",1
J00708366_grd,17n0il9xfv,"Affordance Norms_South Alabama",1,24,2022-11-08T19:45:59+00:00,16.120738983154,45,"updated stim.csv",Version45.csv,"Version 45","List 45",sprinkler,,1349,4.962962963,2489,1350,BOI,-,-,"Please name all of the ways you could use this object. Keep in mind that one object can have many uses. Separate your responses with a comma.",,y,15865,,,2030,15026,,,,"water the lawn, play in the water, keep children entertained, water flowers",1
J00708366_grd,17n0il9xfv,"Affordance Norms_South Alabama",1,25,2022-11-08T19:46:12+00:00,13.196118116379,45,"updated stim.csv",Version45.csv,"Version 45","List 45",scorpion,,1343,4.32,2280,1344,BOI,-,-,"Please name all of the ways you could use this object. Keep in mind that one object can have many uses. Separate your responses with a comma.",,y,12963,,,1689,12186,,,,"sting, eat other animals, scare people",1
J00708366_grd,17n0il9xfv,"Affordance Norms_South Alabama",1,26,2022-11-08T19:46:26+00:00,13.374492883682,45,"updated stim.csv",Version45.csv,"Version 45","List 45",hook,,1346,5,1307,1347,BOI,-,-,"Please name all of the ways you could use this object. Keep in mind that one object can have many uses. Separate your responses with a comma.",,y,13188,,,1380,12048,,,,"fishing, pirate, crocheting, ",1
J00708366_grd,17n0il9xfv,"Affordance Norms_South Alabama",1,27,2022-11-08T19:46:58+00:00,31.826028108597,45,"updated stim.csv",Version45.csv,"Version 45","List 45",grass,,1321,5.454545455,1160,1322,BOI,-,-,"Please name all of the ways you could use this object. Keep in mind that one object can have many uses. Separate your responses with a comma.",,y,31414,,,3975,30464,,,,"aesthetical looks, throw, pluck",1
J00708366_grd,17n0il9xfv,"Affordance Norms_South Alabama",1,28,2022-11-08T19:47:01+00:00,3.9088368415833,45,"updated stim.csv",Version45.csv,"Version 45","List 45",sourdough,,1338,5.12,2455,1339,BOI,-,-,"Please name all of the ways you could use this object. Keep in mind that one object can have many uses. Separate your responses with a comma.",,y,3319,,,1633,2230,,,,bread,1
J00708366_grd,17n0il9xfv,"Affordance Norms_South Alabama",1,29,2022-11-08T19:47:18+00:00,16.342656135559,45,"updated stim.csv",Version45.csv,"Version 45","List 45",goatskin,,1340,4.44,1124,1341,BOI,-,-,"Please name all of the ways you could use this object. Keep in mind that one object can have many uses. Separate your responses with a comma.",,y,11700,,,1792,9300,,,,"milk, clothing",1
J00708366_grd,17n0il9xfv,"Affordance Norms_South Alabama",1,30,2022-11-08T19:47:29+00:00,11.175482988358,45,"updated stim.csv",Version45.csv,"Version 45","List 45",hangnail,,1350,5.814814815,1246,1351,BOI,-,-,"Please name all of the ways you could use this object. Keep in mind that one object can have many uses. Separate your responses with a comma.",,y,10346,,,1721,9652,,,,"pick it off, poke someone",1
J00708366_grd,17n0il9xfv,"Affordance Norms_South Alabama",1,31,2022-11-08T19:47:54+00:00,24.880461931229,45,"updated stim.csv",Version45.csv,"Version 45","List 45",cookbook,,1344,5.68,631,1345,BOI,-,-,"Please name all of the ways you could use this object. Keep in mind that one object can have many uses. Separate your responses with a comma.",,y,24393,,,1732,23573,,,,"cook dinner, a platter, bake dessert, kitchen decoration",1
J00708366_grd,17n0il9xfv,"Affordance Norms_South Alabama",1,32,2022-11-08T19:48:02+00:00,8.4601240158081,45,"updated stim.csv",Version45.csv,"Version 45","List 45",cymbal,,1348,5.958333333,741,1349,BOI,-,-,"Please name all of the ways you could use this object. Keep in mind that one object can have many uses. Separate your responses with a comma.",,y,7931,,,1915,7288,,,,"clang, band, annoy someone",1
J00708366_grd,17n0il9xfv,"Affordance Norms_South Alabama",1,33,2022-11-08T19:48:06+00:00,3.8210980892181,45,"updated stim.csv",Version45.csv,"Version 45","List 45",buttock,,1323,5.25,379,1324,BOI,-,-,"Please name all of the ways you could use this object. Keep in mind that one object can have many uses. Separate your responses with a comma.",,y,3305,,,2361,2548,,,,sit,1
J00708366_grd,17n0il9xfv,"Affordance Norms_South Alabama",1,34,2022-11-08T19:48:25+00:00,18.598378896713,45,"updated stim.csv",Version45.csv,"Version 45","List 45",curb,,1341,4.72,728,1342,BOI,-,-,"Please name all of the ways you could use this object. Keep in mind that one object can have many uses. Separate your responses with a comma.",,y,17849,,,1328,16948,,,,"hit with a car, stop running water, dictate where the road is",1
J00708366_grd,17n0il9xfv,"Affordance Norms_South Alabama",1,35,2022-11-08T19:48:43+00:00,18.631997108459,45,"updated stim.csv",Version45.csv,"Version 45","List 45",palm,,1332,5.44,1854,1333,BOI,-,-,"Please name all of the ways you could use this object. Keep in mind that one object can have many uses. Separate your responses with a comma.",,y,18426,,,2140,16567,,,,"hit, tarot reading, paint, read Braille",1
J00708366_grd,17n0il9xfv,"Affordance Norms_South Alabama",1,36,2022-11-08T19:48:53+00:00,9.1604619026184,45,"updated stim.csv",Version45.csv,"Version 45","List 45",feast,,1325,4.384615385,955,1326,BOI,-,-,"Please name all of the ways you could use this object. Keep in mind that one object can have many uses. Separate your responses with a comma.",,y,8946,,,1291,8018,,,,"eat, look at, throw away",1
J00708366_grd,17n0il9xfv,"Affordance Norms_South Alabama",1,37,2022-11-08T19:49:10+00:00,17.096045017242,45,"updated stim.csv",Version45.csv,"Version 45","List 45",vinegar,,1330,5.291666667,2862,1331,BOI,-,-,"Please name all of the ways you could use this object. Keep in mind that one object can have many uses. Separate your responses with a comma.",,y,16851,,,6719,15890,,,,"fly traps, cook, drink",1
J00708366_grd,17n0il9xfv,"Affordance Norms_South Alabama",1,38,2022-11-08T19:49:23+00:00,13.464344024658,45,"updated stim.csv",Version45.csv,"Version 45","List 45",guest,,1336,4.857142857,1188,1337,BOI,-,-,"Please name all of the ways you could use this object. Keep in mind that one object can have many uses. Separate your responses with a comma.",,y,13236,,,4291,12649,,,,"welcome them, talk to them",1
J00708366_grd,17n0il9xfv,"Affordance Norms_South Alabama",1,39,2022-11-08T19:49:38+00:00,15.084779977798,45,"updated stim.csv",Version45.csv,"Version 45","List 45",barnacle,,1342,4.260869565,152,1343,BOI,-,-,"Please name all of the ways you could use this object. Keep in mind that one object can have many uses. Separate your responses with a comma.",,y,14862,,,1967,13682,,,,"look at, touch, play with",1
J00708366_grd,17n0il9xfv,"Affordance Norms_South Alabama",1,40,2022-11-08T19:49:54+00:00,15.965753078461,45,"updated stim.csv",Version45.csv,"Version 45","List 45",peanuts,,1335,6.12,1894,1336,BOI,-,-,"Please name all of the ways you could use this object. Keep in mind that one object can have many uses. Separate your responses with a comma.",,y,15405,,,1139,14580,,,,"eat, cook, bake, make peanut butter",1
J00708366_grd,17n0il9xfv,"Affordance Norms_South Alabama",1,41,2022-11-08T19:49:56+00:00,1.3670020103455,45,"updated stim.csv",Version45.csv,"Version 45","List 45",,,,,,0,Instruct,,,"You will now be asked a few questions about your experience today.",,"Instruct 4",1093,,,-1,-1,,,,,1
