Username,ID,ExperimentName,Session,Trial,Date,TimeDif,"Condition Number","Stimuli File","Order File","Condition Description","Condition Notes",Stimuli*Cue,Stimuli*Answer,Stimuli*Shuffle,"Stimuli*Stimuli Notes",Stimuli*Value,Procedure*Item,"Procedure*Trial Type","Procedure*Max Time","Procedure*Min Time",Procedure*Text,"Procedure*Procedure Notes",Procedure*Shuffle,Response*RT,Response*Response,Response*Accuracy,Response*RTfirst,Response*RTlast,Response*strictAcc,Response*lenientAcc,Response*focus,Response*JOL,Response*Focus
J00686027SW,y5gesdst15,"Affordance Norms_South Alabama",1,1,2023-04-17T21:23:12+00:00,10.391473054886,3,"updated stim.csv",Version3.csv,"Version 3","List 3",,,,,,0,Instruct,-,10,"In this section, you will be presented with a series of objects. Please name as many possible uses for this object as you can think of by typing them in the box below each object.",,Instruct1,10134,,,-1,-1,,,,,1
J00686027SW,y5gesdst15,"Affordance Norms_South Alabama",1,2,2023-04-17T21:23:23+00:00,10.925220012665,3,"updated stim.csv",Version3.csv,"Version 3","List 3",,,,,,0,Instruct,-,10,"Please keep in mind that a single object will have more than one use. For example, a ball can be thrown or can be bounced or even stepped on. When listing multiple uses for one object, please separate each use with a comma (i.e., thrown, bounced, stepped on)",,Instruct2,10711,,,-1,-1,,,,,1
J00686027SW,y5gesdst15,"Affordance Norms_South Alabama",1,3,2023-04-17T21:23:27+00:00,4.6992750167847,3,"updated stim.csv",Version3.csv,"Version 3","List 3",,,,,,0,Instruct,-,-,"Before starting the experiment, you will complete a short practice sesstion. Press ENTER when you are ready to begin.",,Instruct3,4372,,,-1,-1,,,,,1
J00686027SW,y5gesdst15,"Affordance Norms_South Alabama",1,4,2023-04-17T21:24:21+00:00,53.845705032349,3,"updated stim.csv",Version3.csv,"Version 3","List 3",saucer,,3005,5.777777778,2249,3006,BOI,-,-,"Please name all of the ways you could use this object. Keep in mind that one object can have many uses. Separate your responses with a comma.",,n,53501,,,5433,49931,,,,"throw, hold, lift, measure, ",0.738
J00686027SW,y5gesdst15,"Affordance Norms_South Alabama",1,5,2023-04-17T21:25:11+00:00,50.326073884964,3,"updated stim.csv",Version3.csv,"Version 3","List 3",paperwork,,3001,5.625,1866,3002,BOI,-,-,"Please name all of the ways you could use this object. Keep in mind that one object can have many uses. Separate your responses with a comma.",,n,49946,,,4116,43238,,,,"file, print, shred, fold, throw, file,",1
J00686027SW,y5gesdst15,"Affordance Norms_South Alabama",1,6,2023-04-17T21:26:23+00:00,71.941437005997,3,"updated stim.csv",Version3.csv,"Version 3","List 3",grain,,3004,5.217391304,1143,3005,BOI,-,-,"Please name all of the ways you could use this object. Keep in mind that one object can have many uses. Separate your responses with a comma.",,n,71589,,,3084,69503,,,,"cook, eat, pour, sweep, bakethrow",0.804
J00686027SW,y5gesdst15,"Affordance Norms_South Alabama",1,7,2023-04-17T21:27:10+00:00,46.214766979218,3,"updated stim.csv",Version3.csv,"Version 3","List 3",spaghetti,,3003,6,2461,3004,BOI,-,-,"Please name all of the ways you could use this object. Keep in mind that one object can have many uses. Separate your responses with a comma.",,n,45868,,,1948,31964,,,,"eat, throw, cook, serve, stir, hold",1
J00686027SW,y5gesdst15,"Affordance Norms_South Alabama",1,8,2023-04-17T21:28:38+00:00,88.379971981049,3,"updated stim.csv",Version3.csv,"Version 3","List 3",shortening,,3002,4.92,2358,3003,BOI,-,-,"Please name all of the ways you could use this object. Keep in mind that one object can have many uses. Separate your responses with a comma.",,n,88021,,,13237,81918,,,,"store, eat, bake, fry, throw, cook",0.613
J00686027SW,y5gesdst15,"Affordance Norms_South Alabama",1,9,2023-04-17T21:28:40+00:00,2.0062379837036,3,"updated stim.csv",Version3.csv,"Version 3","List 3",,,,,,0,Instruct,-,-,"You have completed this section. Press ENTER to continue",,"Instruct 5",1815,,,-1,-1,,,,,1
J00686027SW,y5gesdst15,"Affordance Norms_South Alabama",1,10,2023-04-17T21:28:42+00:00,1.8562769889832,3,"updated stim.csv",Version3.csv,"Version 3","List 3",,,,,,0,Instruct,-,-,"You will now start the full experiment. Press ENTER when you are ready to begin.",,,1663,,,-1,-1,,,,,1
J00686027SW,y5gesdst15,"Affordance Norms_South Alabama",1,11,2023-04-17T21:30:15+00:00,92.965841054916,3,"updated stim.csv",Version3.csv,"Version 3","List 3",fastener,,82,4.347826087,950,83,BOI,-,-,"Please name all of the ways you could use this object. Keep in mind that one object can have many uses. Separate your responses with a comma.",,y,92654,,,14394,90669,,,,"hold, throw, attach, hammer, screw, collect, store, hang",0.716
J00686027SW,y5gesdst15,"Affordance Norms_South Alabama",1,12,2023-04-17T21:31:19+00:00,63.959156990051,3,"updated stim.csv",Version3.csv,"Version 3","List 3",businesswoman,,86,5.08,371,87,BOI,-,-,"Please name all of the ways you could use this object. Keep in mind that one object can have many uses. Separate your responses with a comma.",,y,63596,,,23511,56658,,,,"lead, make money, share information, call, email, dinner",0.82
J00686027SW,y5gesdst15,"Affordance Norms_South Alabama",1,13,2023-04-17T21:33:06+00:00,106.81971311569,3,"updated stim.csv",Version3.csv,"Version 3","List 3",plastics,,61,5,1995,62,BOI,-,-,"Please name all of the ways you could use this object. Keep in mind that one object can have many uses. Separate your responses with a comma.",,y,106440,,,4382,105073,,,,"burn, fold, cut, make packaging, build, construct, transport, make toys, make bottles, make chairs",0.842
J00686027SW,y5gesdst15,"Affordance Norms_South Alabama",1,14,2023-04-17T21:34:01+00:00,55.245945930481,3,"updated stim.csv",Version3.csv,"Version 3","List 3",cart,,70,5.4,442,71,BOI,-,-,"Please name all of the ways you could use this object. Keep in mind that one object can have many uses. Separate your responses with a comma.",,y,54906,,,2397,26198,,,,"push, pull, stand on, store, ",1
J00686027SW,y5gesdst15,"Affordance Norms_South Alabama",1,15,2023-04-17T21:35:15+00:00,74.408754110336,3,"updated stim.csv",Version3.csv,"Version 3","List 3",lilac,,80,5,1508,81,BOI,-,-,"Please name all of the ways you could use this object. Keep in mind that one object can have many uses. Separate your responses with a comma.",,y,73977,,,19880,64767,,,,"sugar them, freeze, water, make honey, make candles, make oil, decorations, plant",0.785
J00686027SW,y5gesdst15,"Affordance Norms_South Alabama",1,16,2023-04-17T21:36:13+00:00,58.134855985641,3,"updated stim.csv",Version3.csv,"Version 3","List 3",rack,,73,4.68,2119,74,BOI,-,-,"Please name all of the ways you could use this object. Keep in mind that one object can have many uses. Separate your responses with a comma.",,y,57796,,,2175,40067,,,,"hang, exercise, ",0.819
J00686027SW,y5gesdst15,"Affordance Norms_South Alabama",1,17,2023-04-17T21:36:59+00:00,46.040182828903,3,"updated stim.csv",Version3.csv,"Version 3","List 3",crumb,,89,4.45,714,90,BOI,-,-,"Please name all of the ways you could use this object. Keep in mind that one object can have many uses. Separate your responses with a comma.",,y,45674,,,3468,40171,,,,"throw in the trash, eat, recycle, collect, sweep, mop, step on",1
J00686027SW,y5gesdst15,"Affordance Norms_South Alabama",1,18,2023-04-17T21:38:07+00:00,67.942711114883,3,"updated stim.csv",Version3.csv,"Version 3","List 3",curtain,,84,5.875,732,85,BOI,-,-,"Please name all of the ways you could use this object. Keep in mind that one object can have many uses. Separate your responses with a comma.",,y,67607,,,2546,66134,,,,"hang, draw, pull, tie, twist, braid, swing on, hold, create privacy, block the sun",1
J00686027SW,y5gesdst15,"Affordance Norms_South Alabama",1,19,2023-04-17T21:39:11+00:00,63.238597869873,3,"updated stim.csv",Version3.csv,"Version 3","List 3",lumber,,88,5.217391304,1557,89,BOI,-,-,"Please name all of the ways you could use this object. Keep in mind that one object can have many uses. Separate your responses with a comma.",,y,62889,,,16197,58823,,,,"make shelves, treehouse, walls, headboard, counters, dresser, mirror, fire, fireplace",0.854
J00686027SW,y5gesdst15,"Affordance Norms_South Alabama",1,20,2023-04-17T21:40:34+00:00,83.900327205658,3,"updated stim.csv",Version3.csv,"Version 3","List 3",stake,,66,4.36,2503,67,BOI,-,-,"Please name all of the ways you could use this object. Keep in mind that one object can have many uses. Separate your responses with a comma.",,y,81837,,,48853,76557,,,,"point, part a fence, support a plant, execute, burn, ",0.456
J00686027SW,y5gesdst15,"Affordance Norms_South Alabama",1,21,2023-04-17T21:41:12+00:00,37.400414943695,3,"updated stim.csv",Version3.csv,"Version 3","List 3",backbone,,65,4.64,113,66,BOI,-,-,"Please name all of the ways you could use this object. Keep in mind that one object can have many uses. Separate your responses with a comma.",,y,37066,,,-1,-1,,,,,0.173
J00686027SW,y5gesdst15,"Affordance Norms_South Alabama",1,22,2023-04-17T21:42:11+00:00,59.316534996033,3,"updated stim.csv",Version3.csv,"Version 3","List 3",stone,,67,5.875,2545,68,BOI,-,-,"Please name all of the ways you could use this object. Keep in mind that one object can have many uses. Separate your responses with a comma.",,y,58968,,,4027,55781,,,,"throw, skip, make furniture, create a fire, build a house, protection",0.82
J00686027SW,y5gesdst15,"Affordance Norms_South Alabama",1,23,2023-04-17T21:43:32+00:00,80.571774959564,3,"updated stim.csv",Version3.csv,"Version 3","List 3",pinecone,,62,5.821428571,1972,63,BOI,-,-,"Please name all of the ways you could use this object. Keep in mind that one object can have many uses. Separate your responses with a comma.",,y,80239,,,12759,73918,,,,"make a fire, decoration, eat, make crafts, bug repellant",0.65
J00686027SW,y5gesdst15,"Affordance Norms_South Alabama",1,24,2023-04-17T21:44:39+00:00,67.23215007782,3,"updated stim.csv",Version3.csv,"Version 3","List 3",stuff,,77,4.391304348,2574,78,BOI,-,-,"Please name all of the ways you could use this object. Keep in mind that one object can have many uses. Separate your responses with a comma.",,y,66898,,,4541,59815,,,,"fold, kick, eat, ride, roll, catch, hold, buy, smell, ",1
J00686027SW,y5gesdst15,"Affordance Norms_South Alabama",1,25,2023-04-17T21:45:57+00:00,77.896677017212,3,"updated stim.csv",Version3.csv,"Version 3","List 3",litter,,75,5.034482759,1526,76,BOI,-,-,"Please name all of the ways you could use this object. Keep in mind that one object can have many uses. Separate your responses with a comma.",,y,77534,,,2795,50541,,,,"throw away, recycle, use a decorations, burn, scoop, hold, poke",0.77
J00686027SW,y5gesdst15,"Affordance Norms_South Alabama",1,26,2023-04-17T21:47:27+00:00,89.789785861969,3,"updated stim.csv",Version3.csv,"Version 3","List 3",limestone,,81,4.565217391,1515,82,BOI,-,-,"Please name all of the ways you could use this object. Keep in mind that one object can have many uses. Separate your responses with a comma.",,y,89403,,,14944,88150,,,,"make glass, agriculture, build, mix, toothpaste, food, grow plants ",0.852
J00686027SW,y5gesdst15,"Affordance Norms_South Alabama",1,27,2023-04-17T21:48:15+00:00,48.086323022842,3,"updated stim.csv",Version3.csv,"Version 3","List 3",postage,,83,4.32,2041,84,BOI,-,-,"Please name all of the ways you could use this object. Keep in mind that one object can have many uses. Separate your responses with a comma.",,y,47737,,,22862,39959,,,,"sell, stamp, mail, shred, ",0.664
J00686027SW,y5gesdst15,"Affordance Norms_South Alabama",1,28,2023-04-17T21:48:57+00:00,42.406513929367,3,"updated stim.csv",Version3.csv,"Version 3","List 3",police,,72,4.739130435,2021,73,BOI,-,-,"Please name all of the ways you could use this object. Keep in mind that one object can have many uses. Separate your responses with a comma.",,y,42070,,,2654,40798,,,,"call, help, protection, car assistance",1
J00686027SW,y5gesdst15,"Affordance Norms_South Alabama",1,29,2023-04-17T21:49:34+00:00,37.164416074753,3,"updated stim.csv",Version3.csv,"Version 3","List 3",overcoat,,85,6.52,1832,86,BOI,-,-,"Please name all of the ways you could use this object. Keep in mind that one object can have many uses. Separate your responses with a comma.",,y,36785,,,14992,31276,,,,"wear, hang, tailor, fold, wash, ",0.694
J00686027SW,y5gesdst15,"Affordance Norms_South Alabama",1,30,2023-04-17T21:50:14+00:00,39.453251123428,3,"updated stim.csv",Version3.csv,"Version 3","List 3",plow,,68,5,2008,69,BOI,-,-,"Please name all of the ways you could use this object. Keep in mind that one object can have many uses. Separate your responses with a comma.",,y,39113,,,18295,37243,,,,"break up soil, bury crops, control weeds, turn soil",0.636
J00686027SW,y5gesdst15,"Affordance Norms_South Alabama",1,31,2023-04-17T21:50:59+00:00,45.298835992813,3,"updated stim.csv",Version3.csv,"Version 3","List 3",rink,,71,4.333333333,2171,72,BOI,-,-,"Please name all of the ways you could use this object. Keep in mind that one object can have many uses. Separate your responses with a comma.",,y,44870,,,14328,41367,,,,"skate, race, glide, volleyball, hockey, freeze, slide",0.804
J00686027SW,y5gesdst15,"Affordance Norms_South Alabama",1,32,2023-04-17T21:51:31+00:00,32.215924978256,3,"updated stim.csv",Version3.csv,"Version 3","List 3",tights,,63,5.956521739,2696,64,BOI,-,-,"Please name all of the ways you could use this object. Keep in mind that one object can have many uses. Separate your responses with a comma.",,y,31866,,,1778,30162,,,,"wear, stretch, fold, sew, burn, tie, thrift",1
J00686027SW,y5gesdst15,"Affordance Norms_South Alabama",1,33,2023-04-17T21:52:01+00:00,29.413827896118,3,"updated stim.csv",Version3.csv,"Version 3","List 3",perfume,,78,4.96,1926,79,BOI,-,-,"Please name all of the ways you could use this object. Keep in mind that one object can have many uses. Separate your responses with a comma.",,y,29087,,,1577,26244,,,,"spray, rub, hold, store, collect, buy, make, sell, smell",1
J00686027SW,y5gesdst15,"Affordance Norms_South Alabama",1,34,2023-04-17T21:52:27+00:00,26.298993110657,3,"updated stim.csv",Version3.csv,"Version 3","List 3",footplate,,90,4.875,1038,91,BOI,-,-,"Please name all of the ways you could use this object. Keep in mind that one object can have many uses. Separate your responses with a comma.",,y,25979,,,13792,18000,,,,"wheelchair, posture, ",0.515
J00686027SW,y5gesdst15,"Affordance Norms_South Alabama",1,35,2023-04-17T21:53:03+00:00,36.340865850449,3,"updated stim.csv",Version3.csv,"Version 3","List 3",sportswriter,,69,4.32,2484,70,BOI,-,-,"Please name all of the ways you could use this object. Keep in mind that one object can have many uses. Separate your responses with a comma.",,y,36008,,,3026,33527,,,,"call, email, help, hire, watch, meet",0.961
J00686027SW,y5gesdst15,"Affordance Norms_South Alabama",1,36,2023-04-17T21:54:02+00:00,58.229189157486,3,"updated stim.csv",Version3.csv,"Version 3","List 3",postmaster,,64,5.2,2045,65,BOI,-,-,"Please name all of the ways you could use this object. Keep in mind that one object can have many uses. Separate your responses with a comma.",,y,57910,,,14015,54774,,,,"supervise, call, email, hire, deliver mail, ",0.803
J00686027SW,y5gesdst15,"Affordance Norms_South Alabama",1,37,2023-04-17T21:54:56+00:00,54.912208795547,3,"updated stim.csv",Version3.csv,"Version 3","List 3",spit,,76,4.391304348,2476,77,BOI,-,-,"Please name all of the ways you could use this object. Keep in mind that one object can have many uses. Separate your responses with a comma.",,y,54575,,,19288,51689,,,,"keep moist, swallow, fight germs, protect gums, secure dentures",0.849
J00686027SW,y5gesdst15,"Affordance Norms_South Alabama",1,38,2023-04-17T21:55:23+00:00,26.840281009674,3,"updated stim.csv",Version3.csv,"Version 3","List 3",sash,,79,4.916666667,2244,80,BOI,-,-,"Please name all of the ways you could use this object. Keep in mind that one object can have many uses. Separate your responses with a comma.",,y,26513,,,2205,21164,,,,"wear, hold, sew, buy, sell, ",0.652
J00686027SW,y5gesdst15,"Affordance Norms_South Alabama",1,39,2023-04-17T21:56:05+00:00,42.017179012299,3,"updated stim.csv",Version3.csv,"Version 3","List 3",delicatessen,,87,4.347826087,768,88,BOI,-,-,"Please name all of the ways you could use this object. Keep in mind that one object can have many uses. Separate your responses with a comma.",,y,41701,,,12033,39776,,,,"eat, cut, smell, sell, buy, cook, bake, juggle, throw",0.832
J00686027SW,y5gesdst15,"Affordance Norms_South Alabama",1,40,2023-04-17T21:56:30+00:00,24.378791093826,3,"updated stim.csv",Version3.csv,"Version 3","List 3",dogcatcher,,74,4.72,812,75,BOI,-,-,"Please name all of the ways you could use this object. Keep in mind that one object can have many uses. Separate your responses with a comma.",,y,24032,,,2615,21202,,,,"hire, pay, help, call, watch, ",1
J00686027SW,y5gesdst15,"Affordance Norms_South Alabama",1,41,2023-04-17T21:56:32+00:00,2.5690889358521,3,"updated stim.csv",Version3.csv,"Version 3","List 3",,,,,,0,Instruct,,,"You will now be asked a few questions about your experience today.",,"Instruct 4",2374,,,-1,-1,,,,,1
