Username,ID,ExperimentName,Session,Trial,Date,TimeDif,"Condition Number","Stimuli File","Order File","Condition Description","Condition Notes",Stimuli*Cue,Stimuli*Answer,Stimuli*Shuffle,"Stimuli*Stimuli Notes",Stimuli*Value,Procedure*Item,"Procedure*Trial Type","Procedure*Max Time","Procedure*Min Time",Procedure*Text,"Procedure*Procedure Notes",Procedure*Shuffle,Response*RT,Response*Response,Response*Accuracy,Response*RTfirst,Response*RTlast,Response*strictAcc,Response*lenientAcc,Response*focus,Response*JOL,Response*Focus
J00729676_mo,hh2mha9d87,"Affordance Norms_South Alabama",1,1,2023-02-08T20:22:54+00:00,16.056066036224,49,"updated stim.csv",Version49.csv,"Version 49","List 49",,,,,,0,Instruct,-,10,"In this section, you will be presented with a series of objects. Please name as many possible uses for this object as you can think of by typing them in the box below each object.",,Instruct1,15955,,,-1,-1,,,,,1
J00729676_mo,hh2mha9d87,"Affordance Norms_South Alabama",1,2,2023-02-08T20:23:04+00:00,10.774438142776,49,"updated stim.csv",Version49.csv,"Version 49","List 49",,,,,,0,Instruct,-,10,"Please keep in mind that a single object will have more than one use. For example, a ball can be thrown or can be bounced or even stepped on. When listing multiple uses for one object, please separate each use with a comma (i.e., thrown, bounced, stepped on)",,Instruct2,10642,,,-1,-1,,,,,1
J00729676_mo,hh2mha9d87,"Affordance Norms_South Alabama",1,3,2023-02-08T20:23:08+00:00,3.4928019046783,49,"updated stim.csv",Version49.csv,"Version 49","List 49",,,,,,0,Instruct,-,-,"Before starting the experiment, you will complete a short practice sesstion. Press ENTER when you are ready to begin.",,Instruct3,3363,,,-1,-1,,,,,1
J00729676_mo,hh2mha9d87,"Affordance Norms_South Alabama",1,4,2023-02-08T20:23:28+00:00,19.847054004669,49,"updated stim.csv",Version49.csv,"Version 49","List 49",paperwork,,3001,5.625,1866,3002,BOI,-,-,"Please name all of the ways you could use this object. Keep in mind that one object can have many uses. Separate your responses with a comma.",,n,19654,,,4682,18524,,,,"filing, sorting, reading, submitting",1
J00729676_mo,hh2mha9d87,"Affordance Norms_South Alabama",1,5,2023-02-08T20:23:44+00:00,15.989063024521,49,"updated stim.csv",Version49.csv,"Version 49","List 49",spaghetti,,3003,6,2461,3004,BOI,-,-,"Please name all of the ways you could use this object. Keep in mind that one object can have many uses. Separate your responses with a comma.",,n,15526,,,3067,14665,,,,"eat, bake, serve",1
J00729676_mo,hh2mha9d87,"Affordance Norms_South Alabama",1,6,2023-02-08T20:23:57+00:00,13.638539075851,49,"updated stim.csv",Version49.csv,"Version 49","List 49",grain,,3004,5.217391304,1143,3005,BOI,-,-,"Please name all of the ways you could use this object. Keep in mind that one object can have many uses. Separate your responses with a comma.",,n,13364,,,1914,11008,,,,"bread, rice, pasta, wood",1
J00729676_mo,hh2mha9d87,"Affordance Norms_South Alabama",1,7,2023-02-08T20:24:28+00:00,30.226200819016,49,"updated stim.csv",Version49.csv,"Version 49","List 49",shortening,,3002,4.92,2358,3003,BOI,-,-,"Please name all of the ways you could use this object. Keep in mind that one object can have many uses. Separate your responses with a comma.",,n,30033,,,21323,28618,,,,"baking, speech",1
J00729676_mo,hh2mha9d87,"Affordance Norms_South Alabama",1,8,2023-02-08T20:24:44+00:00,16.449710130692,49,"updated stim.csv",Version49.csv,"Version 49","List 49",saucer,,3005,5.777777778,2249,3006,BOI,-,-,"Please name all of the ways you could use this object. Keep in mind that one object can have many uses. Separate your responses with a comma.",,n,16306,,,3146,13787,,,,"cook, set",1
J00729676_mo,hh2mha9d87,"Affordance Norms_South Alabama",1,9,2023-02-08T20:24:46+00:00,1.540237903595,49,"updated stim.csv",Version49.csv,"Version 49","List 49",,,,,,0,Instruct,-,-,"You have completed this section. Press ENTER to continue",,"Instruct 5",1411,,,-1,-1,,,,,1
J00729676_mo,hh2mha9d87,"Affordance Norms_South Alabama",1,10,2023-02-08T20:24:48+00:00,2.046676158905,49,"updated stim.csv",Version49.csv,"Version 49","List 49",,,,,,0,Instruct,-,-,"You will now start the full experiment. Press ENTER when you are ready to begin.",,,1917,,,-1,-1,,,,,1
J00729676_mo,hh2mha9d87,"Affordance Norms_South Alabama",1,11,2023-02-08T20:25:01+00:00,12.907794952393,49,"updated stim.csv",Version49.csv,"Version 49","List 49",lobe,,1447,4.47826087,1533,1448,BOI,-,-,"Please name all of the ways you could use this object. Keep in mind that one object can have many uses. Separate your responses with a comma.",,y,12782,,,5228,8820,,,,"brain, ear",1
J00729676_mo,hh2mha9d87,"Affordance Norms_South Alabama",1,12,2023-02-08T20:25:12+00:00,11.766190052032,49,"updated stim.csv",Version49.csv,"Version 49","List 49",maple,,1455,4.32,1601,1456,BOI,-,-,"Please name all of the ways you could use this object. Keep in mind that one object can have many uses. Separate your responses with a comma.",,y,11624,,,1192,9635,,,,"syrup, leaf, topping, flavor",1
J00729676_mo,hh2mha9d87,"Affordance Norms_South Alabama",1,13,2023-02-08T20:26:03+00:00,50.23278594017,49,"updated stim.csv",Version49.csv,"Version 49","List 49",finger,,1461,6,977,1462,BOI,-,-,"Please name all of the ways you could use this object. Keep in mind that one object can have many uses. Separate your responses with a comma.",,y,50051,,,1661,41115,,,,"push, poke, point, press",1
J00729676_mo,hh2mha9d87,"Affordance Norms_South Alabama",1,14,2023-02-08T20:26:14+00:00,11.637372016907,49,"updated stim.csv",Version49.csv,"Version 49","List 49",sweetener,,1449,5.2,2606,1450,BOI,-,-,"Please name all of the ways you could use this object. Keep in mind that one object can have many uses. Separate your responses with a comma.",,y,11494,,,3120,10630,,,,"sweeten, stir",1
J00729676_mo,hh2mha9d87,"Affordance Norms_South Alabama",1,15,2023-02-08T20:26:23+00:00,8.7064800262451,49,"updated stim.csv",Version49.csv,"Version 49","List 49",sneaker,,1443,6.48,2427,1444,BOI,-,-,"Please name all of the ways you could use this object. Keep in mind that one object can have many uses. Separate your responses with a comma.",,y,8566,,,1310,7748,,,,"walk, protect, run, play",1
J00729676_mo,hh2mha9d87,"Affordance Norms_South Alabama",1,16,2023-02-08T20:26:34+00:00,11.02286195755,49,"updated stim.csv",Version49.csv,"Version 49","List 49",abdomen,,1456,5.434782609,2,1457,BOI,-,-,"Please name all of the ways you could use this object. Keep in mind that one object can have many uses. Separate your responses with a comma.",,y,10891,,,6621,7402,,,,eat,1
J00729676_mo,hh2mha9d87,"Affordance Norms_South Alabama",1,17,2023-02-08T20:26:50+00:00,16.110630989075,49,"updated stim.csv",Version49.csv,"Version 49","List 49",gavel,,1463,4.545454545,1089,1464,BOI,-,-,"Please name all of the ways you could use this object. Keep in mind that one object can have many uses. Separate your responses with a comma.",,y,15981,,,1844,14616,,,,"pound, judge",1
J00729676_mo,hh2mha9d87,"Affordance Norms_South Alabama",1,18,2023-02-08T20:27:07+00:00,17.381283044815,49,"updated stim.csv",Version49.csv,"Version 49","List 49",staff,,1454,4.928571429,2496,1455,BOI,-,-,"Please name all of the ways you could use this object. Keep in mind that one object can have many uses. Separate your responses with a comma.",,y,17244,,,11661,16040,,,,"work, stand",1
J00729676_mo,hh2mha9d87,"Affordance Norms_South Alabama",1,19,2023-02-08T20:27:18+00:00,10.579043865204,49,"updated stim.csv",Version49.csv,"Version 49","List 49",boathouse,,1469,4.52173913,256,1470,BOI,-,-,"Please name all of the ways you could use this object. Keep in mind that one object can have many uses. Separate your responses with a comma.",,y,10443,,,1560,7233,,,,"store, workout, ",1
J00729676_mo,hh2mha9d87,"Affordance Norms_South Alabama",1,20,2023-02-08T20:27:42+00:00,23.835541009903,49,"updated stim.csv",Version49.csv,"Version 49","List 49",Leaf,,1450,5.584345479,1477,1451,BOI,-,-,"Please name all of the ways you could use this object. Keep in mind that one object can have many uses. Separate your responses with a comma.",,y,23646,,,3171,22754,,,,"cooking, baking, nature",1
J00729676_mo,hh2mha9d87,"Affordance Norms_South Alabama",1,21,2023-02-08T20:27:51+00:00,9.1565639972687,49,"updated stim.csv",Version49.csv,"Version 49","List 49",Food,,1459,6.470350404,1027,1460,BOI,-,-,"Please name all of the ways you could use this object. Keep in mind that one object can have many uses. Separate your responses with a comma.",,y,9020,,,1214,8320,,,,"eat, serve, consume, make",1
J00729676_mo,hh2mha9d87,"Affordance Norms_South Alabama",1,22,2023-02-08T20:28:08+00:00,17.351850986481,49,"updated stim.csv",Version49.csv,"Version 49","List 49",doghouse,,1445,5.076923077,813,1446,BOI,-,-,"Please name all of the ways you could use this object. Keep in mind that one object can have many uses. Separate your responses with a comma.",,y,17218,,,11166,15900,,,,"rest, train",1
J00729676_mo,hh2mha9d87,"Affordance Norms_South Alabama",1,23,2023-02-08T20:28:21+00:00,12.170429944992,49,"updated stim.csv",Version49.csv,"Version 49","List 49",stomp,,1444,4.321428571,2544,1445,BOI,-,-,"Please name all of the ways you could use this object. Keep in mind that one object can have many uses. Separate your responses with a comma.",,y,12044,,,5702,10545,,,,"foot, collapse",1
J00729676_mo,hh2mha9d87,"Affordance Norms_South Alabama",1,24,2023-02-08T20:28:39+00:00,18.814141988754,49,"updated stim.csv",Version49.csv,"Version 49","List 49",absinthe,,1468,4.590909091,3,1469,BOI,-,-,"Please name all of the ways you could use this object. Keep in mind that one object can have many uses. Separate your responses with a comma.",,y,18653,,,16632,17473,,,,drink,1
J00729676_mo,hh2mha9d87,"Affordance Norms_South Alabama",1,25,2023-02-08T20:28:52+00:00,12.860403060913,49,"updated stim.csv",Version49.csv,"Version 49","List 49",washstand,,1446,4.652173913,2902,1447,BOI,-,-,"Please name all of the ways you could use this object. Keep in mind that one object can have many uses. Separate your responses with a comma.",,y,12686,,,2077,12549,,,,"wash, brush teeth, store",1
J00729676_mo,hh2mha9d87,"Affordance Norms_South Alabama",1,26,2023-02-08T20:29:36+00:00,44.262269973755,49,"updated stim.csv",Version49.csv,"Version 49","List 49",fixture,,1451,5,994,1452,BOI,-,-,"Please name all of the ways you could use this object. Keep in mind that one object can have many uses. Separate your responses with a comma.",,y,44038,,,41624,43173,,,,"hold in place",1
J00729676_mo,hh2mha9d87,"Affordance Norms_South Alabama",1,27,2023-02-08T20:29:46+00:00,9.2818751335144,49,"updated stim.csv",Version49.csv,"Version 49","List 49",thumb,,1465,6.357142857,2687,1466,BOI,-,-,"Please name all of the ways you could use this object. Keep in mind that one object can have many uses. Separate your responses with a comma.",,y,9149,,,1384,4329,,,,"press, text",1
J00729676_mo,hh2mha9d87,"Affordance Norms_South Alabama",1,28,2023-02-08T20:30:40+00:00,54.436488866806,49,"updated stim.csv",Version49.csv,"Version 49","List 49",icing,,1460,4.76,1348,1461,BOI,-,-,"Please name all of the ways you could use this object. Keep in mind that one object can have many uses. Separate your responses with a comma.",,y,54246,,,52168,53263,,,,"frost, eat",1
J00729676_mo,hh2mha9d87,"Affordance Norms_South Alabama",1,29,2023-02-08T20:30:55+00:00,15.155507087708,49,"updated stim.csv",Version49.csv,"Version 49","List 49",lawyer,,1452,4.625,1475,1453,BOI,-,-,"Please name all of the ways you could use this object. Keep in mind that one object can have many uses. Separate your responses with a comma.",,y,15021,,,8414,13466,,,,protect,1
J00729676_mo,hh2mha9d87,"Affordance Norms_South Alabama",1,30,2023-02-08T20:30:59+00:00,3.9748539924622,49,"updated stim.csv",Version49.csv,"Version 49","List 49",tugboat,,1457,4.555555556,2793,1458,BOI,-,-,"Please name all of the ways you could use this object. Keep in mind that one object can have many uses. Separate your responses with a comma.",,y,3832,,,1688,2309,,,,pull,1
J00729676_mo,hh2mha9d87,"Affordance Norms_South Alabama",1,31,2023-02-08T20:31:03+00:00,4.0079040527344,49,"updated stim.csv",Version49.csv,"Version 49","List 49",lady,,1448,5.32,1449,1449,BOI,-,-,"Please name all of the ways you could use this object. Keep in mind that one object can have many uses. Separate your responses with a comma.",,y,3870,,,-1,-1,,,,,1
J00729676_mo,hh2mha9d87,"Affordance Norms_South Alabama",1,32,2023-02-08T20:31:11+00:00,8.0814130306244,49,"updated stim.csv",Version49.csv,"Version 49","List 49",neckwear,,1466,5.652173913,1743,1467,BOI,-,-,"Please name all of the ways you could use this object. Keep in mind that one object can have many uses. Separate your responses with a comma.",,y,7716,,,3212,4076,,,,wear,1
J00729676_mo,hh2mha9d87,"Affordance Norms_South Alabama",1,33,2023-02-08T20:31:33+00:00,21.430413961411,49,"updated stim.csv",Version49.csv,"Version 49","List 49",eyedrop,,1442,5.48,932,1443,BOI,-,-,"Please name all of the ways you could use this object. Keep in mind that one object can have many uses. Separate your responses with a comma.",,y,21242,,,12468,20888,,,,"provide moisture",1
J00729676_mo,hh2mha9d87,"Affordance Norms_South Alabama",1,34,2023-02-08T20:31:37+00:00,4.4971809387207,49,"updated stim.csv",Version49.csv,"Version 49","List 49",soles,,1462,4.913043478,2447,1463,BOI,-,-,"Please name all of the ways you could use this object. Keep in mind that one object can have many uses. Separate your responses with a comma.",,y,4366,,,1602,4254,,,,"walk, protect",1
J00729676_mo,hh2mha9d87,"Affordance Norms_South Alabama",1,35,2023-02-08T20:31:43+00:00,6.0310299396515,49,"updated stim.csv",Version49.csv,"Version 49","List 49",latrine,,1458,6.333333333,1471,1459,BOI,-,-,"Please name all of the ways you could use this object. Keep in mind that one object can have many uses. Separate your responses with a comma.",,y,5869,,,3044,5208,,,,"go to the bathroom",1
J00729676_mo,hh2mha9d87,"Affordance Norms_South Alabama",1,36,2023-02-08T20:31:50+00:00,6.5974161624908,49,"updated stim.csv",Version49.csv,"Version 49","List 49",opium,,1441,4.269230769,1812,1442,BOI,-,-,"Please name all of the ways you could use this object. Keep in mind that one object can have many uses. Separate your responses with a comma.",,y,6450,,,4526,5607,,,,"get high",1
J00729676_mo,hh2mha9d87,"Affordance Norms_South Alabama",1,37,2023-02-08T20:31:59+00:00,9.2002599239349,49,"updated stim.csv",Version49.csv,"Version 49","List 49",wounds,,1464,4.391304348,2977,1465,BOI,-,-,"Please name all of the ways you could use this object. Keep in mind that one object can have many uses. Separate your responses with a comma.",,y,9049,,,5804,8814,,,,"fix, heal",1
J00729676_mo,hh2mha9d87,"Affordance Norms_South Alabama",1,38,2023-02-08T20:32:09+00:00,9.5952808856964,49,"updated stim.csv",Version49.csv,"Version 49","List 49",pillowcase,,1453,5.92,1963,1454,BOI,-,-,"Please name all of the ways you could use this object. Keep in mind that one object can have many uses. Separate your responses with a comma.",,y,9443,,,2269,9279,,,,"cover pillows, hold things",1
J00729676_mo,hh2mha9d87,"Affordance Norms_South Alabama",1,39,2023-02-08T20:32:18+00:00,9.4848771095276,49,"updated stim.csv",Version49.csv,"Version 49","List 49",scissor,,1467,6.173913043,2275,1468,BOI,-,-,"Please name all of the ways you could use this object. Keep in mind that one object can have many uses. Separate your responses with a comma.",,y,9314,,,1318,8914,,,,"cut, open, cooking",1
J00729676_mo,hh2mha9d87,"Affordance Norms_South Alabama",1,40,2023-02-08T20:32:26+00:00,7.8130900859833,49,"updated stim.csv",Version49.csv,"Version 49","List 49",pushcart,,1470,5.272727273,2106,1471,BOI,-,-,"Please name all of the ways you could use this object. Keep in mind that one object can have many uses. Separate your responses with a comma.",,y,7589,,,2367,7441,,,,"carry and push things",1
J00729676_mo,hh2mha9d87,"Affordance Norms_South Alabama",1,41,2023-02-08T20:32:28+00:00,1.5898180007935,49,"updated stim.csv",Version49.csv,"Version 49","List 49",,,,,,0,Instruct,,,"You will now be asked a few questions about your experience today.",,"Instruct 4",1468,,,-1,-1,,,,,1
