Username,ID,ExperimentName,Session,Trial,Date,TimeDif,"Condition Number","Stimuli File","Order File","Condition Description","Condition Notes",Stimuli*Cue,Stimuli*Answer,Stimuli*Shuffle,"Stimuli*Stimuli Notes",Stimuli*Value,Procedure*Item,"Procedure*Trial Type","Procedure*Max Time","Procedure*Min Time",Procedure*Text,"Procedure*Procedure Notes",Procedure*Shuffle,Response*RT,Response*Response,Response*Accuracy,Response*RTfirst,Response*RTlast,Response*strictAcc,Response*lenientAcc,Response*focus,Response*JOL,Response*Focus
J00717362_mgl,t0jw8agotx,"Affordance Norms_South Alabama",1,1,2023-03-13T03:47:19+00:00,11.278778076172,78,"updated stim.csv",Version78.csv,"Version 78","List 78",,,,,,0,Instruct,-,10,"In this section, you will be presented with a series of objects. Please name as many possible uses for this object as you can think of by typing them in the box below each object.",,Instruct1,10719,,,-1,-1,,,,,1
J00717362_mgl,t0jw8agotx,"Affordance Norms_South Alabama",1,2,2023-03-13T03:47:36+00:00,17.799575805664,78,"updated stim.csv",Version78.csv,"Version 78","List 78",,,,,,0,Instruct,-,10,"Please keep in mind that a single object will have more than one use. For example, a ball can be thrown or can be bounced or even stepped on. When listing multiple uses for one object, please separate each use with a comma (i.e., thrown, bounced, stepped on)",,Instruct2,16857,,,-1,-1,,,,,1
J00717362_mgl,t0jw8agotx,"Affordance Norms_South Alabama",1,3,2023-03-13T03:47:45+00:00,8.5640320777893,78,"updated stim.csv",Version78.csv,"Version 78","List 78",,,,,,0,Instruct,-,-,"Before starting the experiment, you will complete a short practice sesstion. Press ENTER when you are ready to begin.",,Instruct3,7663,,,-1,-1,,,,,1
J00717362_mgl,t0jw8agotx,"Affordance Norms_South Alabama",1,4,2023-03-13T03:48:00+00:00,14.506114006042,78,"updated stim.csv",Version78.csv,"Version 78","List 78",spaghetti,,3003,6,2461,3004,BOI,-,-,"Please name all of the ways you could use this object. Keep in mind that one object can have many uses. Separate your responses with a comma.",,n,13602,,,6002,12353,,,,"food, noodle, sauce",1
J00717362_mgl,t0jw8agotx,"Affordance Norms_South Alabama",1,5,2023-03-13T03:48:17+00:00,17.832015037537,78,"updated stim.csv",Version78.csv,"Version 78","List 78",paperwork,,3001,5.625,1866,3002,BOI,-,-,"Please name all of the ways you could use this object. Keep in mind that one object can have many uses. Separate your responses with a comma.",,n,16898,,,5299,15748,,,,"paper, filing, work",1
J00717362_mgl,t0jw8agotx,"Affordance Norms_South Alabama",1,6,2023-03-13T03:48:38+00:00,20.414772033691,78,"updated stim.csv",Version78.csv,"Version 78","List 78",grain,,3004,5.217391304,1143,3005,BOI,-,-,"Please name all of the ways you could use this object. Keep in mind that one object can have many uses. Separate your responses with a comma.",,n,18881,,,16398,17009,,,,seed,1
J00717362_mgl,t0jw8agotx,"Affordance Norms_South Alabama",1,7,2023-03-13T03:48:53+00:00,15.564750909805,78,"updated stim.csv",Version78.csv,"Version 78","List 78",shortening,,3002,4.92,2358,3003,BOI,-,-,"Please name all of the ways you could use this object. Keep in mind that one object can have many uses. Separate your responses with a comma.",,n,14074,,,3920,10481,,,,"short, quick, fast",1
J00717362_mgl,t0jw8agotx,"Affordance Norms_South Alabama",1,8,2023-03-13T03:49:20+00:00,26.507508039474,78,"updated stim.csv",Version78.csv,"Version 78","List 78",saucer,,3005,5.777777778,2249,3006,BOI,-,-,"Please name all of the ways you could use this object. Keep in mind that one object can have many uses. Separate your responses with a comma.",,n,25639,,,17373,24627,,,,"dish, bowl",1
J00717362_mgl,t0jw8agotx,"Affordance Norms_South Alabama",1,9,2023-03-13T03:49:23+00:00,3.0981080532074,78,"updated stim.csv",Version78.csv,"Version 78","List 78",,,,,,0,Instruct,-,-,"You have completed this section. Press ENTER to continue",,"Instruct 5",2624,,,-1,-1,,,,,1
J00717362_mgl,t0jw8agotx,"Affordance Norms_South Alabama",1,10,2023-03-13T03:49:26+00:00,3.1514208316803,78,"updated stim.csv",Version78.csv,"Version 78","List 78",,,,,,0,Instruct,-,-,"You will now start the full experiment. Press ENTER when you are ready to begin.",,,2429,,,-1,-1,,,,,1
J00717362_mgl,t0jw8agotx,"Affordance Norms_South Alabama",1,11,2023-03-13T03:49:51+00:00,24.904683113098,78,"updated stim.csv",Version78.csv,"Version 78","List 78",goddaughter,,2340,5.04,1126,2341,BOI,-,-,"Please name all of the ways you could use this object. Keep in mind that one object can have many uses. Separate your responses with a comma.",,y,23777,,,21734,22642,,,,person,1
J00717362_mgl,t0jw8agotx,"Affordance Norms_South Alabama",1,12,2023-03-13T03:50:17+00:00,25.862200021744,78,"updated stim.csv",Version78.csv,"Version 78","List 78",pretzel,,2321,6.04,2061,2322,BOI,-,-,"Please name all of the ways you could use this object. Keep in mind that one object can have many uses. Separate your responses with a comma.",,y,24915,,,7190,23906,,,,"food, eating, making, dipping",1
J00717362_mgl,t0jw8agotx,"Affordance Norms_South Alabama",1,13,2023-03-13T03:51:20+00:00,62.778050899506,78,"updated stim.csv",Version78.csv,"Version 78","List 78",urn,,2338,4.791666667,2829,2339,BOI,-,-,"Please name all of the ways you could use this object. Keep in mind that one object can have many uses. Separate your responses with a comma.",,y,61254,,,34761,60385,,,,"toss, keep",1
J00717362_mgl,t0jw8agotx,"Affordance Norms_South Alabama",1,14,2023-03-13T03:51:54+00:00,34.536098003387,78,"updated stim.csv",Version78.csv,"Version 78","List 78",plantain,,2316,5.409090909,1990,2317,BOI,-,-,"Please name all of the ways you could use this object. Keep in mind that one object can have many uses. Separate your responses with a comma.",,y,33458,,,24576,32748,,,,"fried, eating, baked",1
J00717362_mgl,t0jw8agotx,"Affordance Norms_South Alabama",1,15,2023-03-13T03:52:09+00:00,14.744379997253,78,"updated stim.csv",Version78.csv,"Version 78","List 78",drawstring,,2314,5.28,842,2315,BOI,-,-,"Please name all of the ways you could use this object. Keep in mind that one object can have many uses. Separate your responses with a comma.",,y,13587,,,3025,12882,,,,"pull, twist, tighten, cut",1
J00717362_mgl,t0jw8agotx,"Affordance Norms_South Alabama",1,16,2023-03-13T03:53:05+00:00,55.575310945511,78,"updated stim.csv",Version78.csv,"Version 78","List 78",friend,,2313,5,1057,2314,BOI,-,-,"Please name all of the ways you could use this object. Keep in mind that one object can have many uses. Separate your responses with a comma.",,y,54619,,,42155,52390,,,,"adventure, hang, talk",1
J00717362_mgl,t0jw8agotx,"Affordance Norms_South Alabama",1,17,2023-03-13T03:53:47+00:00,42.887659072876,78,"updated stim.csv",Version78.csv,"Version 78","List 78",cop,,2319,4.458333333,635,2320,BOI,-,-,"Please name all of the ways you could use this object. Keep in mind that one object can have many uses. Separate your responses with a comma.",,y,40892,,,32687,39297,,,,"restraining order, protection",1
J00717362_mgl,t0jw8agotx,"Affordance Norms_South Alabama",1,18,2023-03-13T03:54:04+00:00,16.72794008255,78,"updated stim.csv",Version78.csv,"Version 78","List 78",colleague,,2325,5.724137931,602,2326,BOI,-,-,"Please name all of the ways you could use this object. Keep in mind that one object can have many uses. Separate your responses with a comma.",,y,15200,,,2810,14453,,,,"talk, help out, work with",1
J00717362_mgl,t0jw8agotx,"Affordance Norms_South Alabama",1,19,2023-03-13T03:54:50+00:00,46.297905921936,78,"updated stim.csv",Version78.csv,"Version 78","List 78",mousse,,2334,5.260869565,1703,2335,BOI,-,-,"Please name all of the ways you could use this object. Keep in mind that one object can have many uses. Separate your responses with a comma.",,y,45150,,,13860,44123,,,,"eat, make, refridgerate",1
J00717362_mgl,t0jw8agotx,"Affordance Norms_South Alabama",1,20,2023-03-13T03:55:35+00:00,44.818901062012,78,"updated stim.csv",Version78.csv,"Version 78","List 78",butcher,,2336,4.739130435,373,2337,BOI,-,-,"Please name all of the ways you could use this object. Keep in mind that one object can have many uses. Separate your responses with a comma.",,y,44160,,,2208,23651,,,,"cut, chop, ",1
J00717362_mgl,t0jw8agotx,"Affordance Norms_South Alabama",1,21,2023-03-13T03:55:49+00:00,13.318530082703,78,"updated stim.csv",Version78.csv,"Version 78","List 78",ribbon,,2333,6.375,2165,2334,BOI,-,-,"Please name all of the ways you could use this object. Keep in mind that one object can have many uses. Separate your responses with a comma.",,y,12225,,,1705,4091,,,,"tie, cut, ",1
J00717362_mgl,t0jw8agotx,"Affordance Norms_South Alabama",1,22,2023-03-13T03:56:28+00:00,39.927971839905,78,"updated stim.csv",Version78.csv,"Version 78","List 78",windsock,,2330,4.391304348,2946,2331,BOI,-,-,"Please name all of the ways you could use this object. Keep in mind that one object can have many uses. Separate your responses with a comma.",,y,38857,,,22611,25477,,,,"direction, ",1
J00717362_mgl,t0jw8agotx,"Affordance Norms_South Alabama",1,23,2023-03-13T03:56:41+00:00,12.296864032745,78,"updated stim.csv",Version78.csv,"Version 78","List 78",bonnet,,2317,6.043478261,269,2318,BOI,-,-,"Please name all of the ways you could use this object. Keep in mind that one object can have many uses. Separate your responses with a comma.",,y,11353,,,3624,10424,,,,"wear, wash, make, buy",1
J00717362_mgl,t0jw8agotx,"Affordance Norms_South Alabama",1,24,2023-03-13T03:57:34+00:00,53.614190101624,78,"updated stim.csv",Version78.csv,"Version 78","List 78",bookbinder,,2312,4.75,271,2313,BOI,-,-,"Please name all of the ways you could use this object. Keep in mind that one object can have many uses. Separate your responses with a comma.",,y,52612,,,29163,38855,,,,"put away, binds, ",1
J00717362_mgl,t0jw8agotx,"Affordance Norms_South Alabama",1,25,2023-03-13T03:57:57+00:00,22.583335876465,78,"updated stim.csv",Version78.csv,"Version 78","List 78",turkey,,2339,4.833333333,2801,2340,BOI,-,-,"Please name all of the ways you could use this object. Keep in mind that one object can have many uses. Separate your responses with a comma.",,y,21313,,,2525,12479,,,,"eat, raise, feed, harvest, butcher, ",1
J00717362_mgl,t0jw8agotx,"Affordance Norms_South Alabama",1,26,2023-03-13T03:58:09+00:00,12.46665096283,78,"updated stim.csv",Version78.csv,"Version 78","List 78",sugarcane,,2335,5.043478261,2581,2336,BOI,-,-,"Please name all of the ways you could use this object. Keep in mind that one object can have many uses. Separate your responses with a comma.",,y,11245,,,2354,10451,,,,"eat, produce, drink",1
J00717362_mgl,t0jw8agotx,"Affordance Norms_South Alabama",1,27,2023-03-13T03:58:49+00:00,39.803236961365,78,"updated stim.csv",Version78.csv,"Version 78","List 78",roadster,,2329,4.96,2177,2330,BOI,-,-,"Please name all of the ways you could use this object. Keep in mind that one object can have many uses. Separate your responses with a comma.",,y,38599,,,26246,37628,,,,"drive, race, fix, sell",1
J00717362_mgl,t0jw8agotx,"Affordance Norms_South Alabama",1,28,2023-03-13T03:59:24+00:00,34.826458215714,78,"updated stim.csv",Version78.csv,"Version 78","List 78",garter,,2327,4.904761905,1083,2328,BOI,-,-,"Please name all of the ways you could use this object. Keep in mind that one object can have many uses. Separate your responses with a comma.",,y,33837,,,13068,32541,,,,"wear,wedding",1
J00717362_mgl,t0jw8agotx,"Affordance Norms_South Alabama",1,29,2023-03-13T03:59:54+00:00,30.039277791977,78,"updated stim.csv",Version78.csv,"Version 78","List 78",kiss,,2311,4.571428571,1422,2312,BOI,-,-,"Please name all of the ways you could use this object. Keep in mind that one object can have many uses. Separate your responses with a comma.",,y,29096,,,24793,25923,,,,smooch,1
J00717362_mgl,t0jw8agotx,"Affordance Norms_South Alabama",1,30,2023-03-13T04:00:44+00:00,49.758191108704,78,"updated stim.csv",Version78.csv,"Version 78","List 78",bully,,2324,4.857142857,356,2325,BOI,-,-,"Please name all of the ways you could use this object. Keep in mind that one object can have many uses. Separate your responses with a comma.",,y,48750,,,45682,47792,,,,physical,1
J00717362_mgl,t0jw8agotx,"Affordance Norms_South Alabama",1,31,2023-03-13T04:01:24+00:00,40.051184892654,78,"updated stim.csv",Version78.csv,"Version 78","List 78",turnstile,,2323,4.818181818,2803,2324,BOI,-,-,"Please name all of the ways you could use this object. Keep in mind that one object can have many uses. Separate your responses with a comma.",,y,38963,,,29630,37701,,,,"go through, open, close, ",1
J00717362_mgl,t0jw8agotx,"Affordance Norms_South Alabama",1,32,2023-03-13T04:02:03+00:00,39.424133062363,78,"updated stim.csv",Version78.csv,"Version 78","List 78",gymnast,,2320,5,1205,2321,BOI,-,-,"Please name all of the ways you could use this object. Keep in mind that one object can have many uses. Separate your responses with a comma.",,y,38527,,,32771,37737,,,,flexability,1
J00717362_mgl,t0jw8agotx,"Affordance Norms_South Alabama",1,33,2023-03-13T04:02:32+00:00,28.376919031143,78,"updated stim.csv",Version78.csv,"Version 78","List 78",sphincter,,2322,4.88,2469,2323,BOI,-,-,"Please name all of the ways you could use this object. Keep in mind that one object can have many uses. Separate your responses with a comma.",,y,27567,,,26595,26929,,,,idk,1
J00717362_mgl,t0jw8agotx,"Affordance Norms_South Alabama",1,34,2023-03-13T04:02:44+00:00,12.510807037354,78,"updated stim.csv",Version78.csv,"Version 78","List 78",mirror,,2328,6.086956522,1667,2329,BOI,-,-,"Please name all of the ways you could use this object. Keep in mind that one object can have many uses. Separate your responses with a comma.",,y,11199,,,2802,8122,,,,"look, see, ",1
J00717362_mgl,t0jw8agotx,"Affordance Norms_South Alabama",1,35,2023-03-13T04:03:46+00:00,61.980293035507,78,"updated stim.csv",Version78.csv,"Version 78","List 78",silverware,,2315,6.24,2383,2316,BOI,-,-,"Please name all of the ways you could use this object. Keep in mind that one object can have many uses. Separate your responses with a comma.",,y,61095,,,3749,49904,,,,"scoop, stab, cut, ",1
J00717362_mgl,t0jw8agotx,"Affordance Norms_South Alabama",1,36,2023-03-13T04:04:08+00:00,22.057857990265,78,"updated stim.csv",Version78.csv,"Version 78","List 78",limeade,,2331,4.75,1513,2332,BOI,-,-,"Please name all of the ways you could use this object. Keep in mind that one object can have many uses. Separate your responses with a comma.",,y,20859,,,19250,20205,,,,drink,1
J00717362_mgl,t0jw8agotx,"Affordance Norms_South Alabama",1,37,2023-03-13T04:04:39+00:00,30.525599002838,78,"updated stim.csv",Version78.csv,"Version 78","List 78",tavern,,2337,4.36,2638,2338,BOI,-,-,"Please name all of the ways you could use this object. Keep in mind that one object can have many uses. Separate your responses with a comma.",,y,29219,,,24320,28313,,,,"sit at, drink, ",1
J00717362_mgl,t0jw8agotx,"Affordance Norms_South Alabama",1,38,2023-03-13T04:05:05+00:00,25.788849830627,78,"updated stim.csv",Version78.csv,"Version 78","List 78",rug,,2318,6.173913043,2204,2319,BOI,-,-,"Please name all of the ways you could use this object. Keep in mind that one object can have many uses. Separate your responses with a comma.",,y,24828,,,6050,23833,,,,"walk on, stomp, step, lay",1
J00717362_mgl,t0jw8agotx,"Affordance Norms_South Alabama",1,39,2023-03-13T04:05:17+00:00,12.65748000145,78,"updated stim.csv",Version78.csv,"Version 78","List 78",dresser,,2332,5.04,844,2333,BOI,-,-,"Please name all of the ways you could use this object. Keep in mind that one object can have many uses. Separate your responses with a comma.",,y,11724,,,3373,11041,,,,"hold clothes, decoration",1
J00717362_mgl,t0jw8agotx,"Affordance Norms_South Alabama",1,40,2023-03-13T04:05:37+00:00,20.115400075912,78,"updated stim.csv",Version78.csv,"Version 78","List 78",cigarette,,2326,6.272727273,543,2327,BOI,-,-,"Please name all of the ways you could use this object. Keep in mind that one object can have many uses. Separate your responses with a comma.",,y,19089,,,2944,11684,,,,"smoking, light up, ",1
J00717362_mgl,t0jw8agotx,"Affordance Norms_South Alabama",1,41,2023-03-13T04:05:43+00:00,5.2135939598083,78,"updated stim.csv",Version78.csv,"Version 78","List 78",,,,,,0,Instruct,,,"You will now be asked a few questions about your experience today.",,"Instruct 4",3951,,,-1,-1,,,,,1
