Username,ID,ExperimentName,Session,Trial,Date,TimeDif,"Condition Number","Stimuli File","Order File","Condition Description","Condition Notes",Stimuli*Cue,Stimuli*Answer,Stimuli*Shuffle,"Stimuli*Stimuli Notes",Stimuli*Value,Procedure*Item,"Procedure*Trial Type","Procedure*Max Time","Procedure*Min Time",Procedure*Text,"Procedure*Procedure Notes",Procedure*Shuffle,Response*RT,Response*Response,Response*Accuracy,Response*RTfirst,Response*RTlast,Response*strictAcc,Response*lenientAcc,Response*focus,Response*JOL,Response*Focus
j00699336js,2p1d9ki1ki,"Affordance Norms_South Alabama",1,1,2023-04-16T18:32:27+00:00,14.881245136261,97,"updated stim.csv",Version97.csv,"Version 97","List 97",,,,,,0,Instruct,-,10,"In this section, you will be presented with a series of objects. Please name as many possible uses for this object as you can think of by typing them in the box below each object.",,Instruct1,14793,,,-1,-1,,,,,1
j00699336js,2p1d9ki1ki,"Affordance Norms_South Alabama",1,2,2023-04-16T18:32:40+00:00,12.182644844055,97,"updated stim.csv",Version97.csv,"Version 97","List 97",,,,,,0,Instruct,-,10,"Please keep in mind that a single object will have more than one use. For example, a ball can be thrown or can be bounced or even stepped on. When listing multiple uses for one object, please separate each use with a comma (i.e., thrown, bounced, stepped on)",,Instruct2,12047,,,-1,-1,,,,,1
j00699336js,2p1d9ki1ki,"Affordance Norms_South Alabama",1,3,2023-04-16T18:32:42+00:00,2.6994481086731,97,"updated stim.csv",Version97.csv,"Version 97","List 97",,,,,,0,Instruct,-,-,"Before starting the experiment, you will complete a short practice sesstion. Press ENTER when you are ready to begin.",,Instruct3,2513,,,-1,-1,,,,,1
j00699336js,2p1d9ki1ki,"Affordance Norms_South Alabama",1,4,2023-04-16T18:32:51+00:00,8.6966769695282,97,"updated stim.csv",Version97.csv,"Version 97","List 97",shortening,,3002,4.92,2358,3003,BOI,-,-,"Please name all of the ways you could use this object. Keep in mind that one object can have many uses. Separate your responses with a comma.",,n,8591,,,5737,8360,,,,cooking,1
j00699336js,2p1d9ki1ki,"Affordance Norms_South Alabama",1,5,2023-04-16T18:32:56+00:00,4.956337928772,97,"updated stim.csv",Version97.csv,"Version 97","List 97",saucer,,3005,5.777777778,2249,3006,BOI,-,-,"Please name all of the ways you could use this object. Keep in mind that one object can have many uses. Separate your responses with a comma.",,n,4816,,,2192,4359,,,,eating,1
j00699336js,2p1d9ki1ki,"Affordance Norms_South Alabama",1,6,2023-04-16T18:32:59+00:00,2.7142720222473,97,"updated stim.csv",Version97.csv,"Version 97","List 97",grain,,3004,5.217391304,1143,3005,BOI,-,-,"Please name all of the ways you could use this object. Keep in mind that one object can have many uses. Separate your responses with a comma.",,n,2605,,,1538,2395,,,,food,1
j00699336js,2p1d9ki1ki,"Affordance Norms_South Alabama",1,7,2023-04-16T18:33:05+00:00,6.6637260913849,97,"updated stim.csv",Version97.csv,"Version 97","List 97",paperwork,,3001,5.625,1866,3002,BOI,-,-,"Please name all of the ways you could use this object. Keep in mind that one object can have many uses. Separate your responses with a comma.",,n,6550,,,3636,5532,,,,buisness,1
j00699336js,2p1d9ki1ki,"Affordance Norms_South Alabama",1,8,2023-04-16T18:33:09+00:00,3.3204739093781,97,"updated stim.csv",Version97.csv,"Version 97","List 97",spaghetti,,3003,6,2461,3004,BOI,-,-,"Please name all of the ways you could use this object. Keep in mind that one object can have many uses. Separate your responses with a comma.",,n,3215,,,1530,2729,,,,eating,1
j00699336js,2p1d9ki1ki,"Affordance Norms_South Alabama",1,9,2023-04-16T18:33:10+00:00,1.0533621311188,97,"updated stim.csv",Version97.csv,"Version 97","List 97",,,,,,0,Instruct,-,-,"You have completed this section. Press ENTER to continue",,"Instruct 5",929,,,-1,-1,,,,,1
j00699336js,2p1d9ki1ki,"Affordance Norms_South Alabama",1,10,2023-04-16T18:33:11+00:00,1.031133890152,97,"updated stim.csv",Version97.csv,"Version 97","List 97",,,,,,0,Instruct,-,-,"You will now start the full experiment. Press ENTER when you are ready to begin.",,,935,,,-1,-1,,,,,1
j00699336js,2p1d9ki1ki,"Affordance Norms_South Alabama",1,11,2023-04-16T18:33:16+00:00,5.4056339263916,97,"updated stim.csv",Version97.csv,"Version 97","List 97",grenade,,2902,5.2,1173,2903,BOI,-,-,"Please name all of the ways you could use this object. Keep in mind that one object can have many uses. Separate your responses with a comma.",,y,5201,,,1731,4695,,,,destruction,1
j00699336js,2p1d9ki1ki,"Affordance Norms_South Alabama",1,12,2023-04-16T18:33:19+00:00,2.780207157135,97,"updated stim.csv",Version97.csv,"Version 97","List 97",workroom,,2904,4.703703704,2972,2905,BOI,-,-,"Please name all of the ways you could use this object. Keep in mind that one object can have many uses. Separate your responses with a comma.",,y,2671,,,1887,2339,,,,work,1
j00699336js,2p1d9ki1ki,"Affordance Norms_South Alabama",1,13,2023-04-16T18:33:23+00:00,3.8011429309845,97,"updated stim.csv",Version97.csv,"Version 97","List 97",toga,,2903,4.52173913,2718,2904,BOI,-,-,"Please name all of the ways you could use this object. Keep in mind that one object can have many uses. Separate your responses with a comma.",,y,3666,,,2251,3491,,,,greece,1
j00699336js,2p1d9ki1ki,"Affordance Norms_South Alabama",1,14,2023-04-16T18:33:27+00:00,4.6415159702301,97,"updated stim.csv",Version97.csv,"Version 97","List 97",flypaper,,2906,5.037037037,1021,2907,BOI,-,-,"Please name all of the ways you could use this object. Keep in mind that one object can have many uses. Separate your responses with a comma.",,y,4505,,,1872,3657,,,,airplane,1
j00699336js,2p1d9ki1ki,"Affordance Norms_South Alabama",1,15,2023-04-16T18:33:31+00:00,3.2489321231842,97,"updated stim.csv",Version97.csv,"Version 97","List 97",candy,,2901,6.4,412,2902,BOI,-,-,"Please name all of the ways you could use this object. Keep in mind that one object can have many uses. Separate your responses with a comma.",,y,3110,,,2042,2859,,,,food,1
j00699336js,2p1d9ki1ki,"Affordance Norms_South Alabama",1,16,2023-04-16T18:33:37+00:00,6.7269349098206,97,"updated stim.csv",Version97.csv,"Version 97","List 97",keg,,2881,4.962962963,1404,2882,BOI,-,-,"Please name all of the ways you could use this object. Keep in mind that one object can have many uses. Separate your responses with a comma.",,y,6575,,,3611,5476,,,,drinking,1
j00699336js,2p1d9ki1ki,"Affordance Norms_South Alabama",1,17,2023-04-16T18:33:49+00:00,12.09876704216,97,"updated stim.csv",Version97.csv,"Version 97","List 97",passerby,,2907,4.44,1881,2908,BOI,-,-,"Please name all of the ways you could use this object. Keep in mind that one object can have many uses. Separate your responses with a comma.",,y,12015,,,10449,11823,,,,signal,1
j00699336js,2p1d9ki1ki,"Affordance Norms_South Alabama",1,18,2023-04-16T18:33:53+00:00,3.3043789863586,97,"updated stim.csv",Version97.csv,"Version 97","List 97",athlete,,2899,4.916666667,92,2900,BOI,-,-,"Please name all of the ways you could use this object. Keep in mind that one object can have many uses. Separate your responses with a comma.",,y,3201,,,1631,2704,,,,sports,1
j00699336js,2p1d9ki1ki,"Affordance Norms_South Alabama",1,19,2023-04-16T18:33:57+00:00,3.8865280151367,97,"updated stim.csv",Version97.csv,"Version 97","List 97",marigold,,2890,4.75,1605,2891,BOI,-,-,"Please name all of the ways you could use this object. Keep in mind that one object can have many uses. Separate your responses with a comma.",,y,3699,,,1803,3142,,,,clothes,1
j00699336js,2p1d9ki1ki,"Affordance Norms_South Alabama",1,20,2023-04-16T18:34:02+00:00,5.4105269908905,97,"updated stim.csv",Version97.csv,"Version 97","List 97",lesion,,2889,4.481481481,1494,2890,BOI,-,-,"Please name all of the ways you could use this object. Keep in mind that one object can have many uses. Separate your responses with a comma.",,y,5211,,,3411,4962,,,,person,1
j00699336js,2p1d9ki1ki,"Affordance Norms_South Alabama",1,21,2023-04-16T18:34:09+00:00,6.521712064743,97,"updated stim.csv",Version97.csv,"Version 97","List 97",handclap,,2891,4.434782609,1234,2892,BOI,-,-,"Please name all of the ways you could use this object. Keep in mind that one object can have many uses. Separate your responses with a comma.",,y,6399,,,4016,5410,,,,applaud,1
j00699336js,2p1d9ki1ki,"Affordance Norms_South Alabama",1,22,2023-04-16T18:34:11+00:00,2.5534019470215,97,"updated stim.csv",Version97.csv,"Version 97","List 97",peony,,2886,4.333333333,1919,2887,BOI,-,-,"Please name all of the ways you could use this object. Keep in mind that one object can have many uses. Separate your responses with a comma.",,y,2448,,,1826,2213,,,,food,1
j00699336js,2p1d9ki1ki,"Affordance Norms_South Alabama",1,23,2023-04-16T18:34:13+00:00,2.1600430011749,97,"updated stim.csv",Version97.csv,"Version 97","List 97",clips,,2892,4.52,563,2893,BOI,-,-,"Please name all of the ways you could use this object. Keep in mind that one object can have many uses. Separate your responses with a comma.",,y,2073,,,1151,1812,,,,movie,1
j00699336js,2p1d9ki1ki,"Affordance Norms_South Alabama",1,24,2023-04-16T18:34:17+00:00,3.7809000015259,97,"updated stim.csv",Version97.csv,"Version 97","List 97",walrus,,2910,4.875,2891,2911,BOI,-,-,"Please name all of the ways you could use this object. Keep in mind that one object can have many uses. Separate your responses with a comma.",,y,3600,,,2221,3033,,,,animal,1
j00699336js,2p1d9ki1ki,"Affordance Norms_South Alabama",1,25,2023-04-16T18:34:22+00:00,4.7880158424377,97,"updated stim.csv",Version97.csv,"Version 97","List 97",voter,,2895,4.75,2875,2896,BOI,-,-,"Please name all of the ways you could use this object. Keep in mind that one object can have many uses. Separate your responses with a comma.",,y,4693,,,2426,4171,,,,election,1
j00699336js,2p1d9ki1ki,"Affordance Norms_South Alabama",1,26,2023-04-16T18:34:26+00:00,4.1291530132294,97,"updated stim.csv",Version97.csv,"Version 97","List 97",package,,2908,5.75,1837,2909,BOI,-,-,"Please name all of the ways you could use this object. Keep in mind that one object can have many uses. Separate your responses with a comma.",,y,4031,,,1769,3730,,,,amazon,1
j00699336js,2p1d9ki1ki,"Affordance Norms_South Alabama",1,27,2023-04-16T18:34:32+00:00,5.8670101165771,97,"updated stim.csv",Version97.csv,"Version 97","List 97",truck,,2882,6.041666667,2785,2883,BOI,-,-,"Please name all of the ways you could use this object. Keep in mind that one object can have many uses. Separate your responses with a comma.",,y,5610,,,1687,4882,,,,transportation,1
j00699336js,2p1d9ki1ki,"Affordance Norms_South Alabama",1,28,2023-04-16T18:34:34+00:00,2.264643907547,97,"updated stim.csv",Version97.csv,"Version 97","List 97",manure,,2898,4.708333333,1598,2899,BOI,-,-,"Please name all of the ways you could use this object. Keep in mind that one object can have many uses. Separate your responses with a comma.",,y,2165,,,1632,1918,,,,cow,1
j00699336js,2p1d9ki1ki,"Affordance Norms_South Alabama",1,29,2023-04-16T18:34:36+00:00,1.9072360992432,97,"updated stim.csv",Version97.csv,"Version 97","List 97",noodles,,2887,5.695652174,1777,2888,BOI,-,-,"Please name all of the ways you could use this object. Keep in mind that one object can have many uses. Separate your responses with a comma.",,y,1708,,,1135,1511,,,,food,1
j00699336js,2p1d9ki1ki,"Affordance Norms_South Alabama",1,30,2023-04-16T18:34:40+00:00,4.3410520553589,97,"updated stim.csv",Version97.csv,"Version 97","List 97",sunroof,,2888,4.814814815,2589,2889,BOI,-,-,"Please name all of the ways you could use this object. Keep in mind that one object can have many uses. Separate your responses with a comma.",,y,4134,,,1551,3422,,,,corvette,1
j00699336js,2p1d9ki1ki,"Affordance Norms_South Alabama",1,31,2023-04-16T18:34:47+00:00,6.4241409301758,97,"updated stim.csv",Version97.csv,"Version 97","List 97",airman,,2885,4.36,21,2886,BOI,-,-,"Please name all of the ways you could use this object. Keep in mind that one object can have many uses. Separate your responses with a comma.",,y,6297,,,1597,5770,,,,tuskegee,1
j00699336js,2p1d9ki1ki,"Affordance Norms_South Alabama",1,32,2023-04-16T18:34:49+00:00,2.5075759887695,97,"updated stim.csv",Version97.csv,"Version 97","List 97",bath,,2883,5.964285714,167,2884,BOI,-,-,"Please name all of the ways you could use this object. Keep in mind that one object can have many uses. Separate your responses with a comma.",,y,2382,,,1418,2070,,,,clean,1
j00699336js,2p1d9ki1ki,"Affordance Norms_South Alabama",1,33,2023-04-16T18:34:54+00:00,5.1220209598541,97,"updated stim.csv",Version97.csv,"Version 97","List 97",hug,,2909,4.652173913,1335,2910,BOI,-,-,"Please name all of the ways you could use this object. Keep in mind that one object can have many uses. Separate your responses with a comma.",,y,4993,,,1186,4490,,,,love,1
j00699336js,2p1d9ki1ki,"Affordance Norms_South Alabama",1,34,2023-04-16T18:34:58+00:00,3.9072141647339,97,"updated stim.csv",Version97.csv,"Version 97","List 97",concrete,,2897,5.166666667,619,2898,BOI,-,-,"Please name all of the ways you could use this object. Keep in mind that one object can have many uses. Separate your responses with a comma.",,y,3764,,,1652,3343,,,,street,1
j00699336js,2p1d9ki1ki,"Affordance Norms_South Alabama",1,35,2023-04-16T18:35:11+00:00,12.492653846741,97,"updated stim.csv",Version97.csv,"Version 97","List 97",mathematician,,2893,4.272727273,1624,2894,BOI,-,-,"Please name all of the ways you could use this object. Keep in mind that one object can have many uses. Separate your responses with a comma.",,y,12364,,,10820,12174,,,,teacher,1
j00699336js,2p1d9ki1ki,"Affordance Norms_South Alabama",1,36,2023-04-16T18:35:14+00:00,3.6243300437927,97,"updated stim.csv",Version97.csv,"Version 97","List 97",saloonkeeper,,2884,4.541666667,2226,2885,BOI,-,-,"Please name all of the ways you could use this object. Keep in mind that one object can have many uses. Separate your responses with a comma.",,y,3488,,,2775,3287,,,,boss,1
j00699336js,2p1d9ki1ki,"Affordance Norms_South Alabama",1,37,2023-04-16T18:35:18+00:00,3.7731919288635,97,"updated stim.csv",Version97.csv,"Version 97","List 97",calves,,2900,5,404,2901,BOI,-,-,"Please name all of the ways you could use this object. Keep in mind that one object can have many uses. Separate your responses with a comma.",,y,3624,,,1858,3523,,,,jumping,1
j00699336js,2p1d9ki1ki,"Affordance Norms_South Alabama",1,38,2023-04-16T18:35:21+00:00,2.2810211181641,97,"updated stim.csv",Version97.csv,"Version 97","List 97",erection,,2894,5.4,919,2895,BOI,-,-,"Please name all of the ways you could use this object. Keep in mind that one object can have many uses. Separate your responses with a comma.",,y,2155,,,1367,1834,,,,sex,1
j00699336js,2p1d9ki1ki,"Affordance Norms_South Alabama",1,39,2023-04-16T18:35:24+00:00,3.2588438987732,97,"updated stim.csv",Version97.csv,"Version 97","List 97",birdbath,,2905,4.916666667,221,2906,BOI,-,-,"Please name all of the ways you could use this object. Keep in mind that one object can have many uses. Separate your responses with a comma.",,y,3048,,,2099,2646,,,,bird,1
j00699336js,2p1d9ki1ki,"Affordance Norms_South Alabama",1,40,2023-04-16T18:35:26+00:00,2.0270280838013,97,"updated stim.csv",Version97.csv,"Version 97","List 97",brush,,2896,6.043478261,337,2897,BOI,-,-,"Please name all of the ways you could use this object. Keep in mind that one object can have many uses. Separate your responses with a comma.",,y,1919,,,1146,1658,,,,hair,1
j00699336js,2p1d9ki1ki,"Affordance Norms_South Alabama",1,41,2023-04-16T18:35:27+00:00,1.1024379730225,97,"updated stim.csv",Version97.csv,"Version 97","List 97",,,,,,0,Instruct,,,"You will now be asked a few questions about your experience today.",,"Instruct 4",972,,,-1,-1,,,,,1
