Username,ID,ExperimentName,Session,Trial,Date,TimeDif,"Condition Number","Stimuli File","Order File","Condition Description","Condition Notes",Stimuli*Cue,Stimuli*Answer,Stimuli*Shuffle,"Stimuli*Stimuli Notes",Stimuli*Value,Procedure*Item,"Procedure*Trial Type","Procedure*Max Time","Procedure*Min Time",Procedure*Text,"Procedure*Procedure Notes",Procedure*Shuffle,Response*RT,Response*Response,Response*Accuracy,Response*RTfirst,Response*RTlast,Response*strictAcc,Response*lenientAcc,Response*focus,Response*JOL,Response*Focus
J00705279,884pwkqr2s,"Affordance Norms_South Alabama",1,1,2023-03-24T18:54:09+00:00,16.195770025253,2,"updated stim.csv",Version2.csv,"Version 2","List 2",,,,,,0,Instruct,-,10,"In this section, you will be presented with a series of objects. Please name as many possible uses for this object as you can think of by typing them in the box below each object.",,Instruct1,15889,,,-1,-1,,,,,1
J00705279,884pwkqr2s,"Affordance Norms_South Alabama",1,2,2023-03-24T18:54:20+00:00,11.480165958405,2,"updated stim.csv",Version2.csv,"Version 2","List 2",,,,,,0,Instruct,-,10,"Please keep in mind that a single object will have more than one use. For example, a ball can be thrown or can be bounced or even stepped on. When listing multiple uses for one object, please separate each use with a comma (i.e., thrown, bounced, stepped on)",,Instruct2,11009,,,-1,-1,,,,,1
J00705279,884pwkqr2s,"Affordance Norms_South Alabama",1,3,2023-03-24T18:54:28+00:00,7.3015470504761,2,"updated stim.csv",Version2.csv,"Version 2","List 2",,,,,,0,Instruct,-,-,"Before starting the experiment, you will complete a short practice sesstion. Press ENTER when you are ready to begin.",,Instruct3,6861,,,-1,-1,,,,,1
J00705279,884pwkqr2s,"Affordance Norms_South Alabama",1,4,2023-03-24T18:54:32+00:00,4.8141510486603,2,"updated stim.csv",Version2.csv,"Version 2","List 2",grain,,3004,5.217391304,1143,3005,BOI,-,-,"Please name all of the ways you could use this object. Keep in mind that one object can have many uses. Separate your responses with a comma.",,n,4377,,,2696,3266,,,,"Rice ",1
J00705279,884pwkqr2s,"Affordance Norms_South Alabama",1,5,2023-03-24T18:54:46+00:00,13.30456495285,2,"updated stim.csv",Version2.csv,"Version 2","List 2",saucer,,3005,5.777777778,2249,3006,BOI,-,-,"Please name all of the ways you could use this object. Keep in mind that one object can have many uses. Separate your responses with a comma.",,n,12879,,,5683,10904,,,,"Space, plate, ",1
J00705279,884pwkqr2s,"Affordance Norms_South Alabama",1,6,2023-03-24T18:56:02+00:00,75.912157058716,2,"updated stim.csv",Version2.csv,"Version 2","List 2",paperwork,,3001,5.625,1866,3002,BOI,-,-,"Please name all of the ways you could use this object. Keep in mind that one object can have many uses. Separate your responses with a comma.",,n,75461,,,62101,65887,,,,"School, work, ",1
J00705279,884pwkqr2s,"Affordance Norms_South Alabama",1,7,2023-03-24T18:56:30+00:00,28.756216049194,2,"updated stim.csv",Version2.csv,"Version 2","List 2",spaghetti,,3003,6,2461,3004,BOI,-,-,"Please name all of the ways you could use this object. Keep in mind that one object can have many uses. Separate your responses with a comma.",,n,28339,,,3113,27180,,,,"Dinner, noodles, tacos, lunch",1
J00705279,884pwkqr2s,"Affordance Norms_South Alabama",1,8,2023-03-24T18:56:54+00:00,23.40193605423,2,"updated stim.csv",Version2.csv,"Version 2","List 2",shortening,,3002,4.92,2358,3003,BOI,-,-,"Please name all of the ways you could use this object. Keep in mind that one object can have many uses. Separate your responses with a comma.",,n,22948,,,5314,21769,,,,"Hair, nails, sentences ",1
J00705279,884pwkqr2s,"Affordance Norms_South Alabama",1,9,2023-03-24T18:56:57+00:00,2.8571348190308,2,"updated stim.csv",Version2.csv,"Version 2","List 2",,,,,,0,Instruct,-,-,"You have completed this section. Press ENTER to continue",,"Instruct 5",2544,,,-1,-1,,,,,1
J00705279,884pwkqr2s,"Affordance Norms_South Alabama",1,10,2023-03-24T18:56:59+00:00,2.5548310279846,2,"updated stim.csv",Version2.csv,"Version 2","List 2",,,,,,0,Instruct,-,-,"You will now start the full experiment. Press ENTER when you are ready to begin.",,,2223,,,-1,-1,,,,,1
J00705279,884pwkqr2s,"Affordance Norms_South Alabama",1,11,2023-03-24T18:57:36+00:00,36.898704051971,2,"updated stim.csv",Version2.csv,"Version 2","List 2",bottle,,35,5.464285714,287,36,BOI,-,-,"Please name all of the ways you could use this object. Keep in mind that one object can have many uses. Separate your responses with a comma.",,y,36174,,,2117,33946,,,,"Water, coke, ketchup, mustard, ranch, ",1
J00705279,884pwkqr2s,"Affordance Norms_South Alabama",1,12,2023-03-24T18:57:41+00:00,5.1939799785614,2,"updated stim.csv",Version2.csv,"Version 2","List 2",undergarment,,58,6.074074074,2822,59,BOI,-,-,"Please name all of the ways you could use this object. Keep in mind that one object can have many uses. Separate your responses with a comma.",,y,4728,,,2580,3723,,,,"Clothing ",1
J00705279,884pwkqr2s,"Affordance Norms_South Alabama",1,13,2023-03-24T18:57:52+00:00,11.068988084793,2,"updated stim.csv",Version2.csv,"Version 2","List 2",boot,,41,6.555555556,281,42,BOI,-,-,"Please name all of the ways you could use this object. Keep in mind that one object can have many uses. Separate your responses with a comma.",,y,10524,,,2063,5932,,,,"Shoe, car, ",1
J00705279,884pwkqr2s,"Affordance Norms_South Alabama",1,14,2023-03-24T18:57:56+00:00,3.6206159591675,2,"updated stim.csv",Version2.csv,"Version 2","List 2",turban,,40,5.148148148,2799,41,BOI,-,-,"Please name all of the ways you could use this object. Keep in mind that one object can have many uses. Separate your responses with a comma.",,y,3328,,,2085,2416,,,,"Idk ",1
J00705279,884pwkqr2s,"Affordance Norms_South Alabama",1,15,2023-03-24T18:58:01+00:00,4.9607028961182,2,"updated stim.csv",Version2.csv,"Version 2","List 2",goalpost,,37,4.84,1121,38,BOI,-,-,"Please name all of the ways you could use this object. Keep in mind that one object can have many uses. Separate your responses with a comma.",,y,4411,,,3133,3504,,,,"Idk ",1
J00705279,884pwkqr2s,"Affordance Norms_South Alabama",1,16,2023-03-24T18:58:18+00:00,17.41912317276,2,"updated stim.csv",Version2.csv,"Version 2","List 2",toy,,43,6.08,2750,44,BOI,-,-,"Please name all of the ways you could use this object. Keep in mind that one object can have many uses. Separate your responses with a comma.",,y,16944,,,2371,14138,,,,"Kids, dog, cat, truck, ball, ",1
J00705279,884pwkqr2s,"Affordance Norms_South Alabama",1,17,2023-03-24T18:58:35+00:00,16.52285695076,2,"updated stim.csv",Version2.csv,"Version 2","List 2",antibiotics,,55,4.956521739,48,56,BOI,-,-,"Please name all of the ways you could use this object. Keep in mind that one object can have many uses. Separate your responses with a comma.",,y,16052,,,2067,2588,,,,"Sick ",1
J00705279,884pwkqr2s,"Affordance Norms_South Alabama",1,18,2023-03-24T18:59:51+00:00,75.999657869339,2,"updated stim.csv",Version2.csv,"Version 2","List 2",godmother,,46,5.19047619,1128,47,BOI,-,-,"Please name all of the ways you could use this object. Keep in mind that one object can have many uses. Separate your responses with a comma.",,y,75576,,,5496,7077,,,,"Caretaker ",1
J00705279,884pwkqr2s,"Affordance Norms_South Alabama",1,19,2023-03-24T18:59:57+00:00,5.6913361549377,2,"updated stim.csv",Version2.csv,"Version 2","List 2",teabag,,42,6.32,2642,43,BOI,-,-,"Please name all of the ways you could use this object. Keep in mind that one object can have many uses. Separate your responses with a comma.",,y,5252,,,2393,4314,,,,"Sweet tea ",1
J00705279,884pwkqr2s,"Affordance Norms_South Alabama",1,20,2023-03-24T19:00:12+00:00,15.603225946426,2,"updated stim.csv",Version2.csv,"Version 2","List 2",dolphin,,48,4.52,817,49,BOI,-,-,"Please name all of the ways you could use this object. Keep in mind that one object can have many uses. Separate your responses with a comma.",,y,15179,,,1868,12757,,,,"Ocean, cruise, ",1
J00705279,884pwkqr2s,"Affordance Norms_South Alabama",1,21,2023-03-24T19:00:24+00:00,11.89185500145,2,"updated stim.csv",Version2.csv,"Version 2","List 2",blower,,53,4.48,245,54,BOI,-,-,"Please name all of the ways you could use this object. Keep in mind that one object can have many uses. Separate your responses with a comma.",,y,11485,,,2696,9828,,,,"Leaf, hair dryer",1
J00705279,884pwkqr2s,"Affordance Norms_South Alabama",1,22,2023-03-24T19:00:34+00:00,9.6639049053192,2,"updated stim.csv",Version2.csv,"Version 2","List 2",skittles,,38,5.24,2402,39,BOI,-,-,"Please name all of the ways you could use this object. Keep in mind that one object can have many uses. Separate your responses with a comma.",,y,9107,,,1789,6015,,,,Candy,1
J00705279,884pwkqr2s,"Affordance Norms_South Alabama",1,23,2023-03-24T19:00:37+00:00,3.2899701595306,2,"updated stim.csv",Version2.csv,"Version 2","List 2",newscaster,,32,4.347826087,1757,33,BOI,-,-,"Please name all of the ways you could use this object. Keep in mind that one object can have many uses. Separate your responses with a comma.",,y,3030,,,1788,2145,,,,"Idk ",1
J00705279,884pwkqr2s,"Affordance Norms_South Alabama",1,24,2023-03-24T19:00:45+00:00,7.4997599124908,2,"updated stim.csv",Version2.csv,"Version 2","List 2",tripe,,56,4.7,2778,57,BOI,-,-,"Please name all of the ways you could use this object. Keep in mind that one object can have many uses. Separate your responses with a comma.",,y,7081,,,1798,6164,,,,"I don’t know ",1
J00705279,884pwkqr2s,"Affordance Norms_South Alabama",1,25,2023-03-24T19:00:57+00:00,12.644094944,2,"updated stim.csv",Version2.csv,"Version 2","List 2",lettuce,,33,6.083333333,1497,34,BOI,-,-,"Please name all of the ways you could use this object. Keep in mind that one object can have many uses. Separate your responses with a comma.",,y,12195,,,1747,7607,,,,"Salad, taco, burger, ",1
J00705279,884pwkqr2s,"Affordance Norms_South Alabama",1,26,2023-03-24T19:01:08+00:00,11.211948156357,2,"updated stim.csv",Version2.csv,"Version 2","List 2",trap,,57,4.695652174,2762,58,BOI,-,-,"Please name all of the ways you could use this object. Keep in mind that one object can have many uses. Separate your responses with a comma.",,y,10760,,,2043,3862,,,,Mouse,1
J00705279,884pwkqr2s,"Affordance Norms_South Alabama",1,27,2023-03-24T19:01:16+00:00,7.2364017963409,2,"updated stim.csv",Version2.csv,"Version 2","List 2",gunpowder,,54,4.96,1201,55,BOI,-,-,"Please name all of the ways you could use this object. Keep in mind that one object can have many uses. Separate your responses with a comma.",,y,6800,,,5235,5666,,,,"Gun ",1
J00705279,884pwkqr2s,"Affordance Norms_South Alabama",1,28,2023-03-24T19:01:24+00:00,8.6675310134888,2,"updated stim.csv",Version2.csv,"Version 2","List 2",choreographer,,44,4.826086957,535,45,BOI,-,-,"Please name all of the ways you could use this object. Keep in mind that one object can have many uses. Separate your responses with a comma.",,y,8244,,,2265,7270,,,,"Dancer, singer ",1
J00705279,884pwkqr2s,"Affordance Norms_South Alabama",1,29,2023-03-24T19:01:30+00:00,5.9782390594482,2,"updated stim.csv",Version2.csv,"Version 2","List 2",mice,,47,5,1653,48,BOI,-,-,"Please name all of the ways you could use this object. Keep in mind that one object can have many uses. Separate your responses with a comma.",,y,5572,,,3730,4563,,,,"Cheese ",1
J00705279,884pwkqr2s,"Affordance Norms_South Alabama",1,30,2023-03-24T19:01:35+00:00,5.2097210884094,2,"updated stim.csv",Version2.csv,"Version 2","List 2",gondola,,52,4.916666667,1137,53,BOI,-,-,"Please name all of the ways you could use this object. Keep in mind that one object can have many uses. Separate your responses with a comma.",,y,4798,,,2327,3933,,,,"I don’t know ",1
J00705279,884pwkqr2s,"Affordance Norms_South Alabama",1,31,2023-03-24T19:01:45+00:00,9.8230419158936,2,"updated stim.csv",Version2.csv,"Version 2","List 2",hotplate,,45,5.230769231,1323,46,BOI,-,-,"Please name all of the ways you could use this object. Keep in mind that one object can have many uses. Separate your responses with a comma.",,y,9343,,,5468,8426,,,,"Food ",1
J00705279,884pwkqr2s,"Affordance Norms_South Alabama",1,32,2023-03-24T19:01:55+00:00,9.2268199920654,2,"updated stim.csv",Version2.csv,"Version 2","List 2",courtyard,,31,4.392857143,668,32,BOI,-,-,"Please name all of the ways you could use this object. Keep in mind that one object can have many uses. Separate your responses with a comma.",,y,8710,,,3571,7833,,,,"Outside, food ",1
J00705279,884pwkqr2s,"Affordance Norms_South Alabama",1,33,2023-03-24T19:01:59+00:00,4.5664930343628,2,"updated stim.csv",Version2.csv,"Version 2","List 2",satchel,,36,5.583333333,2245,37,BOI,-,-,"Please name all of the ways you could use this object. Keep in mind that one object can have many uses. Separate your responses with a comma.",,y,4069,,,2258,3026,,,,"Purse ",1
J00705279,884pwkqr2s,"Affordance Norms_South Alabama",1,34,2023-03-24T19:02:03+00:00,3.9504859447479,2,"updated stim.csv",Version2.csv,"Version 2","List 2",coverall,,50,4.739130435,670,51,BOI,-,-,"Please name all of the ways you could use this object. Keep in mind that one object can have many uses. Separate your responses with a comma.",,y,3659,,,2506,2819,,,,"Idk ",1
J00705279,884pwkqr2s,"Affordance Norms_South Alabama",1,35,2023-03-24T19:02:06+00:00,3.2443470954895,2,"updated stim.csv",Version2.csv,"Version 2","List 2",barman,,39,4.818181818,150,40,BOI,-,-,"Please name all of the ways you could use this object. Keep in mind that one object can have many uses. Separate your responses with a comma.",,y,3013,,,1867,2215,,,,"Idk ",1
J00705279,884pwkqr2s,"Affordance Norms_South Alabama",1,36,2023-03-24T19:02:10+00:00,3.8063950538635,2,"updated stim.csv",Version2.csv,"Version 2","List 2",yourself,,34,5.583333333,2998,35,BOI,-,-,"Please name all of the ways you could use this object. Keep in mind that one object can have many uses. Separate your responses with a comma.",,y,3573,,,2389,2654,,,,"Me ",1
J00705279,884pwkqr2s,"Affordance Norms_South Alabama",1,37,2023-03-24T19:02:15+00:00,5.3392000198364,2,"updated stim.csv",Version2.csv,"Version 2","List 2",yogurt,,49,6.347826087,2994,50,BOI,-,-,"Please name all of the ways you could use this object. Keep in mind that one object can have many uses. Separate your responses with a comma.",,y,4947,,,2540,3966,,,,"Breakfast ",1
J00705279,884pwkqr2s,"Affordance Norms_South Alabama",1,38,2023-03-24T19:02:25+00:00,9.749030828476,2,"updated stim.csv",Version2.csv,"Version 2","List 2",assemblyman,,59,4.72,89,60,BOI,-,-,"Please name all of the ways you could use this object. Keep in mind that one object can have many uses. Separate your responses with a comma.",,y,9318,,,2133,8406,,,,"Fix things ",1
J00705279,884pwkqr2s,"Affordance Norms_South Alabama",1,39,2023-03-24T19:02:34+00:00,8.9646489620209,2,"updated stim.csv",Version2.csv,"Version 2","List 2",rainwater,,60,5.407407407,2133,61,BOI,-,-,"Please name all of the ways you could use this object. Keep in mind that one object can have many uses. Separate your responses with a comma.",,y,8518,,,1759,7684,,,,"Rain, gutter, water ",1
J00705279,884pwkqr2s,"Affordance Norms_South Alabama",1,40,2023-03-24T19:02:43+00:00,9.3003740310669,2,"updated stim.csv",Version2.csv,"Version 2","List 2",prankster,,51,4.642857143,2058,52,BOI,-,-,"Please name all of the ways you could use this object. Keep in mind that one object can have many uses. Separate your responses with a comma.",,y,8847,,,3232,7765,,,,"Funny, comedy ",1
J00705279,884pwkqr2s,"Affordance Norms_South Alabama",1,41,2023-03-24T19:02:46+00:00,2.9263761043549,2,"updated stim.csv",Version2.csv,"Version 2","List 2",,,,,,0,Instruct,,,"You will now be asked a few questions about your experience today.",,"Instruct 4",2680,,,-1,-1,,,,,1
