Username,ID,ExperimentName,Session,Trial,Date,TimeDif,"Condition Number","Stimuli File","Order File","Condition Description","Condition Notes",Stimuli*Cue,Stimuli*Answer,Stimuli*Shuffle,"Stimuli*Stimuli Notes",Stimuli*Value,Procedure*Item,"Procedure*Trial Type","Procedure*Max Time","Procedure*Min Time",Procedure*Text,"Procedure*Procedure Notes",Procedure*Shuffle,Response*RT,Response*Response,Response*Accuracy,Response*RTfirst,Response*RTlast,Response*strictAcc,Response*lenientAcc,Response*focus,Response*JOL,Response*Focus
J00722351slc,dpvqkw8jkg,"Affordance Norms_South Alabama",1,1,2023-03-22T21:20:49+00:00,49.013620138168,96,"updated stim.csv",Version96.csv,"Version 96","List 96",,,,,,0,Instruct,-,10,"In this section, you will be presented with a series of objects. Please name as many possible uses for this object as you can think of by typing them in the box below each object.",,Instruct1,48242,,,-1,-1,,,,,1
J00722351slc,dpvqkw8jkg,"Affordance Norms_South Alabama",1,2,2023-03-22T21:21:04+00:00,14.931773900986,96,"updated stim.csv",Version96.csv,"Version 96","List 96",,,,,,0,Instruct,-,10,"Please keep in mind that a single object will have more than one use. For example, a ball can be thrown or can be bounced or even stepped on. When listing multiple uses for one object, please separate each use with a comma (i.e., thrown, bounced, stepped on)",,Instruct2,13272,,,-1,-1,,,,,1
J00722351slc,dpvqkw8jkg,"Affordance Norms_South Alabama",1,3,2023-03-22T21:21:12+00:00,8.2517631053925,96,"updated stim.csv",Version96.csv,"Version 96","List 96",,,,,,0,Instruct,-,-,"Before starting the experiment, you will complete a short practice sesstion. Press ENTER when you are ready to begin.",,Instruct3,5999,,,-1,-1,,,,,1
J00722351slc,dpvqkw8jkg,"Affordance Norms_South Alabama",1,4,2023-03-22T21:23:49+00:00,156.95982789993,96,"updated stim.csv",Version96.csv,"Version 96","List 96",spaghetti,,3003,6,2461,3004,BOI,-,-,"Please name all of the ways you could use this object. Keep in mind that one object can have many uses. Separate your responses with a comma.",,n,154744,,,15569,138461,,,,"eat,throw,make,warm up,throw out,mix,drop,cut,twirl it,",1
J00722351slc,dpvqkw8jkg,"Affordance Norms_South Alabama",1,5,2023-03-22T21:25:50+00:00,121.33619809151,96,"updated stim.csv",Version96.csv,"Version 96","List 96",paperwork,,3001,5.625,1866,3002,BOI,-,-,"Please name all of the ways you could use this object. Keep in mind that one object can have many uses. Separate your responses with a comma.",,n,120528,,,10011,98505,,,,"throw away,shred,give,get,make,cut,study,put away,staple,handle it,sort",1
J00722351slc,dpvqkw8jkg,"Affordance Norms_South Alabama",1,6,2023-03-22T21:27:30+00:00,99.909935951233,96,"updated stim.csv",Version96.csv,"Version 96","List 96",shortening,,3002,4.92,2358,3003,BOI,-,-,"Please name all of the ways you could use this object. Keep in mind that one object can have many uses. Separate your responses with a comma.",,n,95071,,,69595,93887,,,,"use it,throw away,give away,get it,make things with it",1
J00722351slc,dpvqkw8jkg,"Affordance Norms_South Alabama",1,7,2023-03-22T21:30:03+00:00,152.67164993286,96,"updated stim.csv",Version96.csv,"Version 96","List 96",saucer,,3005,5.777777778,2249,3006,BOI,-,-,"Please name all of the ways you could use this object. Keep in mind that one object can have many uses. Separate your responses with a comma.",,n,150982,,,31552,91459,,,,"use,make things on it,throw away,give away,lose it",1
J00722351slc,dpvqkw8jkg,"Affordance Norms_South Alabama",1,8,2023-03-22T21:32:25+00:00,142.3832321167,96,"updated stim.csv",Version96.csv,"Version 96","List 96",grain,,3004,5.217391304,1143,3005,BOI,-,-,"Please name all of the ways you could use this object. Keep in mind that one object can have many uses. Separate your responses with a comma.",,n,141413,,,5259,120057,,,,"plant,use,make,eat,portion,measure it,feed,manufacture it,harvest",1
J00722351slc,dpvqkw8jkg,"Affordance Norms_South Alabama",1,9,2023-03-22T21:32:30+00:00,4.8832409381866,96,"updated stim.csv",Version96.csv,"Version 96","List 96",,,,,,0,Instruct,-,-,"You have completed this section. Press ENTER to continue",,"Instruct 5",3279,,,-1,-1,,,,,1
J00722351slc,dpvqkw8jkg,"Affordance Norms_South Alabama",1,10,2023-03-22T21:32:39+00:00,9.225594997406,96,"updated stim.csv",Version96.csv,"Version 96","List 96",,,,,,0,Instruct,-,-,"You will now start the full experiment. Press ENTER when you are ready to begin.",,,8217,,,-1,-1,,,,,1
J00722351slc,dpvqkw8jkg,"Affordance Norms_South Alabama",1,11,2023-03-22T21:35:11+00:00,151.55736398697,96,"updated stim.csv",Version96.csv,"Version 96","List 96",clock,,2863,4.714285714,566,2864,BOI,-,-,"Please name all of the ways you could use this object. Keep in mind that one object can have many uses. Separate your responses with a comma.",,y,150391,,,7261,145634,,,,"tell time,break,manipulate,go forward,time change,go backwards,paint,draw,throw,give,buy,understand,explain",1
J00722351slc,dpvqkw8jkg,"Affordance Norms_South Alabama",1,12,2023-03-22T21:37:05+00:00,114.01755785942,96,"updated stim.csv",Version96.csv,"Version 96","List 96",okra,,2873,5.269230769,1805,2874,BOI,-,-,"Please name all of the ways you could use this object. Keep in mind that one object can have many uses. Separate your responses with a comma.",,y,113695,,,3381,102794,,,,"eat,make,give,get,buy,cook,try,spit it out,fry,boil",1
J00722351slc,dpvqkw8jkg,"Affordance Norms_South Alabama",1,13,2023-03-22T21:39:03+00:00,118.12746310234,96,"updated stim.csv",Version96.csv,"Version 96","List 96",backscratcher,,2865,5.52,117,2866,BOI,-,-,"Please name all of the ways you could use this object. Keep in mind that one object can have many uses. Separate your responses with a comma.",,y,117567,,,10598,108666,,,,"Be one, get one, give one, have one, take one, buy one, gift one, sell one, make one, use one",1
J00722351slc,dpvqkw8jkg,"Affordance Norms_South Alabama",1,14,2023-03-22T21:41:37+00:00,154.12545204163,96,"updated stim.csv",Version96.csv,"Version 96","List 96",educator,,2871,5,890,2872,BOI,-,-,"Please name all of the ways you could use this object. Keep in mind that one object can have many uses. Separate your responses with a comma.",,y,153572,,,6951,142589,,,,"become one, suggest one, learn from one, find one, consult one, question one, multiple educators, admire one, befriend one",1
J00722351slc,dpvqkw8jkg,"Affordance Norms_South Alabama",1,15,2023-03-22T21:43:00+00:00,82.311058998108,96,"updated stim.csv",Version96.csv,"Version 96","List 96",cornflakes,,2854,5.6,647,2855,BOI,-,-,"Please name all of the ways you could use this object. Keep in mind that one object can have many uses. Separate your responses with a comma.",,y,81794,,,2629,59984,,,,"eat,make,make candy,heat,chill it,sell it,buy it,trade it,",1
J00722351slc,dpvqkw8jkg,"Affordance Norms_South Alabama",1,16,2023-03-22T21:44:27+00:00,87.122021913528,96,"updated stim.csv",Version96.csv,"Version 96","List 96",walnut,,2879,5.791666667,2890,2880,BOI,-,-,"Please name all of the ways you could use this object. Keep in mind that one object can have many uses. Separate your responses with a comma.",,y,86635,,,5731,84996,,,,"allergen,eat,make stuff with it,bake it,roast it,throw away,buy,sell",1
J00722351slc,dpvqkw8jkg,"Affordance Norms_South Alabama",1,17,2023-03-22T21:46:32+00:00,125.33238911629,96,"updated stim.csv",Version96.csv,"Version 96","List 96",matchwood,,2868,5.210526316,1623,2869,BOI,-,-,"Please name all of the ways you could use this object. Keep in mind that one object can have many uses. Separate your responses with a comma.",,y,123024,,,41121,98122,,,,"burn,throw away,rot,find,get hurt,hit",1
J00722351slc,dpvqkw8jkg,"Affordance Norms_South Alabama",1,18,2023-03-22T21:48:20+00:00,107.52682900429,96,"updated stim.csv",Version96.csv,"Version 96","List 96",pamphlet,,2858,5.565217391,1855,2859,BOI,-,-,"Please name all of the ways you could use this object. Keep in mind that one object can have many uses. Separate your responses with a comma.",,y,106707,,,3485,82775,,,,"read,make,give,get,learn,study,leave,take",1
J00722351slc,dpvqkw8jkg,"Affordance Norms_South Alabama",1,19,2023-03-22T21:53:39+00:00,319.84017896652,96,"updated stim.csv",Version96.csv,"Version 96","List 96",atlas,,2852,5.166666667,93,2853,BOI,-,-,"Please name all of the ways you could use this object. Keep in mind that one object can have many uses. Separate your responses with a comma.",,y,317689,,,9199,311573,,,,"book,Greek mythology,read,educate,give",1
J00722351slc,dpvqkw8jkg,"Affordance Norms_South Alabama",1,20,2023-03-22T22:03:03+00:00,563.86433291435,96,"updated stim.csv",Version96.csv,"Version 96","List 96",aquarium,,2857,5.782608696,68,2858,BOI,-,-,"Please name all of the ways you could use this object. Keep in mind that one object can have many uses. Separate your responses with a comma.",,y,561858,,,10301,534245,,,,"Visit,buy,make,use,look at one,clean,break,compare,search,find,swim in one,teach about one, learn about, fill,different sizes",1
J00722351slc,dpvqkw8jkg,"Affordance Norms_South Alabama",1,21,2023-03-22T22:05:23+00:00,139.28327798843,96,"updated stim.csv",Version96.csv,"Version 96","List 96",dustbin,,2880,5.708333333,869,2881,BOI,-,-,"Please name all of the ways you could use this object. Keep in mind that one object can have many uses. Separate your responses with a comma.",,y,138930,,,33918,117282,,,,"Buy, hold, different sizes,sell, break",1
J00722351slc,dpvqkw8jkg,"Affordance Norms_South Alabama",1,22,2023-03-22T22:08:45+00:00,202.10307312012,96,"updated stim.csv",Version96.csv,"Version 96","List 96",clerk,,2860,4.68,557,2861,BOI,-,-,"Please name all of the ways you could use this object. Keep in mind that one object can have many uses. Separate your responses with a comma.",,y,199783,,,7221,174082,,,,"be one, talk to one, different kinds, hire, find one ",1
J00722351slc,dpvqkw8jkg,"Affordance Norms_South Alabama",1,23,2023-03-22T22:10:47+00:00,122.2416908741,96,"updated stim.csv",Version96.csv,"Version 96","List 96",tunic,,2874,4.76,2798,2875,BOI,-,-,"Please name all of the ways you could use this object. Keep in mind that one object can have many uses. Separate your responses with a comma.",,y,121153,,,30989,117025,,,,"wear,make,sell,buy,rip,throw away,burn,customize",1
J00722351slc,dpvqkw8jkg,"Affordance Norms_South Alabama",1,24,2023-03-22T22:12:12+00:00,85.399914979935,96,"updated stim.csv",Version96.csv,"Version 96","List 96",wristband,,2876,5.583333333,2983,2877,BOI,-,-,"Please name all of the ways you could use this object. Keep in mind that one object can have many uses. Separate your responses with a comma.",,y,82346,,,5629,82057,,,,"wear,make,sell,buy,trade,give away,customize,color",1
J00722351slc,dpvqkw8jkg,"Affordance Norms_South Alabama",1,25,2023-03-22T22:13:34+00:00,81.93271112442,96,"updated stim.csv",Version96.csv,"Version 96","List 96",sixpence,,2870,4.380952381,2388,2871,BOI,-,-,"Please name all of the ways you could use this object. Keep in mind that one object can have many uses. Separate your responses with a comma.",,y,80114,,,26480,42205,,,,"buy,collect,look,sell,flip,trade",1
J00722351slc,dpvqkw8jkg,"Affordance Norms_South Alabama",1,26,2023-03-22T22:14:48+00:00,73.5638859272,96,"updated stim.csv",Version96.csv,"Version 96","List 96",honeycomb,,2869,4.695652174,1303,2870,BOI,-,-,"Please name all of the ways you could use this object. Keep in mind that one object can have many uses. Separate your responses with a comma.",,y,73138,,,4817,51487,,,,"eat,find,make stuff with it,heat it up,make,buy",1
J00722351slc,dpvqkw8jkg,"Affordance Norms_South Alabama",1,27,2023-03-22T22:16:14+00:00,86.617934942245,96,"updated stim.csv",Version96.csv,"Version 96","List 96",jumper,,2856,4.296296296,1395,2857,BOI,-,-,"Please name all of the ways you could use this object. Keep in mind that one object can have many uses. Separate your responses with a comma.",,y,86300,,,36836,83098,,,,"wear,make,buy,sell,gift,burn",1
J00722351slc,dpvqkw8jkg,"Affordance Norms_South Alabama",1,28,2023-03-22T22:17:39+00:00,84.933031082153,96,"updated stim.csv",Version96.csv,"Version 96","List 96",awning,,2855,4.565217391,104,2856,BOI,-,-,"Please name all of the ways you could use this object. Keep in mind that one object can have many uses. Separate your responses with a comma.",,y,84400,,,9270,68880,,,,"sit under one,make,buy,sell,customize,drive under",1
J00722351slc,dpvqkw8jkg,"Affordance Norms_South Alabama",1,29,2023-03-22T22:18:39+00:00,59.695749998093,96,"updated stim.csv",Version96.csv,"Version 96","List 96",leather,,2872,5.576923077,1480,2873,BOI,-,-,"Please name all of the ways you could use this object. Keep in mind that one object can have many uses. Separate your responses with a comma.",,y,58866,,,3719,27266,,,,"make,sell,seek,buy,trade,wear",1
J00722351slc,dpvqkw8jkg,"Affordance Norms_South Alabama",1,30,2023-03-22T22:19:36+00:00,57.132062911987,96,"updated stim.csv",Version96.csv,"Version 96","List 96",stocking,,2851,5.6,2541,2852,BOI,-,-,"Please name all of the ways you could use this object. Keep in mind that one object can have many uses. Separate your responses with a comma.",,y,56381,,,5152,55133,,,,"wear,buy,make,sell,gift,customize ",1
J00722351slc,dpvqkw8jkg,"Affordance Norms_South Alabama",1,31,2023-03-22T22:21:26+00:00,109.56146621704,96,"updated stim.csv",Version96.csv,"Version 96","List 96",stomach,,2875,4.44,2543,2876,BOI,-,-,"Please name all of the ways you could use this object. Keep in mind that one object can have many uses. Separate your responses with a comma.",,y,108744,,,46830,97394,,,,"food storage,digestion,dissect,medicate",1
J00722351slc,dpvqkw8jkg,"Affordance Norms_South Alabama",1,32,2023-03-22T22:24:34+00:00,188.42559480667,96,"updated stim.csv",Version96.csv,"Version 96","List 96",lad,,2878,4.36,1446,2879,BOI,-,-,"Please name all of the ways you could use this object. Keep in mind that one object can have many uses. Separate your responses with a comma.",,y,187650,,,124765,178406,,,,"work him,medication",1
J00722351slc,dpvqkw8jkg,"Affordance Norms_South Alabama",1,33,2023-03-22T22:25:44+00:00,69.311138153076,96,"updated stim.csv",Version96.csv,"Version 96","List 96",pail,,2877,4.772727273,1845,2878,BOI,-,-,"Please name all of the ways you could use this object. Keep in mind that one object can have many uses. Separate your responses with a comma.",,y,68548,,,5326,27786,,,,"Fill,buy,sell,break,use",1
J00722351slc,dpvqkw8jkg,"Affordance Norms_South Alabama",1,34,2023-03-22T22:26:03+00:00,19.471493005753,96,"updated stim.csv",Version96.csv,"Version 96","List 96",scrapbook,,2861,5.84,2282,2862,BOI,-,-,"Please name all of the ways you could use this object. Keep in mind that one object can have many uses. Separate your responses with a comma.",,y,18601,,,2861,16594,,,,"make,buy,sell,use,throw away,burn,gift,",1
J00722351slc,dpvqkw8jkg,"Affordance Norms_South Alabama",1,35,2023-03-22T22:26:34+00:00,31.331696033478,96,"updated stim.csv",Version96.csv,"Version 96","List 96",equipment,,2853,5.28,917,2854,BOI,-,-,"Please name all of the ways you could use this object. Keep in mind that one object can have many uses. Separate your responses with a comma.",,y,30415,,,4604,16695,,,,"buy,sell,make,use,give",1
J00722351slc,dpvqkw8jkg,"Affordance Norms_South Alabama",1,36,2023-03-22T22:27:12+00:00,37.631590843201,96,"updated stim.csv",Version96.csv,"Version 96","List 96",sesame,,2859,4.652173913,2315,2860,BOI,-,-,"Please name all of the ways you could use this object. Keep in mind that one object can have many uses. Separate your responses with a comma.",,y,36661,,,5013,11707,,,,"plant,eat,use",1
J00722351slc,dpvqkw8jkg,"Affordance Norms_South Alabama",1,37,2023-03-22T22:29:00+00:00,108.0231821537,96,"updated stim.csv",Version96.csv,"Version 96","List 96",leaflet,,2867,5.956521739,1478,2868,BOI,-,-,"Please name all of the ways you could use this object. Keep in mind that one object can have many uses. Separate your responses with a comma.",,y,107421,,,55851,90080,,,,"make,shred,burn,throw away",1
J00722351slc,dpvqkw8jkg,"Affordance Norms_South Alabama",1,38,2023-03-22T22:29:57+00:00,57.140412807465,96,"updated stim.csv",Version96.csv,"Version 96","List 96",pen,,2866,6.64,1912,2867,BOI,-,-,"Please name all of the ways you could use this object. Keep in mind that one object can have many uses. Separate your responses with a comma.",,y,56231,,,2869,43344,,,,"use,buy,sell,customize, give away,steal,break,lose it,run out of ink,bite",1
J00722351slc,dpvqkw8jkg,"Affordance Norms_South Alabama",1,39,2023-03-22T22:30:37+00:00,39.908063173294,96,"updated stim.csv",Version96.csv,"Version 96","List 96",saucepan,,2864,6,2248,2865,BOI,-,-,"Please name all of the ways you could use this object. Keep in mind that one object can have many uses. Separate your responses with a comma.",,y,39263,,,7955,34831,,,,"bake with it,buy,sell,use,lose, break",1
J00722351slc,dpvqkw8jkg,"Affordance Norms_South Alabama",1,40,2023-03-22T22:32:45+00:00,127.86993193626,96,"updated stim.csv",Version96.csv,"Version 96","List 96",licence,,2862,4.76,1501,2863,BOI,-,-,"Please name all of the ways you could use this object. Keep in mind that one object can have many uses. Separate your responses with a comma.",,y,127511,,,65289,126559,,,,"buy, use for fishing,nursing license ",1
J00722351slc,dpvqkw8jkg,"Affordance Norms_South Alabama",1,41,2023-03-22T22:32:50+00:00,4.6696429252625,96,"updated stim.csv",Version96.csv,"Version 96","List 96",,,,,,0,Instruct,,,"You will now be asked a few questions about your experience today.",,"Instruct 4",4137,,,-1,-1,,,,,1
