Username,ID,ExperimentName,Session,Trial,Date,TimeDif,"Condition Number","Stimuli File","Order File","Condition Description","Condition Notes",Stimuli*Cue,Stimuli*Answer,Stimuli*Shuffle,"Stimuli*Stimuli Notes",Stimuli*Value,Procedure*Item,"Procedure*Trial Type","Procedure*Max Time","Procedure*Min Time",Procedure*Text,"Procedure*Procedure Notes",Procedure*Shuffle,Response*RT,Response*Response,Response*Accuracy,Response*RTfirst,Response*RTlast,Response*strictAcc,Response*lenientAcc,Response*focus,Response*JOL,Response*Focus
J00723262_kms,6msjkk1tfb,"Affordance Norms_South Alabama",1,1,2023-03-31T00:50:04+00:00,12.037505149841,22,"updated stim.csv",Version22.csv,"Version 22","List 22",,,,,,0,Instruct,-,10,"In this section, you will be presented with a series of objects. Please name as many possible uses for this object as you can think of by typing them in the box below each object.",,Instruct1,11929,,,-1,-1,,,,,1
J00723262_kms,6msjkk1tfb,"Affordance Norms_South Alabama",1,2,2023-03-31T00:50:16+00:00,11.817703008652,22,"updated stim.csv",Version22.csv,"Version 22","List 22",,,,,,0,Instruct,-,10,"Please keep in mind that a single object will have more than one use. For example, a ball can be thrown or can be bounced or even stepped on. When listing multiple uses for one object, please separate each use with a comma (i.e., thrown, bounced, stepped on)",,Instruct2,11658,,,-1,-1,,,,,1
J00723262_kms,6msjkk1tfb,"Affordance Norms_South Alabama",1,3,2023-03-31T00:50:21+00:00,4.9133257865906,22,"updated stim.csv",Version22.csv,"Version 22","List 22",,,,,,0,Instruct,-,-,"Before starting the experiment, you will complete a short practice sesstion. Press ENTER when you are ready to begin.",,Instruct3,4741,,,-1,-1,,,,,1
J00723262_kms,6msjkk1tfb,"Affordance Norms_South Alabama",1,4,2023-03-31T00:50:51+00:00,29.902855157852,22,"updated stim.csv",Version22.csv,"Version 22","List 22",shortening,,3002,4.92,2358,3003,BOI,-,-,"Please name all of the ways you could use this object. Keep in mind that one object can have many uses. Separate your responses with a comma.",,n,29543,,,2548,14243,,,,"hair, skirt, ",1
J00723262_kms,6msjkk1tfb,"Affordance Norms_South Alabama",1,5,2023-03-31T00:51:09+00:00,18.116456985474,22,"updated stim.csv",Version22.csv,"Version 22","List 22",spaghetti,,3003,6,2461,3004,BOI,-,-,"Please name all of the ways you could use this object. Keep in mind that one object can have many uses. Separate your responses with a comma.",,n,17962,,,1756,16228,,,,"eat, toss, throw away, eat, cook",1
J00723262_kms,6msjkk1tfb,"Affordance Norms_South Alabama",1,6,2023-03-31T00:51:25+00:00,15.649782896042,22,"updated stim.csv",Version22.csv,"Version 22","List 22",paperwork,,3001,5.625,1866,3002,BOI,-,-,"Please name all of the ways you could use this object. Keep in mind that one object can have many uses. Separate your responses with a comma.",,n,15483,,,1832,14161,,,,"file, write, create, copy, print",1
J00723262_kms,6msjkk1tfb,"Affordance Norms_South Alabama",1,7,2023-03-31T00:51:38+00:00,13.642409086227,22,"updated stim.csv",Version22.csv,"Version 22","List 22",grain,,3004,5.217391304,1143,3005,BOI,-,-,"Please name all of the ways you could use this object. Keep in mind that one object can have many uses. Separate your responses with a comma.",,n,13488,,,2843,11060,,,,"cook, wash, eat, harvest, ",1
J00723262_kms,6msjkk1tfb,"Affordance Norms_South Alabama",1,8,2023-03-31T00:52:15+00:00,37.189218044281,22,"updated stim.csv",Version22.csv,"Version 22","List 22",saucer,,3005,5.777777778,2249,3006,BOI,-,-,"Please name all of the ways you could use this object. Keep in mind that one object can have many uses. Separate your responses with a comma.",,n,36863,,,21409,32515,,,,"place a cup, wash, hold, break, ",1
J00723262_kms,6msjkk1tfb,"Affordance Norms_South Alabama",1,9,2023-03-31T00:52:17+00:00,1.9372320175171,22,"updated stim.csv",Version22.csv,"Version 22","List 22",,,,,,0,Instruct,-,-,"You have completed this section. Press ENTER to continue",,"Instruct 5",1743,,,-1,-1,,,,,1
J00723262_kms,6msjkk1tfb,"Affordance Norms_South Alabama",1,10,2023-03-31T00:52:20+00:00,3.0092918872833,22,"updated stim.csv",Version22.csv,"Version 22","List 22",,,,,,0,Instruct,-,-,"You will now start the full experiment. Press ENTER when you are ready to begin.",,,2847,,,-1,-1,,,,,1
J00723262_kms,6msjkk1tfb,"Affordance Norms_South Alabama",1,11,2023-03-31T00:52:57+00:00,36.234506130219,22,"updated stim.csv",Version22.csv,"Version 22","List 22",dress,,658,6.16,843,659,BOI,-,-,"Please name all of the ways you could use this object. Keep in mind that one object can have many uses. Separate your responses with a comma.",,y,35998,,,1308,28591,,,,"wear, wash, hym, iron, dry",0.989
J00723262_kms,6msjkk1tfb,"Affordance Norms_South Alabama",1,12,2023-03-31T00:53:19+00:00,22.473698854446,22,"updated stim.csv",Version22.csv,"Version 22","List 22",television,,652,5.6,2660,653,BOI,-,-,"Please name all of the ways you could use this object. Keep in mind that one object can have many uses. Separate your responses with a comma.",,y,22169,,,1268,20160,,,,"buy, watch, clean, turn on and off, mount",1
J00723262_kms,6msjkk1tfb,"Affordance Norms_South Alabama",1,13,2023-03-31T00:53:27+00:00,8.2831380367279,22,"updated stim.csv",Version22.csv,"Version 22","List 22",clam,,657,4.375,545,658,BOI,-,-,"Please name all of the ways you could use this object. Keep in mind that one object can have many uses. Separate your responses with a comma.",,y,8125,,,1418,6797,,,,"eat, clean, catch, crack",1
J00723262_kms,6msjkk1tfb,"Affordance Norms_South Alabama",1,14,2023-03-31T00:53:58+00:00,31.095983982086,22,"updated stim.csv",Version22.csv,"Version 22","List 22",beach,,637,5.666666667,176,638,BOI,-,-,"Please name all of the ways you could use this object. Keep in mind that one object can have many uses. Separate your responses with a comma.",,y,30820,,,2472,29589,,,,"tan, swim, vacation, fish, sunset",1
J00723262_kms,6msjkk1tfb,"Affordance Norms_South Alabama",1,15,2023-03-31T00:54:30+00:00,31.160619974136,22,"updated stim.csv",Version22.csv,"Version 22","List 22",stool,,659,6.076923077,2547,660,BOI,-,-,"Please name all of the ways you could use this object. Keep in mind that one object can have many uses. Separate your responses with a comma.",,y,30832,,,2835,28135,,,,"sit, prop, clean, create, repurposed ",1
J00723262_kms,6msjkk1tfb,"Affordance Norms_South Alabama",1,16,2023-03-31T00:54:51+00:00,21.609966993332,22,"updated stim.csv",Version22.csv,"Version 22","List 22",artist,,651,4.782608696,80,652,BOI,-,-,"Please name all of the ways you could use this object. Keep in mind that one object can have many uses. Separate your responses with a comma.",,y,21361,,,2068,15450,,,,"paint, write, sing, lable records, tours,",1
J00723262_kms,6msjkk1tfb,"Affordance Norms_South Alabama",1,17,2023-03-31T00:55:03+00:00,11.544955968857,22,"updated stim.csv",Version22.csv,"Version 22","List 22",drone,,660,4.291666667,851,661,BOI,-,-,"Please name all of the ways you could use this object. Keep in mind that one object can have many uses. Separate your responses with a comma.",,y,11373,,,1972,9265,,,,"fly, record, hold",1
J00723262_kms,6msjkk1tfb,"Affordance Norms_South Alabama",1,18,2023-03-31T00:55:32+00:00,29.018143177032,22,"updated stim.csv",Version22.csv,"Version 22","List 22",tutor,,634,4.608695652,2807,635,BOI,-,-,"Please name all of the ways you could use this object. Keep in mind that one object can have many uses. Separate your responses with a comma.",,y,28688,,,1362,26964,,,,"teach, solve, work out problems, encourage",1
J00723262_kms,6msjkk1tfb,"Affordance Norms_South Alabama",1,19,2023-03-31T00:56:10+00:00,38.504221916199,22,"updated stim.csv",Version22.csv,"Version 22","List 22",parachute,,636,4.68,1868,637,BOI,-,-,"Please name all of the ways you could use this object. Keep in mind that one object can have many uses. Separate your responses with a comma.",,y,38244,,,25098,32242,,,,"safety, dropping, hold",0.99
J00723262_kms,6msjkk1tfb,"Affordance Norms_South Alabama",1,20,2023-03-31T00:56:58+00:00,47.460539102554,22,"updated stim.csv",Version22.csv,"Version 22","List 22",stockbroker,,649,4.851851852,2540,650,BOI,-,-,"Please name all of the ways you could use this object. Keep in mind that one object can have many uses. Separate your responses with a comma.",,y,47129,,,16421,45733,,,,"advise, do order",1
J00723262_kms,6msjkk1tfb,"Affordance Norms_South Alabama",1,21,2023-03-31T00:57:16+00:00,18.106534957886,22,"updated stim.csv",Version22.csv,"Version 22","List 22",mountainside,,635,4.708333333,1700,636,BOI,-,-,"Please name all of the ways you could use this object. Keep in mind that one object can have many uses. Separate your responses with a comma.",,y,17939,,,2101,16421,,,,"paint, sit, look from, pinic",1
J00723262_kms,6msjkk1tfb,"Affordance Norms_South Alabama",1,22,2023-03-31T00:57:33+00:00,16.88214302063,22,"updated stim.csv",Version22.csv,"Version 22","List 22",carport,,632,4.28,439,633,BOI,-,-,"Please name all of the ways you could use this object. Keep in mind that one object can have many uses. Separate your responses with a comma.",,y,16713,,,3323,11301,,,,"pickup, protect cars",1
J00723262_kms,6msjkk1tfb,"Affordance Norms_South Alabama",1,23,2023-03-31T00:58:01+00:00,28.56098484993,22,"updated stim.csv",Version22.csv,"Version 22","List 22",rosebush,,654,5.333333333,2195,655,BOI,-,-,"Please name all of the ways you could use this object. Keep in mind that one object can have many uses. Separate your responses with a comma.",,y,28235,,,2375,26844,,,,"grow a rose, garden",1
J00723262_kms,6msjkk1tfb,"Affordance Norms_South Alabama",1,24,2023-03-31T00:58:32+00:00,30.296326160431,22,"updated stim.csv",Version22.csv,"Version 22","List 22",diaphragm,,641,4.269230769,788,642,BOI,-,-,"Please name all of the ways you could use this object. Keep in mind that one object can have many uses. Separate your responses with a comma.",,y,30032,,,2174,28396,,,,"show things, organize info, display info",1
J00723262_kms,6msjkk1tfb,"Affordance Norms_South Alabama",1,25,2023-03-31T00:58:53+00:00,21.083940029144,22,"updated stim.csv",Version22.csv,"Version 22","List 22",shield,,647,5.037037037,2338,648,BOI,-,-,"Please name all of the ways you could use this object. Keep in mind that one object can have many uses. Separate your responses with a comma.",,y,20790,,,1479,8440,,,,"protect, cover, ",1
J00723262_kms,6msjkk1tfb,"Affordance Norms_South Alabama",1,26,2023-03-31T00:59:29+00:00,36.040339946747,22,"updated stim.csv",Version22.csv,"Version 22","List 22",peephole,,643,4.875,1907,644,BOI,-,-,"Please name all of the ways you could use this object. Keep in mind that one object can have many uses. Separate your responses with a comma.",,y,35695,,,3141,34460,,,,"look through, see whats happening on other side",1
J00723262_kms,6msjkk1tfb,"Affordance Norms_South Alabama",1,27,2023-03-31T00:59:51+00:00,22.682600021362,22,"updated stim.csv",Version22.csv,"Version 22","List 22",shed,,653,4.333333333,2327,654,BOI,-,-,"Please name all of the ways you could use this object. Keep in mind that one object can have many uses. Separate your responses with a comma.",,y,22424,,,2084,21099,,,,"keep thing, protect, keep things, storage",1
J00723262_kms,6msjkk1tfb,"Affordance Norms_South Alabama",1,28,2023-03-31T01:00:47+00:00,55.74813079834,22,"updated stim.csv",Version22.csv,"Version 22","List 22",nightstick,,638,5.434782609,1774,639,BOI,-,-,"Please name all of the ways you could use this object. Keep in mind that one object can have many uses. Separate your responses with a comma.",,y,55436,,,47000,54400,,,,"provide light, hold, camping",1
J00723262_kms,6msjkk1tfb,"Affordance Norms_South Alabama",1,29,2023-03-31T01:01:03+00:00,15.890284061432,22,"updated stim.csv",Version22.csv,"Version 22","List 22",trunk,,631,5.217391304,2788,632,BOI,-,-,"Please name all of the ways you could use this object. Keep in mind that one object can have many uses. Separate your responses with a comma.",,y,15724,,,7977,14334,,,,"storage, protect, cover",1
J00723262_kms,6msjkk1tfb,"Affordance Norms_South Alabama",1,30,2023-03-31T01:01:15+00:00,12.018800973892,22,"updated stim.csv",Version22.csv,"Version 22","List 22",boat,,644,5.130434783,255,645,BOI,-,-,"Please name all of the ways you could use this object. Keep in mind that one object can have many uses. Separate your responses with a comma.",,y,11842,,,1942,10383,,,,"ride, fish, float",1
J00723262_kms,6msjkk1tfb,"Affordance Norms_South Alabama",1,31,2023-03-31T01:02:01+00:00,45.858157157898,22,"updated stim.csv",Version22.csv,"Version 22","List 22",buckwheat,,639,4.44,343,640,BOI,-,-,"Please name all of the ways you could use this object. Keep in mind that one object can have many uses. Separate your responses with a comma.",,y,45532,,,24707,30997,,,,"side dish, replace carbs,",1
J00723262_kms,6msjkk1tfb,"Affordance Norms_South Alabama",1,32,2023-03-31T01:02:13+00:00,11.662142038345,22,"updated stim.csv",Version22.csv,"Version 22","List 22",junk,,656,4.962962963,1396,657,BOI,-,-,"Please name all of the ways you could use this object. Keep in mind that one object can have many uses. Separate your responses with a comma.",,y,11389,,,3248,9944,,,,"take up space, storage",1
J00723262_kms,6msjkk1tfb,"Affordance Norms_South Alabama",1,33,2023-03-31T01:02:30+00:00,17.041274785995,22,"updated stim.csv",Version22.csv,"Version 22","List 22",puddle,,655,5,2089,656,BOI,-,-,"Please name all of the ways you could use this object. Keep in mind that one object can have many uses. Separate your responses with a comma.",,y,16853,,,1650,14067,,,,"jump in, collect water, water grass",1
J00723262_kms,6msjkk1tfb,"Affordance Norms_South Alabama",1,34,2023-03-31T01:02:46+00:00,16.752278089523,22,"updated stim.csv",Version22.csv,"Version 22","List 22",boomerang,,648,5.666666667,280,649,BOI,-,-,"Please name all of the ways you could use this object. Keep in mind that one object can have many uses. Separate your responses with a comma.",,y,16593,,,2640,14810,,,,"toss, come back, hit something, play with",1
J00723262_kms,6msjkk1tfb,"Affordance Norms_South Alabama",1,35,2023-03-31T01:03:01+00:00,14.636194944382,22,"updated stim.csv",Version22.csv,"Version 22","List 22",clipper,,650,4.923076923,562,651,BOI,-,-,"Please name all of the ways you could use this object. Keep in mind that one object can have many uses. Separate your responses with a comma.",,y,14462,,,2818,12170,,,,"trim things, cut, shorten",1
J00723262_kms,6msjkk1tfb,"Affordance Norms_South Alabama",1,36,2023-03-31T01:03:13+00:00,12.321185112,22,"updated stim.csv",Version22.csv,"Version 22","List 22",rabbit,,642,5,2117,643,BOI,-,-,"Please name all of the ways you could use this object. Keep in mind that one object can have many uses. Separate your responses with a comma.",,y,12164,,,2025,10607,,,,"feed, eat, care, play with",1
J00723262_kms,6msjkk1tfb,"Affordance Norms_South Alabama",1,37,2023-03-31T01:03:22+00:00,8.6772840023041,22,"updated stim.csv",Version22.csv,"Version 22","List 22",seawater,,633,4.961538462,2303,634,BOI,-,-,"Please name all of the ways you could use this object. Keep in mind that one object can have many uses. Separate your responses with a comma.",,y,8502,,,1881,5879,,,,"fish, swim",1
J00723262_kms,6msjkk1tfb,"Affordance Norms_South Alabama",1,38,2023-03-31T01:04:03+00:00,40.635325908661,22,"updated stim.csv",Version22.csv,"Version 22","List 22",needlepoint,,640,4.576923077,1746,641,BOI,-,-,"Please name all of the ways you could use this object. Keep in mind that one object can have many uses. Separate your responses with a comma.",,y,40305,,,4483,38029,,,,"poke, sew, create pictures ",1
J00723262_kms,6msjkk1tfb,"Affordance Norms_South Alabama",1,39,2023-03-31T01:04:31+00:00,27.935711145401,22,"updated stim.csv",Version22.csv,"Version 22","List 22",wigmaker,,645,4.36,2936,646,BOI,-,-,"Please name all of the ways you could use this object. Keep in mind that one object can have many uses. Separate your responses with a comma.",,y,27695,,,19706,26101,,,,"hold hair, create wig",1
J00723262_kms,6msjkk1tfb,"Affordance Norms_South Alabama",1,40,2023-03-31T01:05:06+00:00,35.315451860428,22,"updated stim.csv",Version22.csv,"Version 22","List 22",pumpernickel,,646,5.130434783,2097,647,BOI,-,-,"Please name all of the ways you could use this object. Keep in mind that one object can have many uses. Separate your responses with a comma.",,y,34985,,,24138,33370,,,,"eat, cook, freeze, toast",1
J00723262_kms,6msjkk1tfb,"Affordance Norms_South Alabama",1,41,2023-03-31T01:05:09+00:00,2.9664280414581,22,"updated stim.csv",Version22.csv,"Version 22","List 22",,,,,,0,Instruct,,,"You will now be asked a few questions about your experience today.",,"Instruct 4",2796,,,-1,-1,,,,,1
