Username,ID,ExperimentName,Session,Trial,Date,TimeDif,Condition.Number,Stimuli.File,Order.File,Condition.Description,Condition.Notes,Stimuli.Cue,Stimuli.Answer,Stimuli.Shuffle,Stimuli.Stimuli.Notes,Stimuli.Value,Stimuli.Rand,Procedure.Item,Procedure.Trial.Type,Procedure.Max.Time,Procedure.Min.Time,Procedure.Text,Procedure.Procedure.Notes,Procedure.Shuffle,Response.RT,Response.Response,Response.Accuracy,Response.RTfirst,Response.RTlast,Response.strictAcc,Response.lenientAcc,Response.focus,Response.JOL,Response.Focus
5495fbf9fdf99b50089f79d8,vob3ggsh7i,Affordance Norms_Prolific,1,11,2023-01-20T22:56:33+00:00,78.01891398,96,updated stim.csv,Version96.csv,Version 96,List 96,licence,NA,2862,4.76,1501,0.781917174,2863,BOI,-,-,Please name all of the ways you could use this object. Keep in mind that one object can have many uses. Separate your responses with a comma.,NA,y,77629,NA,NA,4319,76286,NA,NA,NA,"drive, buy alcohol,buy cigarettes,travel,sell alcohol,buy drugs, buy vapes, sell drugs, teaching, childcare",1
5495fbf9fdf99b50089f79d8,vob3ggsh7i,Affordance Norms_Prolific,1,12,2023-01-20T22:57:01+00:00,28.58749795,96,updated stim.csv,Version96.csv,Version 96,List 96,matchwood,NA,2868,5.210526316,1623,0.435201609,2869,BOI,-,-,Please name all of the ways you could use this object. Keep in mind that one object can have many uses. Separate your responses with a comma.,NA,y,27778,NA,NA,18862,24494,NA,NA,NA,start a fire,1
5495fbf9fdf99b50089f79d8,vob3ggsh7i,Affordance Norms_Prolific,1,13,2023-01-20T22:57:46+00:00,44.27347016,96,updated stim.csv,Version96.csv,Version 96,List 96,honeycomb,NA,2869,4.695652174,1303,0.282470228,2870,BOI,-,-,Please name all of the ways you could use this object. Keep in mind that one object can have many uses. Separate your responses with a comma.,NA,y,43529,NA,NA,2120,41423,NA,NA,NA,"eat,cover in chocolate,break,snap,throw,melt,boil,freeze,hit people",1
5495fbf9fdf99b50089f79d8,vob3ggsh7i,Affordance Norms_Prolific,1,14,2023-01-20T22:57:54+00:00,8.242464781,96,updated stim.csv,Version96.csv,Version 96,List 96,wristband,NA,2876,5.583333333,2983,0.004804461,2877,BOI,-,-,Please name all of the ways you could use this object. Keep in mind that one object can have many uses. Separate your responses with a comma.,NA,y,7850,NA,NA,3109,7094,NA,NA,NA,"wear,ping",1
5495fbf9fdf99b50089f79d8,vob3ggsh7i,Affordance Norms_Prolific,1,15,2023-01-20T22:58:21+00:00,27.46806812,96,updated stim.csv,Version96.csv,Version 96,List 96,sesame,NA,2859,4.652173913,2315,0.385571182,2860,BOI,-,-,Please name all of the ways you could use this object. Keep in mind that one object can have many uses. Separate your responses with a comma.,NA,y,26807,NA,NA,3377,24829,NA,NA,NA,"season food,cooking ingredient,eat,smell,sprinkle on the floor,throw,toast",1
5495fbf9fdf99b50089f79d8,vob3ggsh7i,Affordance Norms_Prolific,1,16,2023-01-20T22:58:43+00:00,21.47535396,96,updated stim.csv,Version96.csv,Version 96,List 96,clerk,NA,2860,4.68,557,0.077028213,2861,BOI,-,-,Please name all of the ways you could use this object. Keep in mind that one object can have many uses. Separate your responses with a comma.,NA,y,20668,NA,NA,5605,19939,NA,NA,NA,"paperwork,talk to,finance",1
5495fbf9fdf99b50089f79d8,vob3ggsh7i,Affordance Norms_Prolific,1,17,2023-01-20T22:59:07+00:00,23.96115994,96,updated stim.csv,Version96.csv,Version 96,List 96,pen,NA,2866,6.64,1912,0.853360723,2867,BOI,-,-,Please name all of the ways you could use this object. Keep in mind that one object can have many uses. Separate your responses with a comma.,NA,y,23238,NA,NA,2231,19812,NA,NA,NA,"write,chew,spin,draw,scribble,throw",1
5495fbf9fdf99b50089f79d8,vob3ggsh7i,Affordance Norms_Prolific,1,18,2023-01-20T22:59:36+00:00,29.18147016,96,updated stim.csv,Version96.csv,Version 96,List 96,pamphlet,NA,2858,5.565217391,1855,0.740965484,2859,BOI,-,-,Please name all of the ways you could use this object. Keep in mind that one object can have many uses. Separate your responses with a comma.,NA,y,28427,NA,NA,2186,27041,NA,NA,NA,"read,rip,shred,enjoy,fold,paper plane,sell,giveaway",1
5495fbf9fdf99b50089f79d8,vob3ggsh7i,Affordance Norms_Prolific,1,19,2023-01-20T22:59:52+00:00,16.29456687,96,updated stim.csv,Version96.csv,Version 96,List 96,stomach,NA,2875,4.44,2543,0.024073714,2876,BOI,-,-,Please name all of the ways you could use this object. Keep in mind that one object can have many uses. Separate your responses with a comma.,NA,y,15802,NA,NA,5444,14705,NA,NA,NA,"holds food, breaks down foods",1
5495fbf9fdf99b50089f79d8,vob3ggsh7i,Affordance Norms_Prolific,1,20,2023-01-20T23:00:11+00:00,19.14081311,96,updated stim.csv,Version96.csv,Version 96,List 96,lad,NA,2878,4.36,1446,0.832557748,2879,BOI,-,-,Please name all of the ways you could use this object. Keep in mind that one object can have many uses. Separate your responses with a comma.,NA,y,18739,NA,NA,6426,18045,NA,NA,NA,"talk to, drink with",1
5495fbf9fdf99b50089f79d8,vob3ggsh7i,Affordance Norms_Prolific,1,21,2023-01-20T23:00:37+00:00,25.60800791,96,updated stim.csv,Version96.csv,Version 96,List 96,pail,NA,2877,4.772727273,1845,0.298814791,2878,BOI,-,-,Please name all of the ways you could use this object. Keep in mind that one object can have many uses. Separate your responses with a comma.,NA,y,24803,NA,NA,2284,23852,NA,NA,NA,"hold water,hold sand,carry liquids, put on head",1
5495fbf9fdf99b50089f79d8,vob3ggsh7i,Affordance Norms_Prolific,1,22,2023-01-20T23:01:21+00:00,43.52070093,96,updated stim.csv,Version96.csv,Version 96,List 96,backscratcher,NA,2865,5.52,117,0.717214642,2866,BOI,-,-,Please name all of the ways you could use this object. Keep in mind that one object can have many uses. Separate your responses with a comma.,NA,y,42796,NA,NA,13849,42483,NA,NA,NA,"scratch back,scratch head, drag things along the floor,smash",1
5495fbf9fdf99b50089f79d8,vob3ggsh7i,Affordance Norms_Prolific,1,23,2023-01-20T23:01:38+00:00,17.81136012,96,updated stim.csv,Version96.csv,Version 96,List 96,atlas,NA,2852,5.166666667,93,0.520524227,2853,BOI,-,-,Please name all of the ways you could use this object. Keep in mind that one object can have many uses. Separate your responses with a comma.,NA,y,17349,NA,NA,3507,15630,NA,NA,NA,"read,look at, rip, shred,fold",1
5495fbf9fdf99b50089f79d8,vob3ggsh7i,Affordance Norms_Prolific,1,24,2023-01-20T23:01:54+00:00,15.59271598,96,updated stim.csv,Version96.csv,Version 96,List 96,educator,NA,2871,5,890,0.69848222,2872,BOI,-,-,Please name all of the ways you could use this object. Keep in mind that one object can have many uses. Separate your responses with a comma.,NA,y,15198,NA,NA,2718,13929,NA,NA,NA,"talk,teach,set work",1
5495fbf9fdf99b50089f79d8,vob3ggsh7i,Affordance Norms_Prolific,1,25,2023-01-20T23:02:06+00:00,12.11273909,96,updated stim.csv,Version96.csv,Version 96,List 96,tunic,NA,2874,4.76,2798,0.991066261,2875,BOI,-,-,Please name all of the ways you could use this object. Keep in mind that one object can have many uses. Separate your responses with a comma.,NA,y,11742,NA,NA,1568,11308,NA,NA,NA,"wear,wrap,use as a blanket",1
5495fbf9fdf99b50089f79d8,vob3ggsh7i,Affordance Norms_Prolific,1,26,2023-01-20T23:02:26+00:00,19.86827183,96,updated stim.csv,Version96.csv,Version 96,List 96,scrapbook,NA,2861,5.84,2282,0.580159397,2862,BOI,-,-,Please name all of the ways you could use this object. Keep in mind that one object can have many uses. Separate your responses with a comma.,NA,y,19471,NA,NA,3315,18868,NA,NA,NA,"read,look at,reminiss",1
5495fbf9fdf99b50089f79d8,vob3ggsh7i,Affordance Norms_Prolific,1,27,2023-01-20T23:02:46+00:00,19.86030316,96,updated stim.csv,Version96.csv,Version 96,List 96,sixpence,NA,2870,4.380952381,2388,0.00680177,2871,BOI,-,-,Please name all of the ways you could use this object. Keep in mind that one object can have many uses. Separate your responses with a comma.,NA,y,19411,NA,NA,7913,18994,NA,NA,NA,"spend,hold,throw,drop,throw in a well",0.854
5495fbf9fdf99b50089f79d8,vob3ggsh7i,Affordance Norms_Prolific,1,28,2023-01-20T23:03:18+00:00,32.19579196,96,updated stim.csv,Version96.csv,Version 96,List 96,leaflet,NA,2867,5.956521739,1478,0.194105578,2868,BOI,-,-,Please name all of the ways you could use this object. Keep in mind that one object can have many uses. Separate your responses with a comma.,NA,y,31465,NA,NA,1940,26730,NA,NA,NA,"read, enjoy,fold,give away,sell,origami,rip,shred",1
5495fbf9fdf99b50089f79d8,vob3ggsh7i,Affordance Norms_Prolific,1,29,2023-01-20T23:03:41+00:00,22.92319798,96,updated stim.csv,Version96.csv,Version 96,List 96,clock,NA,2863,4.714285714,566,0.024436214,2864,BOI,-,-,Please name all of the ways you could use this object. Keep in mind that one object can have many uses. Separate your responses with a comma.,NA,y,22174,NA,NA,2439,21842,NA,NA,NA,"tells time,ticks,throw,stand on,smash break,sit on",1
5495fbf9fdf99b50089f79d8,vob3ggsh7i,Affordance Norms_Prolific,1,30,2023-01-20T23:03:54+00:00,12.87227988,96,updated stim.csv,Version96.csv,Version 96,List 96,okra,NA,2873,5.269230769,1805,0.783244786,2874,BOI,-,-,Please name all of the ways you could use this object. Keep in mind that one object can have many uses. Separate your responses with a comma.,NA,y,12391,NA,NA,4699,12189,NA,NA,NA,splash water,1
5495fbf9fdf99b50089f79d8,vob3ggsh7i,Affordance Norms_Prolific,1,31,2023-01-20T23:04:09+00:00,15.00740004,96,updated stim.csv,Version96.csv,Version 96,List 96,leather,NA,2872,5.576923077,1480,0.140946832,2873,BOI,-,-,Please name all of the ways you could use this object. Keep in mind that one object can have many uses. Separate your responses with a comma.,NA,y,14460,NA,NA,2697,13989,NA,NA,NA,"wear,shoes,clothes,belt,rug",1
5495fbf9fdf99b50089f79d8,vob3ggsh7i,Affordance Norms_Prolific,1,32,2023-01-20T23:04:29+00:00,20.62571502,96,updated stim.csv,Version96.csv,Version 96,List 96,dustbin,NA,2880,5.708333333,869,0.52528949,2881,BOI,-,-,Please name all of the ways you could use this object. Keep in mind that one object can have many uses. Separate your responses with a comma.,NA,y,19962,NA,NA,4270,19718,NA,NA,NA,"wheel,put rubbish in ,sit in, pushover, throw",1
5495fbf9fdf99b50089f79d8,vob3ggsh7i,Affordance Norms_Prolific,1,33,2023-01-20T23:05:07+00:00,37.90546298,96,updated stim.csv,Version96.csv,Version 96,List 96,saucepan,NA,2864,6,2248,0.326684344,2865,BOI,-,-,Please name all of the ways you could use this object. Keep in mind that one object can have many uses. Separate your responses with a comma.,NA,y,37111,NA,NA,2446,36764,NA,NA,NA,"cook food,heat up,wear as a hat,hit something with, hold liquid,carry liquid,as a drum",1
5495fbf9fdf99b50089f79d8,vob3ggsh7i,Affordance Norms_Prolific,1,34,2023-01-20T23:05:23+00:00,15.59598708,96,updated stim.csv,Version96.csv,Version 96,List 96,jumper,NA,2856,4.296296296,1395,0.502017602,2857,BOI,-,-,Please name all of the ways you could use this object. Keep in mind that one object can have many uses. Separate your responses with a comma.,NA,y,15106,NA,NA,1928,14582,NA,NA,NA,"wear,sit on, tie around waist",1
5495fbf9fdf99b50089f79d8,vob3ggsh7i,Affordance Norms_Prolific,1,35,2023-01-20T23:05:37+00:00,13.73025799,96,updated stim.csv,Version96.csv,Version 96,List 96,equipment,NA,2853,5.28,917,0.27544298,2854,BOI,-,-,Please name all of the ways you could use this object. Keep in mind that one object can have many uses. Separate your responses with a comma.,NA,y,13355,NA,NA,2890,13015,NA,NA,NA,"use,store,tidy,carry,throw",1
5495fbf9fdf99b50089f79d8,vob3ggsh7i,Affordance Norms_Prolific,1,36,2023-01-20T23:05:48+00:00,11.02807689,96,updated stim.csv,Version96.csv,Version 96,List 96,stocking,NA,2851,5.6,2541,0.75846612,2852,BOI,-,-,Please name all of the ways you could use this object. Keep in mind that one object can have many uses. Separate your responses with a comma.,NA,y,10664,NA,NA,2966,10359,NA,NA,NA,"fill,wear,open,close",1
5495fbf9fdf99b50089f79d8,vob3ggsh7i,Affordance Norms_Prolific,1,37,2023-01-20T23:05:59+00:00,11.2918241,96,updated stim.csv,Version96.csv,Version 96,List 96,aquarium,NA,2857,5.782608696,68,0.437796406,2858,BOI,-,-,Please name all of the ways you could use this object. Keep in mind that one object can have many uses. Separate your responses with a comma.,NA,y,10903,NA,NA,1841,10736,NA,NA,NA,"watch,look through,holds water",1
5495fbf9fdf99b50089f79d8,vob3ggsh7i,Affordance Norms_Prolific,1,38,2023-01-20T23:06:19+00:00,20.23907995,96,updated stim.csv,Version96.csv,Version 96,List 96,cornflakes,NA,2854,5.6,647,0.452976211,2855,BOI,-,-,Please name all of the ways you could use this object. Keep in mind that one object can have many uses. Separate your responses with a comma.,NA,y,19827,NA,NA,1840,19352,NA,NA,NA,"eat,store,throw,crush,crunch",1
5495fbf9fdf99b50089f79d8,vob3ggsh7i,Affordance Norms_Prolific,1,39,2023-01-20T23:06:38+00:00,18.60079813,96,updated stim.csv,Version96.csv,Version 96,List 96,walnut,NA,2879,5.791666667,2890,0.272751334,2880,BOI,-,-,Please name all of the ways you could use this object. Keep in mind that one object can have many uses. Separate your responses with a comma.,NA,y,18224,NA,NA,8938,17957,NA,NA,NA,"eat,use as ingredient,throw,cook",1
5495fbf9fdf99b50089f79d8,vob3ggsh7i,Affordance Norms_Prolific,1,40,2023-01-20T23:07:01+00:00,23.55985689,96,updated stim.csv,Version96.csv,Version 96,List 96,awning,NA,2855,4.565217391,104,0.178027078,2856,BOI,-,-,Please name all of the ways you could use this object. Keep in mind that one object can have many uses. Separate your responses with a comma.,NA,y,22835,NA,NA,18109,20790,NA,NA,NA,collect rain,1
56153d5e7ffc8a000a811ba8,gu0n1uxryw,Affordance Norms_Prolific,1,11,2023-01-20T22:48:33+00:00,22.71107101,92,updated stim.csv,Version92.csv,Version 92,List 92,torso,NA,2739,5.64,2739,0.109305249,2740,BOI,-,-,Please name all of the ways you could use this object. Keep in mind that one object can have many uses. Separate your responses with a comma.,NA,y,22086,NA,NA,7741,20074,NA,NA,NA,"to demonstrate how the body works, to dress ",1
56153d5e7ffc8a000a811ba8,gu0n1uxryw,Affordance Norms_Prolific,1,12,2023-01-20T22:48:54+00:00,21.95419788,92,updated stim.csv,Version92.csv,Version 92,List 92,screen,NA,2749,5.041666667,2285,0.449651764,2750,BOI,-,-,Please name all of the ways you could use this object. Keep in mind that one object can have many uses. Separate your responses with a comma.,NA,y,21289,NA,NA,2926,19403,NA,NA,NA,"to look at printed words, to show someone something",1
56153d5e7ffc8a000a811ba8,gu0n1uxryw,Affordance Norms_Prolific,1,13,2023-01-20T22:49:25+00:00,31.03496099,92,updated stim.csv,Version92.csv,Version 92,List 92,spokesman,NA,2734,4.375,2479,0.399647674,2735,BOI,-,-,Please name all of the ways you could use this object. Keep in mind that one object can have many uses. Separate your responses with a comma.,NA,y,30389,NA,NA,6282,28791,NA,NA,NA,"to talk during a race, to talk up in a meeting, to tell ideas to others",1
56153d5e7ffc8a000a811ba8,gu0n1uxryw,Affordance Norms_Prolific,1,14,2023-01-20T22:49:49+00:00,23.59849215,92,updated stim.csv,Version92.csv,Version 92,List 92,newsprint,NA,2752,4.260869565,1762,0.324228274,2753,BOI,-,-,Please name all of the ways you could use this object. Keep in mind that one object can have many uses. Separate your responses with a comma.,NA,y,22960,NA,NA,11415,21435,NA,NA,NA,"to use as fish and chips wrapper, to get the news to the public",1
56153d5e7ffc8a000a811ba8,gu0n1uxryw,Affordance Norms_Prolific,1,15,2023-01-20T22:50:03+00:00,13.94590092,92,updated stim.csv,Version92.csv,Version 92,List 92,bill,NA,2735,5.111111111,214,0.182223817,2736,BOI,-,-,Please name all of the ways you could use this object. Keep in mind that one object can have many uses. Separate your responses with a comma.,NA,y,13527,NA,NA,4202,12000,NA,NA,NA,"throw away, to pay, to write on the edges",1
56153d5e7ffc8a000a811ba8,gu0n1uxryw,Affordance Norms_Prolific,1,16,2023-01-20T22:50:21+00:00,18.17602205,92,updated stim.csv,Version92.csv,Version 92,List 92,chestnut,NA,2753,5.555555556,514,0.971745449,2754,BOI,-,-,Please name all of the ways you could use this object. Keep in mind that one object can have many uses. Separate your responses with a comma.,NA,y,17797,NA,NA,1893,16226,NA,NA,NA,"to cook with, to give to squirrels, to decorate house with at xmas",1
56153d5e7ffc8a000a811ba8,gu0n1uxryw,Affordance Norms_Prolific,1,17,2023-01-20T22:50:33+00:00,11.83053708,92,updated stim.csv,Version92.csv,Version 92,List 92,workbox,NA,2754,5.454545455,2970,0.23536446,2755,BOI,-,-,Please name all of the ways you could use this object. Keep in mind that one object can have many uses. Separate your responses with a comma.,NA,y,11441,NA,NA,2054,9778,NA,NA,NA,"to keep tools in, to store things in",1
56153d5e7ffc8a000a811ba8,gu0n1uxryw,Affordance Norms_Prolific,1,18,2023-01-20T22:51:18+00:00,45.36499882,92,updated stim.csv,Version92.csv,Version 92,List 92,garnets,NA,2751,4.65,1082,0.45457956,2752,BOI,-,-,Please name all of the ways you could use this object. Keep in mind that one object can have many uses. Separate your responses with a comma.,NA,y,44716,NA,NA,40042,43080,NA,NA,NA,to decorate the house with,1
56153d5e7ffc8a000a811ba8,gu0n1uxryw,Affordance Norms_Prolific,1,19,2023-01-20T22:51:31+00:00,12.7638061,92,updated stim.csv,Version92.csv,Version 92,List 92,rawhide,NA,2733,4.541666667,2141,0.992980546,2734,BOI,-,-,Please name all of the ways you could use this object. Keep in mind that one object can have many uses. Separate your responses with a comma.,NA,y,12359,NA,NA,2724,10761,NA,NA,NA,"to feed to dogs, for dogs to play with",1
56153d5e7ffc8a000a811ba8,gu0n1uxryw,Affordance Norms_Prolific,1,20,2023-01-20T22:51:40+00:00,8.948596954,92,updated stim.csv,Version92.csv,Version 92,List 92,basil,NA,2736,5.916666667,160,0.041453571,2737,BOI,-,-,Please name all of the ways you could use this object. Keep in mind that one object can have many uses. Separate your responses with a comma.,NA,y,8558,NA,NA,1690,6955,NA,NA,NA,"cooking, growing",1
56153d5e7ffc8a000a811ba8,gu0n1uxryw,Affordance Norms_Prolific,1,21,2023-01-20T22:52:03+00:00,22.88002801,92,updated stim.csv,Version92.csv,Version 92,List 92,smoothie,NA,2741,6.041666667,2423,0.034869801,2742,BOI,-,-,Please name all of the ways you could use this object. Keep in mind that one object can have many uses. Separate your responses with a comma.,NA,y,22007,NA,NA,4453,20540,NA,NA,NA,"drinking, freezing and having as frozen yoghurt",1
56153d5e7ffc8a000a811ba8,gu0n1uxryw,Affordance Norms_Prolific,1,22,2023-01-20T22:52:12+00:00,9.111980915,92,updated stim.csv,Version92.csv,Version 92,List 92,wife,NA,2746,6.357142857,2934,0.301062412,2747,BOI,-,-,Please name all of the ways you could use this object. Keep in mind that one object can have many uses. Separate your responses with a comma.,NA,y,8719,NA,NA,4245,7170,NA,NA,NA,marriage,1
56153d5e7ffc8a000a811ba8,gu0n1uxryw,Affordance Norms_Prolific,1,23,2023-01-20T22:52:19+00:00,6.429857969,92,updated stim.csv,Version92.csv,Version 92,List 92,zipper,NA,2740,6.08,2999,0.091808488,2741,BOI,-,-,Please name all of the ways you could use this object. Keep in mind that one object can have many uses. Separate your responses with a comma.,NA,y,5969,NA,NA,2157,3829,NA,NA,NA,to do clothes up,1
56153d5e7ffc8a000a811ba8,gu0n1uxryw,Affordance Norms_Prolific,1,24,2023-01-20T22:52:30+00:00,11.82232404,92,updated stim.csv,Version92.csv,Version 92,List 92,technician,NA,2757,4.56,2655,0.092155041,2758,BOI,-,-,Please name all of the ways you could use this object. Keep in mind that one object can have many uses. Separate your responses with a comma.,NA,y,11397,NA,NA,7104,9782,NA,NA,NA,to get work done,1
56153d5e7ffc8a000a811ba8,gu0n1uxryw,Affordance Norms_Prolific,1,25,2023-01-20T22:52:50+00:00,19.87222409,92,updated stim.csv,Version92.csv,Version 92,List 92,mule,NA,2743,4.318181818,1716,0.264178826,2744,BOI,-,-,Please name all of the ways you could use this object. Keep in mind that one object can have many uses. Separate your responses with a comma.,NA,y,19478,NA,NA,2420,17937,NA,NA,NA,"to wear, to keep things inside",1
56153d5e7ffc8a000a811ba8,gu0n1uxryw,Affordance Norms_Prolific,1,26,2023-01-20T22:53:09+00:00,18.29205298,92,updated stim.csv,Version92.csv,Version 92,List 92,groin,NA,2758,5.72,1180,0.249014614,2759,BOI,-,-,Please name all of the ways you could use this object. Keep in mind that one object can have many uses. Separate your responses with a comma.,NA,y,17835,NA,NA,4195,16439,NA,NA,NA,"to put clothes on, to massage",1
56153d5e7ffc8a000a811ba8,gu0n1uxryw,Affordance Norms_Prolific,1,27,2023-01-20T22:53:20+00:00,11.42924094,92,updated stim.csv,Version92.csv,Version 92,List 92,sangria,NA,2756,4.863636364,2239,0.271380112,2757,BOI,-,-,Please name all of the ways you could use this object. Keep in mind that one object can have many uses. Separate your responses with a comma.,NA,y,11049,NA,NA,1440,9740,NA,NA,NA,"to drink, to throw at someone",1
56153d5e7ffc8a000a811ba8,gu0n1uxryw,Affordance Norms_Prolific,1,28,2023-01-20T22:53:30+00:00,10.40461516,92,updated stim.csv,Version92.csv,Version 92,List 92,padding,NA,2742,4.925925926,1841,0.414513499,2743,BOI,-,-,Please name all of the ways you could use this object. Keep in mind that one object can have many uses. Separate your responses with a comma.,NA,y,9992,NA,NA,1637,8426,NA,NA,NA,"to make something thicker, keep something protected",1
56153d5e7ffc8a000a811ba8,gu0n1uxryw,Affordance Norms_Prolific,1,29,2023-01-20T22:53:51+00:00,20.80858994,92,updated stim.csv,Version92.csv,Version 92,List 92,poker,NA,2745,4.590909091,2019,0.251545465,2746,BOI,-,-,Please name all of the ways you could use this object. Keep in mind that one object can have many uses. Separate your responses with a comma.,NA,y,20165,NA,NA,4814,7752,NA,NA,NA,"play with, ",1
56153d5e7ffc8a000a811ba8,gu0n1uxryw,Affordance Norms_Prolific,1,30,2023-01-20T22:53:57+00:00,6.155660868,92,updated stim.csv,Version92.csv,Version 92,List 92,cellist,NA,2760,4.869565217,473,0.269429709,2761,BOI,-,-,Please name all of the ways you could use this object. Keep in mind that one object can have many uses. Separate your responses with a comma.,NA,y,5750,NA,NA,2529,3984,NA,NA,NA,to play with,1
56153d5e7ffc8a000a811ba8,gu0n1uxryw,Affordance Norms_Prolific,1,31,2023-01-20T22:54:32+00:00,34.53432703,92,updated stim.csv,Version92.csv,Version 92,List 92,teahouse,NA,2737,4.347826087,2645,0.253002246,2738,BOI,-,-,Please name all of the ways you could use this object. Keep in mind that one object can have many uses. Separate your responses with a comma.,NA,y,33873,NA,NA,27990,32421,NA,NA,NA,"drinking, eating, socialising",1
56153d5e7ffc8a000a811ba8,gu0n1uxryw,Affordance Norms_Prolific,1,32,2023-01-20T22:54:48+00:00,15.75254416,92,updated stim.csv,Version92.csv,Version 92,List 92,wreath,NA,2732,5.461538462,2979,0.545736443,2733,BOI,-,-,Please name all of the ways you could use this object. Keep in mind that one object can have many uses. Separate your responses with a comma.,NA,y,15334,NA,NA,2268,13759,NA,NA,NA,"decorating at xmas, putting on a grave, putting on a door",1
56153d5e7ffc8a000a811ba8,gu0n1uxryw,Affordance Norms_Prolific,1,33,2023-01-20T22:55:39+00:00,51.24077988,92,updated stim.csv,Version92.csv,Version 92,List 92,vacuum,NA,2738,5.291666667,2831,0.217079292,2739,BOI,-,-,Please name all of the ways you could use this object. Keep in mind that one object can have many uses. Separate your responses with a comma.,NA,y,50594,NA,NA,2468,47988,NA,NA,NA,"to hoover the house, clean carpet, get rid of cobwebs, ",1
56153d5e7ffc8a000a811ba8,gu0n1uxryw,Affordance Norms_Prolific,1,34,2023-01-20T22:56:49+00:00,70.41231799,92,updated stim.csv,Version92.csv,Version 92,List 92,typewriter,NA,2731,5.592592593,2814,0.066843696,2732,BOI,-,-,Please name all of the ways you could use this object. Keep in mind that one object can have many uses. Separate your responses with a comma.,NA,y,69478,NA,NA,52133,67312,NA,NA,NA,"to write stories with, writing scripts, sending a letter",1
56153d5e7ffc8a000a811ba8,gu0n1uxryw,Affordance Norms_Prolific,1,35,2023-01-20T22:57:15+00:00,25.34995699,92,updated stim.csv,Version92.csv,Version 92,List 92,fruitcake,NA,2747,6,1061,0.894019945,2748,BOI,-,-,Please name all of the ways you could use this object. Keep in mind that one object can have many uses. Separate your responses with a comma.,NA,y,24676,NA,NA,12551,22908,NA,NA,NA,"to eat, to throw at someone",1
56153d5e7ffc8a000a811ba8,gu0n1uxryw,Affordance Norms_Prolific,1,36,2023-01-20T22:57:36+00:00,21.34053111,92,updated stim.csv,Version92.csv,Version 92,List 92,airplane,NA,2750,4.625,22,0.539121628,2751,BOI,-,-,Please name all of the ways you could use this object. Keep in mind that one object can have many uses. Separate your responses with a comma.,NA,y,20699,NA,NA,3027,18649,NA,NA,NA,"to travel abroad, travel domestically, travel to a party",1
56153d5e7ffc8a000a811ba8,gu0n1uxryw,Affordance Norms_Prolific,1,37,2023-01-20T22:57:57+00:00,20.69411588,92,updated stim.csv,Version92.csv,Version 92,List 92,cannonball,NA,2755,4.304347826,416,0.112743857,2756,BOI,-,-,Please name all of the ways you could use this object. Keep in mind that one object can have many uses. Separate your responses with a comma.,NA,y,19991,NA,NA,2121,18763,NA,NA,NA,"to shoot at an opponent, to play bowling with, for a dog to chase the ball",1
56153d5e7ffc8a000a811ba8,gu0n1uxryw,Affordance Norms_Prolific,1,38,2023-01-20T22:58:12+00:00,15.02523708,92,updated stim.csv,Version92.csv,Version 92,List 92,swing,NA,2748,5.36,2608,0.846479663,2749,BOI,-,-,Please name all of the ways you could use this object. Keep in mind that one object can have many uses. Separate your responses with a comma.,NA,y,14581,NA,NA,1912,11550,NA,NA,NA,"to sit on, to push someone on, to put a dog on, ",1
56153d5e7ffc8a000a811ba8,gu0n1uxryw,Affordance Norms_Prolific,1,39,2023-01-20T22:58:23+00:00,11.68007803,92,updated stim.csv,Version92.csv,Version 92,List 92,sweatshirt,NA,2744,6.6,2605,0.206073363,2745,BOI,-,-,Please name all of the ways you could use this object. Keep in mind that one object can have many uses. Separate your responses with a comma.,NA,y,11238,NA,NA,2043,3091,NA,NA,NA,"to wear, ",1
56153d5e7ffc8a000a811ba8,gu0n1uxryw,Affordance Norms_Prolific,1,40,2023-01-20T22:58:39+00:00,15.70611882,92,updated stim.csv,Version92.csv,Version 92,List 92,tissue,NA,2759,5.72,2707,0.79838115,2760,BOI,-,-,Please name all of the ways you could use this object. Keep in mind that one object can have many uses. Separate your responses with a comma.,NA,y,15291,NA,NA,1890,13534,NA,NA,NA,"to sneeze in to, to wipe away tears, to clean up residue",1
56a7da16c89737000b22953c,1g5nib1iqw,Affordance Norms_Prolific,1,11,2023-01-20T22:45:29+00:00,15.68695998,76,updated stim.csv,Version76.csv,Version 76,List 76,underpants,NA,2255,6,2823,0.861875751,2256,BOI,-,-,Please name all of the ways you could use this object. Keep in mind that one object can have many uses. Separate your responses with a comma.,NA,y,15228,NA,NA,2148,12537,NA,NA,NA,"wear, rags, ",1
56a7da16c89737000b22953c,1g5nib1iqw,Affordance Norms_Prolific,1,12,2023-01-20T22:45:40+00:00,10.45546603,76,updated stim.csv,Version76.csv,Version 76,List 76,slaw,NA,2277,4.8,2405,0.72669355,2278,BOI,-,-,Please name all of the ways you could use this object. Keep in mind that one object can have many uses. Separate your responses with a comma.,NA,y,9992,NA,NA,2960,4958,NA,NA,NA,"eat, ",1
56a7da16c89737000b22953c,1g5nib1iqw,Affordance Norms_Prolific,1,13,2023-01-20T22:45:48+00:00,8.345046043,76,updated stim.csv,Version76.csv,Version 76,List 76,instrument,NA,2269,5.739130435,1361,0.000322991,2270,BOI,-,-,Please name all of the ways you could use this object. Keep in mind that one object can have many uses. Separate your responses with a comma.,NA,y,7891,NA,NA,1829,5492,NA,NA,NA,"play, display",1
56a7da16c89737000b22953c,1g5nib1iqw,Affordance Norms_Prolific,1,14,2023-01-20T22:46:03+00:00,14.85212302,76,updated stim.csv,Version76.csv,Version 76,List 76,stair,NA,2252,5.36,2499,0.309850735,2253,BOI,-,-,Please name all of the ways you could use this object. Keep in mind that one object can have many uses. Separate your responses with a comma.,NA,y,14413,NA,NA,2426,13274,NA,NA,NA,"walk up, moving, slide down",1
56a7da16c89737000b22953c,1g5nib1iqw,Affordance Norms_Prolific,1,15,2023-01-20T22:46:24+00:00,21.09893894,76,updated stim.csv,Version76.csv,Version 76,List 76,creature,NA,2257,4.833333333,690,0.372337203,2258,BOI,-,-,Please name all of the ways you could use this object. Keep in mind that one object can have many uses. Separate your responses with a comma.,NA,y,20428,NA,NA,2468,13181,NA,NA,NA,"eat, keep as pet, ",1
56a7da16c89737000b22953c,1g5nib1iqw,Affordance Norms_Prolific,1,16,2023-01-20T22:46:32+00:00,7.738198042,76,updated stim.csv,Version76.csv,Version 76,List 76,canine,NA,2256,5.375,414,0.839193135,2257,BOI,-,-,Please name all of the ways you could use this object. Keep in mind that one object can have many uses. Separate your responses with a comma.,NA,y,7233,NA,NA,2204,2727,NA,NA,NA,dog,1
56a7da16c89737000b22953c,1g5nib1iqw,Affordance Norms_Prolific,1,17,2023-01-20T22:46:46+00:00,14.16617799,76,updated stim.csv,Version76.csv,Version 76,List 76,faucet,NA,2276,5.869565217,952,0.411304413,2277,BOI,-,-,Please name all of the ways you could use this object. Keep in mind that one object can have many uses. Separate your responses with a comma.,NA,y,13700,NA,NA,2149,12248,NA,NA,NA,"tap, get water from",1
56a7da16c89737000b22953c,1g5nib1iqw,Affordance Norms_Prolific,1,18,2023-01-20T22:47:05+00:00,18.77821088,76,updated stim.csv,Version76.csv,Version 76,List 76,spectacles,NA,2253,5.28,2466,0.053527354,2254,BOI,-,-,Please name all of the ways you could use this object. Keep in mind that one object can have many uses. Separate your responses with a comma.,NA,y,18204,NA,NA,2079,16857,NA,NA,NA,"wear, see through, wipe, test",1
56a7da16c89737000b22953c,1g5nib1iqw,Affordance Norms_Prolific,1,19,2023-01-20T22:47:22+00:00,17.19129014,76,updated stim.csv,Version76.csv,Version 76,List 76,student,NA,2266,5.043478261,2573,0.755246441,2267,BOI,-,-,Please name all of the ways you could use this object. Keep in mind that one object can have many uses. Separate your responses with a comma.,NA,y,16697,NA,NA,5885,15298,NA,NA,NA,"teach, hire",1
56a7da16c89737000b22953c,1g5nib1iqw,Affordance Norms_Prolific,1,20,2023-01-20T22:47:33+00:00,10.78209305,76,updated stim.csv,Version76.csv,Version 76,List 76,puzzle,NA,2261,5.44,2108,0.857233776,2262,BOI,-,-,Please name all of the ways you could use this object. Keep in mind that one object can have many uses. Separate your responses with a comma.,NA,y,9946,NA,NA,2524,7567,NA,NA,NA,"play, complete",1
56a7da16c89737000b22953c,1g5nib1iqw,Affordance Norms_Prolific,1,21,2023-01-20T22:47:43+00:00,10.72636604,76,updated stim.csv,Version76.csv,Version 76,List 76,suppository,NA,2267,5.782608696,2593,0.636691126,2268,BOI,-,-,Please name all of the ways you could use this object. Keep in mind that one object can have many uses. Separate your responses with a comma.,NA,y,10237,NA,NA,5495,8903,NA,NA,NA,"use, insert",1
56a7da16c89737000b22953c,1g5nib1iqw,Affordance Norms_Prolific,1,22,2023-01-20T22:47:52+00:00,8.27895689,76,updated stim.csv,Version76.csv,Version 76,List 76,bodice,NA,2272,4.80952381,259,0.118554187,2273,BOI,-,-,Please name all of the ways you could use this object. Keep in mind that one object can have many uses. Separate your responses with a comma.,NA,y,7820,NA,NA,3033,6502,NA,NA,NA,"wear, ",1
56a7da16c89737000b22953c,1g5nib1iqw,Affordance Norms_Prolific,1,23,2023-01-20T22:48:05+00:00,13.17032599,76,updated stim.csv,Version76.csv,Version 76,List 76,automobile,NA,2254,5.64,101,0.74632475,2255,BOI,-,-,Please name all of the ways you could use this object. Keep in mind that one object can have many uses. Separate your responses with a comma.,NA,y,12709,NA,NA,2218,11439,NA,NA,NA,"car, drive, ride, park",1
56a7da16c89737000b22953c,1g5nib1iqw,Affordance Norms_Prolific,1,24,2023-01-20T22:48:26+00:00,21.43252802,76,updated stim.csv,Version76.csv,Version 76,List 76,clipboard,NA,2260,5.652173913,561,0.161972474,2261,BOI,-,-,Please name all of the ways you could use this object. Keep in mind that one object can have many uses. Separate your responses with a comma.,NA,y,20743,NA,NA,5267,19541,NA,NA,NA,"clip paper to, lean on",1
56a7da16c89737000b22953c,1g5nib1iqw,Affordance Norms_Prolific,1,25,2023-01-20T22:48:43+00:00,16.93929005,76,updated stim.csv,Version76.csv,Version 76,List 76,picture,NA,2265,5.32,1952,0.204872718,2266,BOI,-,-,Please name all of the ways you could use this object. Keep in mind that one object can have many uses. Separate your responses with a comma.,NA,y,16458,NA,NA,2309,11016,NA,NA,NA,"look at, hang, draw, paint",1
56a7da16c89737000b22953c,1g5nib1iqw,Affordance Norms_Prolific,1,26,2023-01-20T22:48:57+00:00,13.75591183,76,updated stim.csv,Version76.csv,Version 76,List 76,son,NA,2258,5.875,2451,0.868453032,2259,BOI,-,-,Please name all of the ways you could use this object. Keep in mind that one object can have many uses. Separate your responses with a comma.,NA,y,13194,NA,NA,3569,10763,NA,NA,NA,"love, raise",1
56a7da16c89737000b22953c,1g5nib1iqw,Affordance Norms_Prolific,1,27,2023-01-20T22:49:10+00:00,13.32379222,76,updated stim.csv,Version76.csv,Version 76,List 76,carton,NA,2270,5,443,0.638030942,2271,BOI,-,-,Please name all of the ways you could use this object. Keep in mind that one object can have many uses. Separate your responses with a comma.,NA,y,12835,NA,NA,3496,10451,NA,NA,NA,"pour, open, buy",1
56a7da16c89737000b22953c,1g5nib1iqw,Affordance Norms_Prolific,1,28,2023-01-20T22:49:29+00:00,18.69966292,76,updated stim.csv,Version76.csv,Version 76,List 76,pinewood,NA,2280,4.541666667,1973,0.317475374,2281,BOI,-,-,Please name all of the ways you could use this object. Keep in mind that one object can have many uses. Separate your responses with a comma.,NA,y,18243,NA,NA,3309,16668,NA,NA,NA,"chop, carve, make furniture",1
56a7da16c89737000b22953c,1g5nib1iqw,Affordance Norms_Prolific,1,29,2023-01-20T22:49:45+00:00,16.11960697,76,updated stim.csv,Version76.csv,Version 76,List 76,thorn,NA,2259,4.925925926,2683,0.743618838,2260,BOI,-,-,Please name all of the ways you could use this object. Keep in mind that one object can have many uses. Separate your responses with a comma.,NA,y,15656,NA,NA,13125,14323,NA,NA,NA,prick,1
56a7da16c89737000b22953c,1g5nib1iqw,Affordance Norms_Prolific,1,30,2023-01-20T22:49:53+00:00,7.664475918,76,updated stim.csv,Version76.csv,Version 76,List 76,jelly,NA,2268,5.48,1381,0.741729058,2269,BOI,-,-,Please name all of the ways you could use this object. Keep in mind that one object can have many uses. Separate your responses with a comma.,NA,y,7166,NA,NA,1749,5347,NA,NA,NA,"eat, wobble",1
56a7da16c89737000b22953c,1g5nib1iqw,Affordance Norms_Prolific,1,31,2023-01-20T22:50:03+00:00,10.14323807,76,updated stim.csv,Version76.csv,Version 76,List 76,ventilator,NA,2279,4.72,2848,0.88891481,2280,BOI,-,-,Please name all of the ways you could use this object. Keep in mind that one object can have many uses. Separate your responses with a comma.,NA,y,9675,NA,NA,2796,8007,NA,NA,NA,"save live, clean",1
56a7da16c89737000b22953c,1g5nib1iqw,Affordance Norms_Prolific,1,32,2023-01-20T22:50:25+00:00,22.05690503,76,updated stim.csv,Version76.csv,Version 76,List 76,caramel,NA,2274,5.28,429,0.583260906,2275,BOI,-,-,Please name all of the ways you could use this object. Keep in mind that one object can have many uses. Separate your responses with a comma.,NA,y,21385,NA,NA,1809,19881,NA,NA,NA,"eat, stir, wrap, coat in chocolate",1
56a7da16c89737000b22953c,1g5nib1iqw,Affordance Norms_Prolific,1,33,2023-01-20T22:50:36+00:00,11.00066996,76,updated stim.csv,Version76.csv,Version 76,List 76,archives,NA,2271,4.333333333,70,0.95890697,2272,BOI,-,-,Please name all of the ways you could use this object. Keep in mind that one object can have many uses. Separate your responses with a comma.,NA,y,10513,NA,NA,4557,9053,NA,NA,NA,"search, store",1
56a7da16c89737000b22953c,1g5nib1iqw,Affordance Norms_Prolific,1,34,2023-01-20T22:50:54+00:00,17.67718196,76,updated stim.csv,Version76.csv,Version 76,List 76,hairdresser,NA,2278,5.384615385,1212,0.12368717,2279,BOI,-,-,Please name all of the ways you could use this object. Keep in mind that one object can have many uses. Separate your responses with a comma.,NA,y,17200,NA,NA,4077,15453,NA,NA,NA,"pay, talk to, book appointment",1
56a7da16c89737000b22953c,1g5nib1iqw,Affordance Norms_Prolific,1,35,2023-01-20T22:51:08+00:00,14.43479609,76,updated stim.csv,Version76.csv,Version 76,List 76,skateboard,NA,2251,6.04,2390,0.920847169,2252,BOI,-,-,Please name all of the ways you could use this object. Keep in mind that one object can have many uses. Separate your responses with a comma.,NA,y,13946,NA,NA,3583,12420,NA,NA,NA,"ride, break, sell",1
56a7da16c89737000b22953c,1g5nib1iqw,Affordance Norms_Prolific,1,36,2023-01-20T22:51:17+00:00,9.031087875,76,updated stim.csv,Version76.csv,Version 76,List 76,bracelet,NA,2262,6.5,300,0.136544033,2263,BOI,-,-,Please name all of the ways you could use this object. Keep in mind that one object can have many uses. Separate your responses with a comma.,NA,y,8573,NA,NA,2092,6914,NA,NA,NA,"wear, buy, sell",1
56a7da16c89737000b22953c,1g5nib1iqw,Affordance Norms_Prolific,1,37,2023-01-20T22:51:31+00:00,14.25159407,76,updated stim.csv,Version76.csv,Version 76,List 76,quilt,NA,2263,5.826086957,2116,0.420003395,2264,BOI,-,-,Please name all of the ways you could use this object. Keep in mind that one object can have many uses. Separate your responses with a comma.,NA,y,13819,NA,NA,3337,8757,NA,NA,NA,"knit, buy, sell, ",1
56a7da16c89737000b22953c,1g5nib1iqw,Affordance Norms_Prolific,1,38,2023-01-20T22:51:44+00:00,12.55208898,76,updated stim.csv,Version76.csv,Version 76,List 76,branch,NA,2275,4.821428571,303,0.423434619,2276,BOI,-,-,Please name all of the ways you could use this object. Keep in mind that one object can have many uses. Separate your responses with a comma.,NA,y,12075,NA,NA,3672,10740,NA,NA,NA,"chop, climb",1
56a7da16c89737000b22953c,1g5nib1iqw,Affordance Norms_Prolific,1,39,2023-01-20T22:51:53+00:00,9.28105402,76,updated stim.csv,Version76.csv,Version 76,List 76,underbrush,NA,2273,4.5,2818,0.806274326,2274,BOI,-,-,Please name all of the ways you could use this object. Keep in mind that one object can have many uses. Separate your responses with a comma.,NA,y,7909,NA,NA,6641,6641,NA,NA,NA,?,1
56a7da16c89737000b22953c,1g5nib1iqw,Affordance Norms_Prolific,1,40,2023-01-20T22:52:08+00:00,15.11157703,76,updated stim.csv,Version76.csv,Version 76,List 76,furniture,NA,2264,6.56,1068,0.448220885,2265,BOI,-,-,Please name all of the ways you could use this object. Keep in mind that one object can have many uses. Separate your responses with a comma.,NA,y,14655,NA,NA,2252,13298,NA,NA,NA,"polish, buy, sell, paint, move",1
5702c03e68c641000e0d754d,3mahohbf2x,Affordance Norms_Prolific,1,11,2023-01-25T02:35:41+00:00,69.37142515,12,updated stim.csv,Version12.csv,Version 12,List 12,stockings,NA,344,5.84,2542,0.41824356,345,BOI,-,-,Please name all of the ways you could use this object. Keep in mind that one object can have many uses. Separate your responses with a comma.,NA,y,68325,NA,NA,2715,57832,NA,NA,NA,"worn, stretched, torn, ripped, folded, stored, laddered",1
5702c03e68c641000e0d754d,3mahohbf2x,Affordance Norms_Prolific,1,12,2023-01-25T02:37:13+00:00,92.0325048,12,updated stim.csv,Version12.csv,Version 12,List 12,mulberry,NA,339,4.703703704,1714,0.382484128,340,BOI,-,-,Please name all of the ways you could use this object. Keep in mind that one object can have many uses. Separate your responses with a comma.,NA,y,91233,NA,NA,9401,87383,NA,NA,NA,"eat, juice, drink, brew, ferment, preserve, liquidize, decorate",1
5702c03e68c641000e0d754d,3mahohbf2x,Affordance Norms_Prolific,1,13,2023-01-25T02:38:20+00:00,67.31820822,12,updated stim.csv,Version12.csv,Version 12,List 12,shot,NA,356,4.392857143,2360,0.644561162,357,BOI,-,-,Please name all of the ways you could use this object. Keep in mind that one object can have many uses. Separate your responses with a comma.,NA,y,66589,NA,NA,19224,60280,NA,NA,NA,"weight, shoot, drink, chase, hear",1
5702c03e68c641000e0d754d,3mahohbf2x,Affordance Norms_Prolific,1,14,2023-01-25T02:39:42+00:00,81.05240297,12,updated stim.csv,Version12.csv,Version 12,List 12,dairy,NA,335,4.28,750,0.234031096,336,BOI,-,-,Please name all of the ways you could use this object. Keep in mind that one object can have many uses. Separate your responses with a comma.,NA,y,80092,NA,NA,13873,72172,NA,NA,NA,"milk, yoghurt, cheese, bake, drink, freeze, boil, warm, mix",1
5702c03e68c641000e0d754d,3mahohbf2x,Affordance Norms_Prolific,1,15,2023-01-25T02:40:52+00:00,70.42009282,12,updated stim.csv,Version12.csv,Version 12,List 12,ruby,NA,332,4.76,2202,0.999381206,333,BOI,-,-,Please name all of the ways you could use this object. Keep in mind that one object can have many uses. Separate your responses with a comma.,NA,y,69732,NA,NA,9575,60592,NA,NA,NA,"jewellery, scratch, etch, bearing, decoration",1
5702c03e68c641000e0d754d,3mahohbf2x,Affordance Norms_Prolific,1,16,2023-01-25T02:41:40+00:00,47.66490006,12,updated stim.csv,Version12.csv,Version 12,List 12,mayonnaise,NA,342,5.523809524,1628,0.940541237,343,BOI,-,-,Please name all of the ways you could use this object. Keep in mind that one object can have many uses. Separate your responses with a comma.,NA,y,46955,NA,NA,10021,42580,NA,NA,NA,"spread, mix, dip, coat, cook, eat, dress",1
5702c03e68c641000e0d754d,3mahohbf2x,Affordance Norms_Prolific,1,17,2023-01-25T02:43:01+00:00,81.51728392,12,updated stim.csv,Version12.csv,Version 12,List 12,someone,NA,357,4.625,2450,0.34986421,358,BOI,-,-,Please name all of the ways you could use this object. Keep in mind that one object can have many uses. Separate your responses with a comma.,NA,y,80850,NA,NA,14067,74523,NA,NA,NA,"help, assistance, hit, rob, push, dance, walk, talk, sleep",1
5702c03e68c641000e0d754d,3mahohbf2x,Affordance Norms_Prolific,1,18,2023-01-25T02:44:07+00:00,65.73898411,12,updated stim.csv,Version12.csv,Version 12,List 12,beet,NA,345,5.32,193,0.704074452,346,BOI,-,-,Please name all of the ways you could use this object. Keep in mind that one object can have many uses. Separate your responses with a comma.,NA,y,64978,NA,NA,8941,59902,NA,NA,NA,"slice, chop, grate, mash, pickle, refine, eat, garnish",1
5702c03e68c641000e0d754d,3mahohbf2x,Affordance Norms_Prolific,1,19,2023-01-25T02:44:59+00:00,52.54018807,12,updated stim.csv,Version12.csv,Version 12,List 12,mall,NA,340,4.36,1582,0.724230565,341,BOI,-,-,Please name all of the ways you could use this object. Keep in mind that one object can have many uses. Separate your responses with a comma.,NA,y,51788,NA,NA,3488,45350,NA,NA,NA,"visit, shop, browse, walk, socialize, eat, drink, cinema",1
5702c03e68c641000e0d754d,3mahohbf2x,Affordance Norms_Prolific,1,20,2023-01-25T02:45:27+00:00,27.39273787,12,updated stim.csv,Version12.csv,Version 12,List 12,showerhead,NA,360,5.041666667,2365,0.714334081,361,BOI,-,-,Please name all of the ways you could use this object. Keep in mind that one object can have many uses. Separate your responses with a comma.,NA,y,26664,NA,NA,3411,13956,NA,NA,NA,"wash, shower, clean, spray, rinse",1
5702c03e68c641000e0d754d,3mahohbf2x,Affordance Norms_Prolific,1,21,2023-01-25T02:46:23+00:00,55.85890198,12,updated stim.csv,Version12.csv,Version 12,List 12,toddler,NA,349,5.875,2714,0.989271668,350,BOI,-,-,Please name all of the ways you could use this object. Keep in mind that one object can have many uses. Separate your responses with a comma.,NA,y,55101,NA,NA,4391,51754,NA,NA,NA,"play, talk, run, jump, sing, read, bathe, wash, supervise, scold",1
5702c03e68c641000e0d754d,3mahohbf2x,Affordance Norms_Prolific,1,22,2023-01-25T02:47:12+00:00,49.22722507,12,updated stim.csv,Version12.csv,Version 12,List 12,dock,NA,336,4.541666667,808,0.423772685,337,BOI,-,-,Please name all of the ways you could use this object. Keep in mind that one object can have many uses. Separate your responses with a comma.,NA,y,48488,NA,NA,10429,45656,NA,NA,NA,"load, unload, sort, charge, sail, arrive, leave",1
5702c03e68c641000e0d754d,3mahohbf2x,Affordance Norms_Prolific,1,23,2023-01-25T02:48:04+00:00,52.24931908,12,updated stim.csv,Version12.csv,Version 12,List 12,champagne,NA,333,5.583333333,493,0.717474064,334,BOI,-,-,Please name all of the ways you could use this object. Keep in mind that one object can have many uses. Separate your responses with a comma.,NA,y,51560,NA,NA,3048,30652,NA,NA,NA,"drink, celebrate, bake, cocktails",1
5702c03e68c641000e0d754d,3mahohbf2x,Affordance Norms_Prolific,1,24,2023-01-25T02:48:56+00:00,52.00636697,12,updated stim.csv,Version12.csv,Version 12,List 12,bartender,NA,353,4.64,156,0.909538497,354,BOI,-,-,Please name all of the ways you could use this object. Keep in mind that one object can have many uses. Separate your responses with a comma.,NA,y,51292,NA,NA,11328,44574,NA,NA,NA,"order, serve, talk",1
5702c03e68c641000e0d754d,3mahohbf2x,Affordance Norms_Prolific,1,25,2023-01-25T02:50:26+00:00,89.93909407,12,updated stim.csv,Version12.csv,Version 12,List 12,condiment,NA,347,5.76,620,0.735373904,348,BOI,-,-,Please name all of the ways you could use this object. Keep in mind that one object can have many uses. Separate your responses with a comma.,NA,y,89208,NA,NA,7590,60587,NA,NA,NA,"eat, store, dip, shake, spread, squirt, drip, drizzle, spray, mix, coat",1
5702c03e68c641000e0d754d,3mahohbf2x,Affordance Norms_Prolific,1,26,2023-01-25T02:51:27+00:00,60.88365293,12,updated stim.csv,Version12.csv,Version 12,List 12,bass,NA,337,4.37037037,164,0.261790448,338,BOI,-,-,Please name all of the ways you could use this object. Keep in mind that one object can have many uses. Separate your responses with a comma.,NA,y,60157,NA,NA,18095,54238,NA,NA,NA,"fish, eat, fry, bake, chop, slice, skin, bait, play, pick, slap, finger, tap",1
5702c03e68c641000e0d754d,3mahohbf2x,Affordance Norms_Prolific,1,27,2023-01-25T02:52:44+00:00,76.97007203,12,updated stim.csv,Version12.csv,Version 12,List 12,closet,NA,348,4.962962963,567,0.361293617,349,BOI,-,-,Please name all of the ways you could use this object. Keep in mind that one object can have many uses. Separate your responses with a comma.,NA,y,76263,NA,NA,9512,34953,NA,NA,NA,"store, hide, build, burn",1
5702c03e68c641000e0d754d,3mahohbf2x,Affordance Norms_Prolific,1,28,2023-01-25T02:53:18+00:00,33.63181901,12,updated stim.csv,Version12.csv,Version 12,List 12,cobweb,NA,359,4.916666667,584,0.98810054,360,BOI,-,-,Please name all of the ways you could use this object. Keep in mind that one object can have many uses. Separate your responses with a comma.,NA,y,32904,NA,NA,17731,20266,NA,NA,NA,"dust, remove",1
5702c03e68c641000e0d754d,3mahohbf2x,Affordance Norms_Prolific,1,29,2023-01-25T02:54:10+00:00,52.04642987,12,updated stim.csv,Version12.csv,Version 12,List 12,bystander,NA,331,4.791666667,384,0.176677262,332,BOI,-,-,Please name all of the ways you could use this object. Keep in mind that one object can have many uses. Separate your responses with a comma.,NA,y,51322,NA,NA,18473,48511,NA,NA,NA,"chat, assistance, directions, photo",1
5702c03e68c641000e0d754d,3mahohbf2x,Affordance Norms_Prolific,1,30,2023-01-25T02:54:49+00:00,39.12092805,12,updated stim.csv,Version12.csv,Version 12,List 12,sifter,NA,350,4.782608696,2378,0.890528918,351,BOI,-,-,Please name all of the ways you could use this object. Keep in mind that one object can have many uses. Separate your responses with a comma.,NA,y,38186,NA,NA,5892,35506,NA,NA,NA,"sift, dust, strain, drain, separate, filter, grade",1
5702c03e68c641000e0d754d,3mahohbf2x,Affordance Norms_Prolific,1,31,2023-01-25T02:56:01+00:00,71.84649992,12,updated stim.csv,Version12.csv,Version 12,List 12,dumbbell,NA,351,5.958333333,865,0.537684107,352,BOI,-,-,Please name all of the ways you could use this object. Keep in mind that one object can have many uses. Separate your responses with a comma.,NA,y,71185,NA,NA,4149,65503,NA,NA,NA,"Lift, flex, throw, hit, break, smash, hammer, bang, weight, doorstop",1
5702c03e68c641000e0d754d,3mahohbf2x,Affordance Norms_Prolific,1,32,2023-01-25T02:56:37+00:00,36.5915432,12,updated stim.csv,Version12.csv,Version 12,List 12,necklace,NA,338,5.821428571,1741,0.573731001,339,BOI,-,-,Please name all of the ways you could use this object. Keep in mind that one object can have many uses. Separate your responses with a comma.,NA,y,35910,NA,NA,3078,27616,NA,NA,NA,"wear, gift, bracelet",1
5702c03e68c641000e0d754d,3mahohbf2x,Affordance Norms_Prolific,1,33,2023-01-25T02:57:14+00:00,36.68859386,12,updated stim.csv,Version12.csv,Version 12,List 12,pinkie,NA,355,5.260869565,1974,0.365615857,356,BOI,-,-,Please name all of the ways you could use this object. Keep in mind that one object can have many uses. Separate your responses with a comma.,NA,y,35983,NA,NA,19775,32029,NA,NA,NA,"pick, promise",1
5702c03e68c641000e0d754d,3mahohbf2x,Affordance Norms_Prolific,1,34,2023-01-25T02:58:57+00:00,103.3304319,12,updated stim.csv,Version12.csv,Version 12,List 12,man,NA,352,5.346153846,1586,0.963710737,353,BOI,-,-,Please name all of the ways you could use this object. Keep in mind that one object can have many uses. Separate your responses with a comma.,NA,y,102626,NA,NA,37747,93075,NA,NA,NA,"assistance, help, chat, walk, socialize, advice",1
5702c03e68c641000e0d754d,3mahohbf2x,Affordance Norms_Prolific,1,35,2023-01-25T03:00:44+00:00,106.4559431,12,updated stim.csv,Version12.csv,Version 12,List 12,fungus,NA,346,4.32,1064,0.562088746,347,BOI,-,-,Please name all of the ways you could use this object. Keep in mind that one object can have many uses. Separate your responses with a comma.,NA,y,105786,NA,NA,7168,95710,NA,NA,NA,"eat, cook, fry, stew, bake, medicine, drugs, research, feed, protein, biodegrade, symbiosis",1
5702c03e68c641000e0d754d,3mahohbf2x,Affordance Norms_Prolific,1,36,2023-01-25T03:01:48+00:00,64.27403402,12,updated stim.csv,Version12.csv,Version 12,List 12,certificate,NA,358,5.041666667,482,0.737715679,359,BOI,-,-,Please name all of the ways you could use this object. Keep in mind that one object can have many uses. Separate your responses with a comma.,NA,y,63546,NA,NA,8847,60847,NA,NA,NA,"award, grant, issue, display, produce, present, file, copy, register",1
5702c03e68c641000e0d754d,3mahohbf2x,Affordance Norms_Prolific,1,37,2023-01-25T03:02:53+00:00,65.03801608,12,updated stim.csv,Version12.csv,Version 12,List 12,String,NA,334,5.626180837,2568,0.200879423,335,BOI,-,-,Please name all of the ways you could use this object. Keep in mind that one object can have many uses. Separate your responses with a comma.,NA,y,64273,NA,NA,6153,44837,NA,NA,NA,"tie, wind, measure, plumb, guide, cordon, art",1
5702c03e68c641000e0d754d,3mahohbf2x,Affordance Norms_Prolific,1,38,2023-01-25T03:04:26+00:00,93.13525677,12,updated stim.csv,Version12.csv,Version 12,List 12,flower,NA,343,5.916666667,1015,0.960657599,344,BOI,-,-,Please name all of the ways you could use this object. Keep in mind that one object can have many uses. Separate your responses with a comma.,NA,y,92440,NA,NA,4631,86097,NA,NA,NA,"grow, eat, garnish, give, gift, display, arrange, feed, smoke, press, grind, dry, steep, boil, extract",1
5702c03e68c641000e0d754d,3mahohbf2x,Affordance Norms_Prolific,1,39,2023-01-25T03:04:57+00:00,30.8102951,12,updated stim.csv,Version12.csv,Version 12,List 12,hourglass,NA,354,4.583333333,1325,0.78313885,355,BOI,-,-,Please name all of the ways you could use this object. Keep in mind that one object can have many uses. Separate your responses with a comma.,NA,y,30111,NA,NA,3925,21859,NA,NA,NA,"timer, decoration, art",1
5702c03e68c641000e0d754d,3mahohbf2x,Affordance Norms_Prolific,1,40,2023-01-25T03:05:28+00:00,31.0995121,12,updated stim.csv,Version12.csv,Version 12,List 12,hip,NA,341,5.086956522,1291,0.796894413,342,BOI,-,-,Please name all of the ways you could use this object. Keep in mind that one object can have many uses. Separate your responses with a comma.,NA,y,30387,NA,NA,2896,26925,NA,NA,NA,"walk, support, stride, run, jump, bounce",1
5714e0958adadb00098deed4,owgo48kzos,Affordance Norms_Prolific,1,11,2023-01-20T22:48:27+00:00,29.4283092,69,updated stim.csv,Version69.csv,Version 69,List 69,brace,NA,2062,5.04,299,0.200654341,2063,BOI,-,-,Please name all of the ways you could use this object. Keep in mind that one object can have many uses. Separate your responses with a comma.,NA,y,28733,NA,NA,6236,26910,NA,NA,NA,"hold files, arrange teeth, hold hair",1
5714e0958adadb00098deed4,owgo48kzos,Affordance Norms_Prolific,1,12,2023-01-20T22:48:33+00:00,6.333101988,69,updated stim.csv,Version69.csv,Version 69,List 69,armoire,NA,2041,4.904761905,73,0.052185151,2042,BOI,-,-,Please name all of the ways you could use this object. Keep in mind that one object can have many uses. Separate your responses with a comma.,NA,y,5944,NA,NA,-1,-1,NA,NA,NA,,1
5714e0958adadb00098deed4,owgo48kzos,Affordance Norms_Prolific,1,13,2023-01-20T22:48:54+00:00,21.07960796,69,updated stim.csv,Version69.csv,Version 69,List 69,sponge,NA,2069,6.5,2480,0.696963991,2070,BOI,-,-,Please name all of the ways you could use this object. Keep in mind that one object can have many uses. Separate your responses with a comma.,NA,y,20335,NA,NA,4216,18786,NA,NA,NA,"wash plates, wash skin, wash objects",1
5714e0958adadb00098deed4,owgo48kzos,Affordance Norms_Prolific,1,14,2023-01-20T22:49:09+00:00,14.60843897,69,updated stim.csv,Version69.csv,Version 69,List 69,farmhouse,NA,2055,5.068965517,949,0.607320841,2056,BOI,-,-,Please name all of the ways you could use this object. Keep in mind that one object can have many uses. Separate your responses with a comma.,NA,y,14206,NA,NA,2842,13089,NA,NA,NA,"store crops, house animals",1
5714e0958adadb00098deed4,owgo48kzos,Affordance Norms_Prolific,1,15,2023-01-20T22:49:28+00:00,19.55820203,69,updated stim.csv,Version69.csv,Version 69,List 69,phone,NA,2046,6.5,1940,0.865824601,2047,BOI,-,-,Please name all of the ways you could use this object. Keep in mind that one object can have many uses. Separate your responses with a comma.,NA,y,19087,NA,NA,1572,17842,NA,NA,NA,"call, text, watch things, use internet",1
5714e0958adadb00098deed4,owgo48kzos,Affordance Norms_Prolific,1,16,2023-01-20T22:49:49+00:00,20.85900402,69,updated stim.csv,Version69.csv,Version 69,List 69,medallion,NA,2059,5.541666667,1635,0.593281575,2060,BOI,-,-,Please name all of the ways you could use this object. Keep in mind that one object can have many uses. Separate your responses with a comma.,NA,y,20140,NA,NA,3925,18362,NA,NA,NA,"wear on neck, wear on jewellery",1
5714e0958adadb00098deed4,owgo48kzos,Affordance Norms_Prolific,1,17,2023-01-20T22:50:01+00:00,11.84898996,69,updated stim.csv,Version69.csv,Version 69,List 69,medicine,NA,2063,5.692307692,1638,0.021183078,2064,BOI,-,-,Please name all of the ways you could use this object. Keep in mind that one object can have many uses. Separate your responses with a comma.,NA,y,11436,NA,NA,3369,9559,NA,NA,NA,"to cure, to kill",1
5714e0958adadb00098deed4,owgo48kzos,Affordance Norms_Prolific,1,18,2023-01-20T22:50:33+00:00,31.90225387,69,updated stim.csv,Version69.csv,Version 69,List 69,battery,NA,2061,4.8,172,0.309515417,2062,BOI,-,-,Please name all of the ways you could use this object. Keep in mind that one object can have many uses. Separate your responses with a comma.,NA,y,31154,NA,NA,3752,29570,NA,NA,NA,"in cars, in phones, in electricity meters",1
5714e0958adadb00098deed4,owgo48kzos,Affordance Norms_Prolific,1,19,2023-01-20T22:50:44+00:00,11.33489609,69,updated stim.csv,Version69.csv,Version 69,List 69,mascara,NA,2057,5.703703704,1612,0.241914287,2058,BOI,-,-,Please name all of the ways you could use this object. Keep in mind that one object can have many uses. Separate your responses with a comma.,NA,y,10920,NA,NA,1771,8798,NA,NA,NA,for makeup,1
5714e0958adadb00098deed4,owgo48kzos,Affordance Norms_Prolific,1,20,2023-01-20T22:51:00+00:00,15.52841306,69,updated stim.csv,Version69.csv,Version 69,List 69,kite,NA,2044,5.8,1427,0.898180033,2045,BOI,-,-,Please name all of the ways you could use this object. Keep in mind that one object can have many uses. Separate your responses with a comma.,NA,y,15113,NA,NA,3138,13601,NA,NA,NA,"to create electricity, to fly",1
5714e0958adadb00098deed4,owgo48kzos,Affordance Norms_Prolific,1,21,2023-01-20T22:51:16+00:00,16.04907894,69,updated stim.csv,Version69.csv,Version 69,List 69,rubbish,NA,2049,4.666666667,2201,0.65494414,2050,BOI,-,-,Please name all of the ways you could use this object. Keep in mind that one object can have many uses. Separate your responses with a comma.,NA,y,15643,NA,NA,4169,13929,NA,NA,NA,"to recycle, to be dumped",1
5714e0958adadb00098deed4,owgo48kzos,Affordance Norms_Prolific,1,22,2023-01-20T22:51:30+00:00,14.10845304,69,updated stim.csv,Version69.csv,Version 69,List 69,cheekbone,NA,2045,4.88,504,0.553378119,2046,BOI,-,-,Please name all of the ways you could use this object. Keep in mind that one object can have many uses. Separate your responses with a comma.,NA,y,13708,NA,NA,5089,12161,NA,NA,NA,to support the skeleton,1
5714e0958adadb00098deed4,owgo48kzos,Affordance Norms_Prolific,1,23,2023-01-20T22:53:08+00:00,97.795156,69,updated stim.csv,Version69.csv,Version 69,List 69,firecracker,NA,2047,4.916666667,985,0.557520939,2048,BOI,-,-,Please name all of the ways you could use this object. Keep in mind that one object can have many uses. Separate your responses with a comma.,NA,y,97048,NA,NA,3111,12882,NA,NA,NA,to celebrate,1
5714e0958adadb00098deed4,owgo48kzos,Affordance Norms_Prolific,1,24,2023-01-20T22:53:24+00:00,16.12597704,69,updated stim.csv,Version69.csv,Version 69,List 69,foot,NA,2060,6,1029,0.672429638,2061,BOI,-,-,Please name all of the ways you could use this object. Keep in mind that one object can have many uses. Separate your responses with a comma.,NA,y,15726,NA,NA,1934,14283,NA,NA,NA,"walk, run, kick, stamp",1
5714e0958adadb00098deed4,owgo48kzos,Affordance Norms_Prolific,1,25,2023-01-20T22:53:35+00:00,10.93686891,69,updated stim.csv,Version69.csv,Version 69,List 69,nightie,NA,2042,5.62962963,1771,0.901097667,2043,BOI,-,-,Please name all of the ways you could use this object. Keep in mind that one object can have many uses. Separate your responses with a comma.,NA,y,10524,NA,NA,3563,9140,NA,NA,NA,"go out, wear in",1
5714e0958adadb00098deed4,owgo48kzos,Affordance Norms_Prolific,1,26,2023-01-20T22:53:42+00:00,7.592694044,69,updated stim.csv,Version69.csv,Version 69,List 69,candidate,NA,2056,4.739130435,409,0.163378695,2057,BOI,-,-,Please name all of the ways you could use this object. Keep in mind that one object can have many uses. Separate your responses with a comma.,NA,y,7177,NA,NA,3926,5008,NA,NA,NA,vote,1
5714e0958adadb00098deed4,owgo48kzos,Affordance Norms_Prolific,1,27,2023-01-20T22:53:56+00:00,13.08681297,69,updated stim.csv,Version69.csv,Version 69,List 69,crop,NA,2050,4.833333333,700,0.508408081,2051,BOI,-,-,Please name all of the ways you could use this object. Keep in mind that one object can have many uses. Separate your responses with a comma.,NA,y,12675,NA,NA,4259,10679,NA,NA,NA,"plant, eat, uproot",1
5714e0958adadb00098deed4,owgo48kzos,Affordance Norms_Prolific,1,28,2023-01-20T22:56:10+00:00,134.7562001,69,updated stim.csv,Version69.csv,Version 69,List 69,bleach,NA,2065,5.32,234,0.58088773,2066,BOI,-,-,Please name all of the ways you could use this object. Keep in mind that one object can have many uses. Separate your responses with a comma.,NA,y,133993,NA,NA,107493,130962,NA,NA,NA,"change skin colour, change clothes colour, to clean surfaces",1
5714e0958adadb00098deed4,owgo48kzos,Affordance Norms_Prolific,1,29,2023-01-20T22:56:22+00:00,11.48904586,69,updated stim.csv,Version69.csv,Version 69,List 69,snack,NA,2043,6.142857143,2425,0.564086134,2044,BOI,-,-,Please name all of the ways you could use this object. Keep in mind that one object can have many uses. Separate your responses with a comma.,NA,y,11067,NA,NA,2072,9797,NA,NA,NA,"eat, munch",1
5714e0958adadb00098deed4,owgo48kzos,Affordance Norms_Prolific,1,30,2023-01-20T22:56:33+00:00,10.8800211,69,updated stim.csv,Version69.csv,Version 69,List 69,moonshine,NA,2064,5.260869565,1682,0.261203355,2065,BOI,-,-,Please name all of the ways you could use this object. Keep in mind that one object can have many uses. Separate your responses with a comma.,NA,y,10469,NA,NA,3576,8772,NA,NA,NA,to drink,1
5714e0958adadb00098deed4,owgo48kzos,Affordance Norms_Prolific,1,31,2023-01-20T22:56:40+00:00,7.689800024,69,updated stim.csv,Version69.csv,Version 69,List 69,masseur,NA,2068,5.6,1615,0.872292757,2069,BOI,-,-,Please name all of the ways you could use this object. Keep in mind that one object can have many uses. Separate your responses with a comma.,NA,y,7305,NA,NA,3669,5681,NA,NA,NA,to massage,1
5714e0958adadb00098deed4,owgo48kzos,Affordance Norms_Prolific,1,32,2023-01-20T22:56:43+00:00,2.674166918,69,updated stim.csv,Version69.csv,Version 69,List 69,thimble,NA,2048,5.347826087,2681,0.809801416,2049,BOI,-,-,Please name all of the ways you could use this object. Keep in mind that one object can have many uses. Separate your responses with a comma.,NA,y,2256,NA,NA,-1,-1,NA,NA,NA,,1
5714e0958adadb00098deed4,owgo48kzos,Affordance Norms_Prolific,1,33,2023-01-20T22:56:47+00:00,4.419974089,69,updated stim.csv,Version69.csv,Version 69,List 69,lily,NA,2052,4.884615385,1510,0.933135702,2053,BOI,-,-,Please name all of the ways you could use this object. Keep in mind that one object can have many uses. Separate your responses with a comma.,NA,y,4013,NA,NA,-1,-1,NA,NA,NA,,1
5714e0958adadb00098deed4,owgo48kzos,Affordance Norms_Prolific,1,34,2023-01-20T22:57:05+00:00,17.5664649,69,updated stim.csv,Version69.csv,Version 69,List 69,neckerchief,NA,2051,5.347826087,1740,0.029417573,2052,BOI,-,-,Please name all of the ways you could use this object. Keep in mind that one object can have many uses. Separate your responses with a comma.,NA,y,16855,NA,NA,2316,16468,NA,NA,NA,to cleanse the body,1
5714e0958adadb00098deed4,owgo48kzos,Affordance Norms_Prolific,1,35,2023-01-20T22:57:16+00:00,10.60996604,69,updated stim.csv,Version69.csv,Version 69,List 69,radiator,NA,2054,5.217391304,2121,0.849996905,2055,BOI,-,-,Please name all of the ways you could use this object. Keep in mind that one object can have many uses. Separate your responses with a comma.,NA,y,10232,NA,NA,1824,9650,NA,NA,NA,"to heat, to dry clothing ",1
5714e0958adadb00098deed4,owgo48kzos,Affordance Norms_Prolific,1,36,2023-01-20T22:57:25+00:00,9.712300062,69,updated stim.csv,Version69.csv,Version 69,List 69,bunk,NA,2066,4.260869565,360,0.933970977,2067,BOI,-,-,Please name all of the ways you could use this object. Keep in mind that one object can have many uses. Separate your responses with a comma.,NA,y,9324,NA,NA,3158,7853,NA,NA,NA,to sleep on,1
5714e0958adadb00098deed4,owgo48kzos,Affordance Norms_Prolific,1,37,2023-01-20T22:57:32+00:00,6.60610795,69,updated stim.csv,Version69.csv,Version 69,List 69,cape,NA,2053,5.416666667,424,0.375751754,2054,BOI,-,-,Please name all of the ways you could use this object. Keep in mind that one object can have many uses. Separate your responses with a comma.,NA,y,6219,NA,NA,2443,4595,NA,NA,NA,to wear ,1
5714e0958adadb00098deed4,owgo48kzos,Affordance Norms_Prolific,1,38,2023-01-20T23:02:33+00:00,301.164176,69,updated stim.csv,Version69.csv,Version 69,List 69,home,NA,2058,5.434782609,1299,0.801909438,2059,BOI,-,-,Please name all of the ways you could use this object. Keep in mind that one object can have many uses. Separate your responses with a comma.,NA,y,300427,NA,NA,2007,299132,NA,NA,NA,"to live in, to welcome others to",1
5714e0958adadb00098deed4,owgo48kzos,Affordance Norms_Prolific,1,39,2023-01-20T23:02:45+00:00,11.96434212,69,updated stim.csv,Version69.csv,Version 69,List 69,cuff,NA,2067,5.333333333,724,0.92115639,2068,BOI,-,-,Please name all of the ways you could use this object. Keep in mind that one object can have many uses. Separate your responses with a comma.,NA,y,11571,NA,NA,2583,10193,NA,NA,NA,to fit clothes,1
5714e0958adadb00098deed4,owgo48kzos,Affordance Norms_Prolific,1,40,2023-01-20T23:02:57+00:00,12.41961479,69,updated stim.csv,Version69.csv,Version 69,List 69,cloth,NA,2070,5.961538462,568,0.069972611,2071,BOI,-,-,Please name all of the ways you could use this object. Keep in mind that one object can have many uses. Separate your responses with a comma.,NA,y,12005,NA,NA,1814,10668,NA,NA,NA,"to wear, to clean with",1
5934fb0a67011200014d3a50,semq20p4po,Affordance Norms_Prolific,1,11,2023-01-28T01:32:08+00:00,18.26406407,28,updated stim.csv,Version28.csv,Version 28,List 28,eyelash,NA,813,5.423076923,935,0.527362706,814,BOI,-,-,Please name all of the ways you could use this object. Keep in mind that one object can have many uses. Separate your responses with a comma.,NA,y,17905,NA,NA,1888,16776,NA,NA,NA,"curled, pulled, blackened, lengthened, volumized",1
5934fb0a67011200014d3a50,semq20p4po,Affordance Norms_Prolific,1,12,2023-01-28T01:32:40+00:00,32.2609911,28,updated stim.csv,Version28.csv,Version 28,List 28,undershirt,NA,837,5.954545455,2824,0.230934942,838,BOI,-,-,Please name all of the ways you could use this object. Keep in mind that one object can have many uses. Separate your responses with a comma.,NA,y,31888,NA,NA,3126,26701,NA,NA,NA,"worn, tucked, used to wipe something",1
5934fb0a67011200014d3a50,semq20p4po,Affordance Norms_Prolific,1,13,2023-01-28T01:32:57+00:00,16.78674889,28,updated stim.csv,Version28.csv,Version 28,List 28,shorts,NA,828,6.04,2359,0.973765651,829,BOI,-,-,Please name all of the ways you could use this object. Keep in mind that one object can have many uses. Separate your responses with a comma.,NA,y,16492,NA,NA,3099,12634,NA,NA,NA,"worn, ironed",1
5934fb0a67011200014d3a50,semq20p4po,Affordance Norms_Prolific,1,14,2023-01-28T01:34:12+00:00,75.45776701,28,updated stim.csv,Version28.csv,Version 28,List 28,plane,NA,821,5.458333333,1986,0.203318719,822,BOI,-,-,Please name all of the ways you could use this object. Keep in mind that one object can have many uses. Separate your responses with a comma.,NA,y,74656,NA,NA,2942,65671,NA,NA,NA,"ride in, flied, jumped out of",1
5934fb0a67011200014d3a50,semq20p4po,Affordance Norms_Prolific,1,15,2023-01-28T01:34:53+00:00,40.28829789,28,updated stim.csv,Version28.csv,Version 28,List 28,mail,NA,838,6.125,1577,0.960668374,839,BOI,-,-,Please name all of the ways you could use this object. Keep in mind that one object can have many uses. Separate your responses with a comma.,NA,y,39405,NA,NA,3882,37586,NA,NA,NA,"sent, read, written, respond, trash",1
5934fb0a67011200014d3a50,semq20p4po,Affordance Norms_Prolific,1,16,2023-01-28T01:35:28+00:00,35.49153113,28,updated stim.csv,Version28.csv,Version 28,List 28,arm,NA,819,6.47826087,71,0.925944129,820,BOI,-,-,Please name all of the ways you could use this object. Keep in mind that one object can have many uses. Separate your responses with a comma.,NA,y,34918,NA,NA,2874,34010,NA,NA,NA,"swing, hug, carry, grasp, hold, flex, lift self up, stretch, raise up",1
5934fb0a67011200014d3a50,semq20p4po,Affordance Norms_Prolific,1,17,2023-01-28T01:35:45+00:00,17.22366786,28,updated stim.csv,Version28.csv,Version 28,List 28,snowball,NA,825,5.5,2431,0.143942854,826,BOI,-,-,Please name all of the ways you could use this object. Keep in mind that one object can have many uses. Separate your responses with a comma.,NA,y,16683,NA,NA,1393,13520,NA,NA,NA,"thrown, made, eaten",1
5934fb0a67011200014d3a50,semq20p4po,Affordance Norms_Prolific,1,18,2023-01-28T01:36:15+00:00,29.38982415,28,updated stim.csv,Version28.csv,Version 28,List 28,traveller,NA,832,4.5,2767,0.757322796,833,BOI,-,-,Please name all of the ways you could use this object. Keep in mind that one object can have many uses. Separate your responses with a comma.,NA,y,29002,NA,NA,4249,28768,NA,NA,NA,"travel with, talk to, tell stories to, ask questions",1
5934fb0a67011200014d3a50,semq20p4po,Affordance Norms_Prolific,1,19,2023-01-28T01:36:40+00:00,25.15455294,28,updated stim.csv,Version28.csv,Version 28,List 28,hearse,NA,811,4.928571429,1274,0.673201316,812,BOI,-,-,Please name all of the ways you could use this object. Keep in mind that one object can have many uses. Separate your responses with a comma.,NA,y,24571,NA,NA,20162,22593,NA,NA,NA,carrying a coffin,0.878
5934fb0a67011200014d3a50,semq20p4po,Affordance Norms_Prolific,1,20,2023-01-28T01:37:05+00:00,24.93436813,28,updated stim.csv,Version28.csv,Version 28,List 28,pea,NA,814,5.777777778,1890,0.861439366,815,BOI,-,-,Please name all of the ways you could use this object. Keep in mind that one object can have many uses. Separate your responses with a comma.,NA,y,24471,NA,NA,1527,21854,NA,NA,NA,"eaten, thrown, cook meals, planted, pet food",1
5934fb0a67011200014d3a50,semq20p4po,Affordance Norms_Prolific,1,21,2023-01-28T01:37:30+00:00,25.12749791,28,updated stim.csv,Version28.csv,Version 28,List 28,club,NA,830,5.458333333,576,0.337695285,831,BOI,-,-,Please name all of the ways you could use this object. Keep in mind that one object can have many uses. Separate your responses with a comma.,NA,y,24739,NA,NA,2442,20522,NA,NA,NA,"dance, meet people, drink, have fun, listen to music, spend time",1
5934fb0a67011200014d3a50,semq20p4po,Affordance Norms_Prolific,1,22,2023-01-28T01:38:00+00:00,29.49977088,28,updated stim.csv,Version28.csv,Version 28,List 28,liquid,NA,824,5.260869565,1524,0.321872939,825,BOI,-,-,Please name all of the ways you could use this object. Keep in mind that one object can have many uses. Separate your responses with a comma.,NA,y,29118,NA,NA,1572,19275,NA,NA,NA,"drink, cook, bathe in, wash things",1
5934fb0a67011200014d3a50,semq20p4po,Affordance Norms_Prolific,1,23,2023-01-28T01:38:11+00:00,11.52343106,28,updated stim.csv,Version28.csv,Version 28,List 28,roadway,NA,818,4.565217391,2178,0.192935669,819,BOI,-,-,Please name all of the ways you could use this object. Keep in mind that one object can have many uses. Separate your responses with a comma.,NA,y,11222,NA,NA,2310,10573,NA,NA,NA,"ride on, walk on, play on",1
5934fb0a67011200014d3a50,semq20p4po,Affordance Norms_Prolific,1,24,2023-01-28T01:38:19+00:00,8.127325058,28,updated stim.csv,Version28.csv,Version 28,List 28,player,NA,836,4.72,1999,0.968261434,837,BOI,-,-,Please name all of the ways you could use this object. Keep in mind that one object can have many uses. Separate your responses with a comma.,NA,y,7837,NA,NA,2451,7323,NA,NA,NA,"play with, have fun with",1
5934fb0a67011200014d3a50,semq20p4po,Affordance Norms_Prolific,1,25,2023-01-28T01:38:44+00:00,24.84477401,28,updated stim.csv,Version28.csv,Version 28,List 28,raisin,NA,831,5.64,2134,0.272336245,832,BOI,-,-,Please name all of the ways you could use this object. Keep in mind that one object can have many uses. Separate your responses with a comma.,NA,y,24012,NA,NA,1379,23635,NA,NA,NA,"eat, cook with, put in trail mix, bake with",1
5934fb0a67011200014d3a50,semq20p4po,Affordance Norms_Prolific,1,26,2023-01-28T01:39:06+00:00,21.76819801,28,updated stim.csv,Version28.csv,Version 28,List 28,heel,NA,839,4.666666667,1276,0.364472647,840,BOI,-,-,Please name all of the ways you could use this object. Keep in mind that one object can have many uses. Separate your responses with a comma.,NA,y,20863,NA,NA,8108,14116,NA,NA,NA,wear,1
5934fb0a67011200014d3a50,semq20p4po,Affordance Norms_Prolific,1,27,2023-01-28T01:39:18+00:00,12.44201183,28,updated stim.csv,Version28.csv,Version 28,List 28,inspector,NA,815,4.391304348,1359,0.242268193,816,BOI,-,-,Please name all of the ways you could use this object. Keep in mind that one object can have many uses. Separate your responses with a comma.,NA,y,11762,NA,NA,4641,8897,NA,NA,NA,"ask questions, ask for help",1
5934fb0a67011200014d3a50,semq20p4po,Affordance Norms_Prolific,1,28,2023-01-28T01:39:47+00:00,28.84747219,28,updated stim.csv,Version28.csv,Version 28,List 28,fingerprint,NA,812,4.291666667,980,0.220511383,813,BOI,-,-,Please name all of the ways you could use this object. Keep in mind that one object can have many uses. Separate your responses with a comma.,NA,y,28463,NA,NA,2572,24324,NA,NA,NA,"for dna sampling, police reports, for identification, for fingerprint artwork",1
5934fb0a67011200014d3a50,semq20p4po,Affordance Norms_Prolific,1,29,2023-01-28T01:40:14+00:00,27.35039783,28,updated stim.csv,Version28.csv,Version 28,List 28,spoon,NA,834,6.115384615,2482,0.213167636,835,BOI,-,-,Please name all of the ways you could use this object. Keep in mind that one object can have many uses. Separate your responses with a comma.,NA,y,26617,NA,NA,1431,22615,NA,NA,NA,"to eat with, to cut with, to play card games with, to throw",1
5934fb0a67011200014d3a50,semq20p4po,Affordance Norms_Prolific,1,30,2023-01-28T01:40:25+00:00,10.0772841,28,updated stim.csv,Version28.csv,Version 28,List 28,doorknocker,NA,829,5.52173913,825,0.961050371,830,BOI,-,-,Please name all of the ways you could use this object. Keep in mind that one object can have many uses. Separate your responses with a comma.,NA,y,9634,NA,NA,1772,7059,NA,NA,NA,to knock on a door,1
5934fb0a67011200014d3a50,semq20p4po,Affordance Norms_Prolific,1,31,2023-01-28T01:40:49+00:00,24.54093194,28,updated stim.csv,Version28.csv,Version 28,List 28,dietician,NA,823,4.72,791,0.466704962,824,BOI,-,-,Please name all of the ways you could use this object. Keep in mind that one object can have many uses. Separate your responses with a comma.,NA,y,24132,NA,NA,2632,22057,NA,NA,NA,"to ask questions and help with your diet, to help you live a healthier lifestyle",1
5934fb0a67011200014d3a50,semq20p4po,Affordance Norms_Prolific,1,32,2023-01-28T01:41:07+00:00,18.26182318,28,updated stim.csv,Version28.csv,Version 28,List 28,web,NA,840,4.375,2917,0.07564267,841,BOI,-,-,Please name all of the ways you could use this object. Keep in mind that one object can have many uses. Separate your responses with a comma.,NA,y,17975,NA,NA,1269,17094,NA,NA,NA,"to browse, search things, explore, learn, grow",1
5934fb0a67011200014d3a50,semq20p4po,Affordance Norms_Prolific,1,33,2023-01-28T01:41:21+00:00,14.04164386,28,updated stim.csv,Version28.csv,Version 28,List 28,hubcap,NA,833,4.833333333,1334,0.097436016,834,BOI,-,-,Please name all of the ways you could use this object. Keep in mind that one object can have many uses. Separate your responses with a comma.,NA,y,13718,NA,NA,11588,13540,NA,NA,NA,to hold wheels,0.789
5934fb0a67011200014d3a50,semq20p4po,Affordance Norms_Prolific,1,34,2023-01-28T01:41:32+00:00,10.24672008,28,updated stim.csv,Version28.csv,Version 28,List 28,bratwurst,NA,826,5.434782609,307,0.625102194,827,BOI,-,-,Please name all of the ways you could use this object. Keep in mind that one object can have many uses. Separate your responses with a comma.,NA,y,9604,NA,NA,1769,9016,NA,NA,NA,"to eat, to cook, to bake, to hang",1
5934fb0a67011200014d3a50,semq20p4po,Affordance Norms_Prolific,1,35,2023-01-28T01:42:11+00:00,39.23423195,28,updated stim.csv,Version28.csv,Version 28,List 28,shipmate,NA,817,4.72,2345,0.774354107,818,BOI,-,-,Please name all of the ways you could use this object. Keep in mind that one object can have many uses. Separate your responses with a comma.,NA,y,38352,NA,NA,2277,35551,NA,NA,NA,"to go on a ship with, for companion on a ship/work ",1
5934fb0a67011200014d3a50,semq20p4po,Affordance Norms_Prolific,1,36,2023-01-28T01:42:30+00:00,18.91209912,28,updated stim.csv,Version28.csv,Version 28,List 28,cuticle,NA,827,5.08,737,0.981420344,828,BOI,-,-,Please name all of the ways you could use this object. Keep in mind that one object can have many uses. Separate your responses with a comma.,NA,y,18212,NA,NA,3257,17914,NA,NA,NA,"cut, scratch, paint, design, peel",1
5934fb0a67011200014d3a50,semq20p4po,Affordance Norms_Prolific,1,37,2023-01-28T01:42:38+00:00,7.980366945,28,updated stim.csv,Version28.csv,Version 28,List 28,razor,NA,822,6.12,2142,0.056176721,823,BOI,-,-,Please name all of the ways you could use this object. Keep in mind that one object can have many uses. Separate your responses with a comma.,NA,y,7456,NA,NA,1519,6888,NA,NA,NA,"to cut, shave",1
5934fb0a67011200014d3a50,semq20p4po,Affordance Norms_Prolific,1,38,2023-01-28T01:42:55+00:00,16.96480703,28,updated stim.csv,Version28.csv,Version 28,List 28,carriage,NA,835,5.08,440,0.35198911,836,BOI,-,-,Please name all of the ways you could use this object. Keep in mind that one object can have many uses. Separate your responses with a comma.,NA,y,16541,NA,NA,1514,13146,NA,NA,NA,"to ride on, carry, pull, get to places",1
5934fb0a67011200014d3a50,semq20p4po,Affordance Norms_Prolific,1,39,2023-01-28T01:43:22+00:00,27.60228992,28,updated stim.csv,Version28.csv,Version 28,List 28,salesgirl,NA,820,4.769230769,2220,0.082248881,821,BOI,-,-,Please name all of the ways you could use this object. Keep in mind that one object can have many uses. Separate your responses with a comma.,NA,y,27233,NA,NA,3992,24912,NA,NA,NA,"ask questions about merchandise, buy things, ask to try on things",1
5934fb0a67011200014d3a50,semq20p4po,Affordance Norms_Prolific,1,40,2023-01-28T01:43:42+00:00,20.13421202,28,updated stim.csv,Version28.csv,Version 28,List 28,haystack,NA,816,4.956521739,1262,0.659571138,817,BOI,-,-,Please name all of the ways you could use this object. Keep in mind that one object can have many uses. Separate your responses with a comma.,NA,y,19748,NA,NA,2564,18394,NA,NA,NA,"used to hold hay, used as aesthetic purposes",1
598b5aad3085380001163e51,5i6xj35sd2,Affordance Norms_Prolific,1,11,2023-01-20T22:46:49+00:00,29.4881289,93,updated stim.csv,Version93.csv,Version 93,List 93,towel,NA,2762,6.04,2746,0.058323448,2763,BOI,-,-,Please name all of the ways you could use this object. Keep in mind that one object can have many uses. Separate your responses with a comma.,NA,y,28403,NA,NA,4102,27325,NA,NA,NA,"Dry, air, clean, wash, mend, wrap, fold, hand",1
598b5aad3085380001163e51,5i6xj35sd2,Affordance Norms_Prolific,1,12,2023-01-20T22:47:24+00:00,34.94190598,93,updated stim.csv,Version93.csv,Version 93,List 93,tomato,NA,2788,6.125,2723,0.029859341,2789,BOI,-,-,Please name all of the ways you could use this object. Keep in mind that one object can have many uses. Separate your responses with a comma.,NA,y,34018,NA,NA,4238,32530,NA,NA,NA,"Cook, slice, eat, saute, bake, grill, mash, juice, hand, grow",1
598b5aad3085380001163e51,5i6xj35sd2,Affordance Norms_Prolific,1,13,2023-01-20T22:47:55+00:00,31.29496908,93,updated stim.csv,Version93.csv,Version 93,List 93,pup,NA,2775,5.44,2101,0.242296263,2776,BOI,-,-,Please name all of the ways you could use this object. Keep in mind that one object can have many uses. Separate your responses with a comma.,NA,y,30183,NA,NA,9498,26667,NA,NA,NA,"Clean, care, feed, walk, love, cuddle, ",1
598b5aad3085380001163e51,5i6xj35sd2,Affordance Norms_Prolific,1,14,2023-01-20T22:48:30+00:00,35.4279561,93,updated stim.csv,Version93.csv,Version 93,List 93,mother,NA,2776,5.52,1692,0.979961547,2777,BOI,-,-,Please name all of the ways you could use this object. Keep in mind that one object can have many uses. Separate your responses with a comma.,NA,y,34288,NA,NA,4145,32068,NA,NA,NA,"Talk, drive, feed, chat, gossip, help, thank, see, ask, tell, invite",1
598b5aad3085380001163e51,5i6xj35sd2,Affordance Norms_Prolific,1,15,2023-01-20T22:48:52+00:00,21.50530386,93,updated stim.csv,Version93.csv,Version 93,List 93,wheat,NA,2769,4.88,2920,0.072925797,2770,BOI,-,-,Please name all of the ways you could use this object. Keep in mind that one object can have many uses. Separate your responses with a comma.,NA,y,20432,NA,NA,5548,19171,NA,NA,NA,"Shredded, eat, grow, intolerance, heat",1
598b5aad3085380001163e51,5i6xj35sd2,Affordance Norms_Prolific,1,16,2023-01-20T22:49:25+00:00,32.76972508,93,updated stim.csv,Version93.csv,Version 93,List 93,loudspeaker,NA,2763,4.625,1549,0.358408241,2764,BOI,-,-,Please name all of the ways you could use this object. Keep in mind that one object can have many uses. Separate your responses with a comma.,NA,y,31751,NA,NA,7890,25024,NA,NA,NA,"Listen, play, stop, place, take, ",1
598b5aad3085380001163e51,5i6xj35sd2,Affordance Norms_Prolific,1,17,2023-01-20T22:49:44+00:00,19.87038994,93,updated stim.csv,Version93.csv,Version 93,List 93,outfielder,NA,2786,4.6,1827,0.177691203,2787,BOI,-,-,Please name all of the ways you could use this object. Keep in mind that one object can have many uses. Separate your responses with a comma.,NA,y,19145,NA,NA,7480,15023,NA,NA,NA,"Chase, watch, ",1
598b5aad3085380001163e51,5i6xj35sd2,Affordance Norms_Prolific,1,18,2023-01-20T22:50:10+00:00,25.68163991,93,updated stim.csv,Version93.csv,Version 93,List 93,rubber,NA,2778,5.304347826,2200,0.165812587,2779,BOI,-,-,Please name all of the ways you could use this object. Keep in mind that one object can have many uses. Separate your responses with a comma.,NA,y,24660,NA,NA,2114,23806,NA,NA,NA,"Use, work, make, buy, borrow, lend, hand",1
598b5aad3085380001163e51,5i6xj35sd2,Affordance Norms_Prolific,1,19,2023-01-20T22:50:28+00:00,17.6411252,93,updated stim.csv,Version93.csv,Version 93,List 93,swimsuit,NA,2782,6.08,2607,0.861974765,2783,BOI,-,-,Please name all of the ways you could use this object. Keep in mind that one object can have many uses. Separate your responses with a comma.,NA,y,16800,NA,NA,2689,15323,NA,NA,NA,"Purchase, wear, look, shop, lend, borrow, ",1
598b5aad3085380001163e51,5i6xj35sd2,Affordance Norms_Prolific,1,20,2023-01-20T22:50:46+00:00,18.36605597,93,updated stim.csv,Version93.csv,Version 93,List 93,stationmaster,NA,2779,4.739130435,2512,0.417345748,2780,BOI,-,-,Please name all of the ways you could use this object. Keep in mind that one object can have many uses. Separate your responses with a comma.,NA,y,16768,NA,NA,3548,15805,NA,NA,NA,"Tell, see, show, smile",1
598b5aad3085380001163e51,5i6xj35sd2,Affordance Norms_Prolific,1,21,2023-01-20T22:51:07+00:00,21.21536803,93,updated stim.csv,Version93.csv,Version 93,List 93,rice,NA,2774,6.291666667,2166,0.359336572,2775,BOI,-,-,Please name all of the ways you could use this object. Keep in mind that one object can have many uses. Separate your responses with a comma.,NA,y,20130,NA,NA,1681,19110,NA,NA,NA,"Cook, eat, blend, mix, serve, buy",1
598b5aad3085380001163e51,5i6xj35sd2,Affordance Norms_Prolific,1,22,2023-01-20T22:51:32+00:00,24.61079788,93,updated stim.csv,Version93.csv,Version 93,List 93,ingredient,NA,2764,4.793103448,1354,0.372263056,2765,BOI,-,-,Please name all of the ways you could use this object. Keep in mind that one object can have many uses. Separate your responses with a comma.,NA,y,23478,NA,NA,2627,20565,NA,NA,NA,"Use, buy, search, swap, transfer, hand, dislike, love",1
598b5aad3085380001163e51,5i6xj35sd2,Affordance Norms_Prolific,1,23,2023-01-20T22:51:55+00:00,22.52220893,93,updated stim.csv,Version93.csv,Version 93,List 93,sod,NA,2770,5.086956522,2441,0.646172781,2771,BOI,-,-,Please name all of the ways you could use this object. Keep in mind that one object can have many uses. Separate your responses with a comma.,NA,y,21351,NA,NA,4689,18009,NA,NA,NA,"Law, call, name, ",1
598b5aad3085380001163e51,5i6xj35sd2,Affordance Norms_Prolific,1,24,2023-01-20T22:52:27+00:00,32.97747111,93,updated stim.csv,Version93.csv,Version 93,List 93,hill,NA,2783,4.535714286,1288,0.689522723,2784,BOI,-,-,Please name all of the ways you could use this object. Keep in mind that one object can have many uses. Separate your responses with a comma.,NA,y,32003,NA,NA,3156,31093,NA,NA,NA,"Walk, run, chart, skills, study, relief, precipitation, flow",1
598b5aad3085380001163e51,5i6xj35sd2,Affordance Norms_Prolific,1,25,2023-01-20T22:52:52+00:00,24.11444902,93,updated stim.csv,Version93.csv,Version 93,List 93,camel,NA,2790,4.52173913,405,0.621591795,2791,BOI,-,-,Please name all of the ways you could use this object. Keep in mind that one object can have many uses. Separate your responses with a comma.,NA,y,23156,NA,NA,3539,21386,NA,NA,NA,"Ride, feed, catch, stroke, care, play, walk, study",1
598b5aad3085380001163e51,5i6xj35sd2,Affordance Norms_Prolific,1,26,2023-01-20T22:53:21+00:00,28.92494106,93,updated stim.csv,Version93.csv,Version 93,List 93,gentleman,NA,2768,4.961538462,1098,0.035893994,2769,BOI,-,-,Please name all of the ways you could use this object. Keep in mind that one object can have many uses. Separate your responses with a comma.,NA,y,27786,NA,NA,4807,26783,NA,NA,NA,"Greet, speak, tell, make, draw, paint, ponder, seek",1
598b5aad3085380001163e51,5i6xj35sd2,Affordance Norms_Prolific,1,27,2023-01-20T22:53:45+00:00,24.54303098,93,updated stim.csv,Version93.csv,Version 93,List 93,bullfighter,NA,2761,4.6,354,0.794000765,2762,BOI,-,-,Please name all of the ways you could use this object. Keep in mind that one object can have many uses. Separate your responses with a comma.,NA,y,23549,NA,NA,3048,18767,NA,NA,NA,"Watch, train, remember, saw, ",1
598b5aad3085380001163e51,5i6xj35sd2,Affordance Norms_Prolific,1,28,2023-01-20T22:54:12+00:00,27.27514291,93,updated stim.csv,Version93.csv,Version 93,List 93,cola,NA,2785,5.565217391,597,0.131079394,2786,BOI,-,-,Please name all of the ways you could use this object. Keep in mind that one object can have many uses. Separate your responses with a comma.,NA,y,26237,NA,NA,1710,22743,NA,NA,NA,"Drink, make, take, buy, draw, paint, give",1
598b5aad3085380001163e51,5i6xj35sd2,Affordance Norms_Prolific,1,29,2023-01-20T22:54:42+00:00,29.48808408,93,updated stim.csv,Version93.csv,Version 93,List 93,nursemaid,NA,2767,4.583333333,1787,0.844035795,2768,BOI,-,-,Please name all of the ways you could use this object. Keep in mind that one object can have many uses. Separate your responses with a comma.,NA,y,28327,NA,NA,5005,27377,NA,NA,NA,"Ask, help, talk, wait, value, thank",1
598b5aad3085380001163e51,5i6xj35sd2,Affordance Norms_Prolific,1,30,2023-01-20T22:54:58+00:00,15.70250797,93,updated stim.csv,Version93.csv,Version 93,List 93,handbrake,NA,2784,5.083333333,1232,0.89114556,2785,BOI,-,-,Please name all of the ways you could use this object. Keep in mind that one object can have many uses. Separate your responses with a comma.,NA,y,15021,NA,NA,2946,13994,NA,NA,NA,"Pull, put, buy, break, clean, use",1
598b5aad3085380001163e51,5i6xj35sd2,Affordance Norms_Prolific,1,31,2023-01-20T22:55:27+00:00,29.55834508,93,updated stim.csv,Version93.csv,Version 93,List 93,cucumber,NA,2765,6.04,723,0.187883887,2766,BOI,-,-,Please name all of the ways you could use this object. Keep in mind that one object can have many uses. Separate your responses with a comma.,NA,y,28295,NA,NA,2587,27608,NA,NA,NA,"Slice, grate, drink, eat, blend, buy, give, throw",1
598b5aad3085380001163e51,5i6xj35sd2,Affordance Norms_Prolific,1,32,2023-01-20T22:55:42+00:00,14.8301568,93,updated stim.csv,Version93.csv,Version 93,List 93,straightedge,NA,2787,4.291666667,2556,0.358005464,2788,BOI,-,-,Please name all of the ways you could use this object. Keep in mind that one object can have many uses. Separate your responses with a comma.,NA,y,14110,NA,NA,3179,12741,NA,NA,NA,"Cut, make, buy, borrow, use",1
598b5aad3085380001163e51,5i6xj35sd2,Affordance Norms_Prolific,1,33,2023-01-20T22:56:05+00:00,22.73262119,93,updated stim.csv,Version93.csv,Version 93,List 93,aircraftsman,NA,2780,4.52,20,0.824283724,2781,BOI,-,-,Please name all of the ways you could use this object. Keep in mind that one object can have many uses. Separate your responses with a comma.,NA,y,21804,NA,NA,3425,17741,NA,NA,NA,"Value, train, become, thank, greet, smile, watch, ",1
598b5aad3085380001163e51,5i6xj35sd2,Affordance Norms_Prolific,1,34,2023-01-20T22:56:31+00:00,25.92827177,93,updated stim.csv,Version93.csv,Version 93,List 93,protester,NA,2781,4.8,2081,0.243802555,2782,BOI,-,-,Please name all of the ways you could use this object. Keep in mind that one object can have many uses. Separate your responses with a comma.,NA,y,24769,NA,NA,3884,23887,NA,NA,NA,"Be, watch, see, value, empathise, sympathise",1
598b5aad3085380001163e51,5i6xj35sd2,Affordance Norms_Prolific,1,35,2023-01-20T22:56:45+00:00,14.60107112,93,updated stim.csv,Version93.csv,Version 93,List 93,pulp,NA,2772,5.208333333,2094,0.568065633,2773,BOI,-,-,Please name all of the ways you could use this object. Keep in mind that one object can have many uses. Separate your responses with a comma.,NA,y,13901,NA,NA,2331,12842,NA,NA,NA,"Clean, bake, make, use, buy, give",1
598b5aad3085380001163e51,5i6xj35sd2,Affordance Norms_Prolific,1,36,2023-01-20T22:57:05+00:00,19.46747303,93,updated stim.csv,Version93.csv,Version 93,List 93,coachman,NA,2766,4.739130435,578,0.628925197,2767,BOI,-,-,Please name all of the ways you could use this object. Keep in mind that one object can have many uses. Separate your responses with a comma.,NA,y,18687,NA,NA,3398,16846,NA,NA,NA,"Greet, ask, pay, chat, thank",1
598b5aad3085380001163e51,5i6xj35sd2,Affordance Norms_Prolific,1,37,2023-01-20T22:57:43+00:00,38.43615699,93,updated stim.csv,Version93.csv,Version 93,List 93,sea,NA,2777,4.653846154,2294,0.449252885,2778,BOI,-,-,Please name all of the ways you could use this object. Keep in mind that one object can have many uses. Separate your responses with a comma.,NA,y,37507,NA,NA,4500,36584,NA,NA,NA,"Observe, study, value, sail, swim, watch, paint, travel",1
598b5aad3085380001163e51,5i6xj35sd2,Affordance Norms_Prolific,1,38,2023-01-20T22:58:06+00:00,23.14034009,93,updated stim.csv,Version93.csv,Version 93,List 93,greens,NA,2789,4.5,1172,0.210302319,2790,BOI,-,-,Please name all of the ways you could use this object. Keep in mind that one object can have many uses. Separate your responses with a comma.,NA,y,21865,NA,NA,2287,21052,NA,NA,NA,"Eat, buy, grow, sell, give, advise",1
598b5aad3085380001163e51,5i6xj35sd2,Affordance Norms_Prolific,1,39,2023-01-20T22:58:20+00:00,13.29161477,93,updated stim.csv,Version93.csv,Version 93,List 93,mantelpiece,NA,2771,4.285714286,1596,0.797736915,2772,BOI,-,-,Please name all of the ways you could use this object. Keep in mind that one object can have many uses. Separate your responses with a comma.,NA,y,12617,NA,NA,2947,11634,NA,NA,NA,"clean, buy, restore, place",1
598b5aad3085380001163e51,5i6xj35sd2,Affordance Norms_Prolific,1,40,2023-01-20T22:58:46+00:00,26.84496713,93,updated stim.csv,Version93.csv,Version 93,List 93,temple,NA,2773,4.84,2661,0.553441393,2774,BOI,-,-,Please name all of the ways you could use this object. Keep in mind that one object can have many uses. Separate your responses with a comma.,NA,y,25570,NA,NA,3677,24538,NA,NA,NA,"Walk, see, visit, spa, touch, massage, relieve ",1
5a5a4bc8e0cf3d0001267426,ssowu0nhzk,Affordance Norms_Prolific,1,11,2023-01-20T22:47:38+00:00,31.19099712,68,updated stim.csv,Version68.csv,Version 68,List 68,chickenfeed,NA,2024,4.72,518,0.040830639,2025,BOI,-,-,Please name all of the ways you could use this object. Keep in mind that one object can have many uses. Separate your responses with a comma.,NA,y,29733,NA,NA,12462,17635,NA,NA,NA,"to feed poultry, ",1
5a5a4bc8e0cf3d0001267426,ssowu0nhzk,Affordance Norms_Prolific,1,12,2023-01-20T22:47:54+00:00,15.90908694,68,updated stim.csv,Version68.csv,Version 68,List 68,bellman,NA,2028,4.32,199,0.245771883,2029,BOI,-,-,Please name all of the ways you could use this object. Keep in mind that one object can have many uses. Separate your responses with a comma.,NA,y,15410,NA,NA,8140,12862,NA,NA,NA,"to answer enquiries, ",1
5a5a4bc8e0cf3d0001267426,ssowu0nhzk,Affordance Norms_Prolific,1,13,2023-01-20T22:48:27+00:00,32.93520093,68,updated stim.csv,Version68.csv,Version 68,List 68,sketchpad,NA,2015,5.36,2395,0.024242965,2016,BOI,-,-,Please name all of the ways you could use this object. Keep in mind that one object can have many uses. Separate your responses with a comma.,NA,y,32173,NA,NA,2220,29424,NA,NA,NA,"to draw on, for notes, drawings, blotting paper",1
5a5a4bc8e0cf3d0001267426,ssowu0nhzk,Affordance Norms_Prolific,1,14,2023-01-20T22:48:54+00:00,27.48529911,68,updated stim.csv,Version68.csv,Version 68,List 68,nursery,NA,2038,4.875,1788,0.084612721,2039,BOI,-,-,Please name all of the ways you could use this object. Keep in mind that one object can have many uses. Separate your responses with a comma.,NA,y,26536,NA,NA,10897,23627,NA,NA,NA,"for plants, for children, space for toys",1
5a5a4bc8e0cf3d0001267426,ssowu0nhzk,Affordance Norms_Prolific,1,15,2023-01-20T22:49:16+00:00,21.97565794,68,updated stim.csv,Version68.csv,Version 68,List 68,violinist,NA,2034,4.47826087,2866,0.784228985,2035,BOI,-,-,Please name all of the ways you could use this object. Keep in mind that one object can have many uses. Separate your responses with a comma.,NA,y,21243,NA,NA,13122,18716,NA,NA,NA,"to play violin, ",1
5a5a4bc8e0cf3d0001267426,ssowu0nhzk,Affordance Norms_Prolific,1,16,2023-01-20T22:50:07+00:00,50.79738903,68,updated stim.csv,Version68.csv,Version 68,List 68,teaspoon,NA,2040,4.76,2653,0.662535659,2041,BOI,-,-,Please name all of the ways you could use this object. Keep in mind that one object can have many uses. Separate your responses with a comma.,NA,y,50018,NA,NA,3736,48122,NA,NA,NA,"to stir tea, to eat with, as a measuring instrument",1
5a5a4bc8e0cf3d0001267426,ssowu0nhzk,Affordance Norms_Prolific,1,17,2023-01-20T22:50:25+00:00,17.51740909,68,updated stim.csv,Version68.csv,Version 68,List 68,ottoman,NA,2027,5.833333333,1826,0.037881735,2028,BOI,-,-,Please name all of the ways you could use this object. Keep in mind that one object can have many uses. Separate your responses with a comma.,NA,y,17008,NA,NA,3509,14984,NA,NA,NA,"to sit on, to store bedding in, as decor",1
5a5a4bc8e0cf3d0001267426,ssowu0nhzk,Affordance Norms_Prolific,1,18,2023-01-20T22:50:46+00:00,20.97811294,68,updated stim.csv,Version68.csv,Version 68,List 68,guy,NA,2032,5.84,1202,0.057966825,2033,BOI,-,-,Please name all of the ways you could use this object. Keep in mind that one object can have many uses. Separate your responses with a comma.,NA,y,20094,NA,NA,5525,10739,NA,NA,NA,"a rope, a young man, ",1
5a5a4bc8e0cf3d0001267426,ssowu0nhzk,Affordance Norms_Prolific,1,19,2023-01-20T22:50:54+00:00,8.204720974,68,updated stim.csv,Version68.csv,Version 68,List 68,primates,NA,2035,4.956521739,2064,0.991264711,2036,BOI,-,-,Please name all of the ways you could use this object. Keep in mind that one object can have many uses. Separate your responses with a comma.,NA,y,7623,NA,NA,2633,5269,NA,NA,NA,"monkeys, ",1
5a5a4bc8e0cf3d0001267426,ssowu0nhzk,Affordance Norms_Prolific,1,20,2023-01-20T22:51:28+00:00,34.27171612,68,updated stim.csv,Version68.csv,Version 68,List 68,wiring,NA,2017,4.428571429,2952,0.837825634,2018,BOI,-,-,Please name all of the ways you could use this object. Keep in mind that one object can have many uses. Separate your responses with a comma.,NA,y,33419,NA,NA,2336,31764,NA,NA,NA,"electrical wire, the way the human is ""wired"", fencing",1
5a5a4bc8e0cf3d0001267426,ssowu0nhzk,Affordance Norms_Prolific,1,21,2023-01-20T22:51:47+00:00,18.39720488,68,updated stim.csv,Version68.csv,Version 68,List 68,winch,NA,2020,5.045454545,2940,0.86917347,2021,BOI,-,-,Please name all of the ways you could use this object. Keep in mind that one object can have many uses. Separate your responses with a comma.,NA,y,17891,NA,NA,2273,16109,NA,NA,NA,"to tow, pull, hoist",1
5a5a4bc8e0cf3d0001267426,ssowu0nhzk,Affordance Norms_Prolific,1,22,2023-01-20T22:51:55+00:00,8.654582977,68,updated stim.csv,Version68.csv,Version 68,List 68,dorm,NA,2036,4.32,830,0.263180029,2037,BOI,-,-,Please name all of the ways you could use this object. Keep in mind that one object can have many uses. Separate your responses with a comma.,NA,y,8112,NA,NA,2457,6391,NA,NA,NA,"somewhere to sleep, ",1
5a5a4bc8e0cf3d0001267426,ssowu0nhzk,Affordance Norms_Prolific,1,23,2023-01-20T22:52:06+00:00,10.88430715,68,updated stim.csv,Version68.csv,Version 68,List 68,stoneware,NA,2029,5.434782609,2546,0.497418797,2030,BOI,-,-,Please name all of the ways you could use this object. Keep in mind that one object can have many uses. Separate your responses with a comma.,NA,y,10454,NA,NA,1605,8057,NA,NA,NA,"plates, old fashioned china",1
5a5a4bc8e0cf3d0001267426,ssowu0nhzk,Affordance Norms_Prolific,1,24,2023-01-20T22:52:22+00:00,15.9317348,68,updated stim.csv,Version68.csv,Version 68,List 68,slacks,NA,2025,6.103448276,2404,0.852495011,2026,BOI,-,-,Please name all of the ways you could use this object. Keep in mind that one object can have many uses. Separate your responses with a comma.,NA,y,15430,NA,NA,1696,10638,NA,NA,NA,"trousers, going slowly, ",1
5a5a4bc8e0cf3d0001267426,ssowu0nhzk,Affordance Norms_Prolific,1,25,2023-01-20T22:52:44+00:00,22.33892322,68,updated stim.csv,Version68.csv,Version 68,List 68,slipknot,NA,2023,4.84,2416,0.917641539,2024,BOI,-,-,Please name all of the ways you could use this object. Keep in mind that one object can have many uses. Separate your responses with a comma.,NA,y,21605,NA,NA,7546,19768,NA,NA,NA,"to secure something, band",1
5a5a4bc8e0cf3d0001267426,ssowu0nhzk,Affordance Norms_Prolific,1,26,2023-01-20T22:53:03+00:00,18.10021186,68,updated stim.csv,Version68.csv,Version 68,List 68,questionnaire,NA,2011,4.461538462,2113,0.398995323,2012,BOI,-,-,Please name all of the ways you could use this object. Keep in mind that one object can have many uses. Separate your responses with a comma.,NA,y,17548,NA,NA,5731,11191,NA,NA,NA,"puzzle, questions, ",1
5a5a4bc8e0cf3d0001267426,ssowu0nhzk,Affordance Norms_Prolific,1,27,2023-01-20T22:53:16+00:00,13.76216197,68,updated stim.csv,Version68.csv,Version 68,List 68,pig,NA,2030,4.56,1955,0.159792263,2031,BOI,-,-,Please name all of the ways you could use this object. Keep in mind that one object can have many uses. Separate your responses with a comma.,NA,y,13187,NA,NA,1950,11126,NA,NA,NA,"animal,someone who eats too much, fat",1
5a5a4bc8e0cf3d0001267426,ssowu0nhzk,Affordance Norms_Prolific,1,28,2023-01-20T22:53:31+00:00,15.13282394,68,updated stim.csv,Version68.csv,Version 68,List 68,businessman,NA,2021,5.25,370,0.089892927,2022,BOI,-,-,Please name all of the ways you could use this object. Keep in mind that one object can have many uses. Separate your responses with a comma.,NA,y,14606,NA,NA,2483,12471,NA,NA,NA,"suited, attending meetings, ",1
5a5a4bc8e0cf3d0001267426,ssowu0nhzk,Affordance Norms_Prolific,1,29,2023-01-20T22:53:42+00:00,10.76199007,68,updated stim.csv,Version68.csv,Version 68,List 68,umbrella,NA,2019,6.4,2816,0.200181782,2020,BOI,-,-,Please name all of the ways you could use this object. Keep in mind that one object can have many uses. Separate your responses with a comma.,NA,y,10312,NA,NA,1531,7141,NA,NA,NA,"to keep the rain off, overall",1
5a5a4bc8e0cf3d0001267426,ssowu0nhzk,Affordance Norms_Prolific,1,30,2023-01-20T22:53:55+00:00,12.69474506,68,updated stim.csv,Version68.csv,Version 68,List 68,toothbrush,NA,2039,6.72,2732,0.483988167,2040,BOI,-,-,Please name all of the ways you could use this object. Keep in mind that one object can have many uses. Separate your responses with a comma.,NA,y,12257,NA,NA,1678,5651,NA,NA,NA,"to clean teeth, ",1
5a5a4bc8e0cf3d0001267426,ssowu0nhzk,Affordance Norms_Prolific,1,31,2023-01-20T22:54:04+00:00,9.571816921,68,updated stim.csv,Version68.csv,Version 68,List 68,textile,NA,2018,4.964285714,2672,0.527774819,2019,BOI,-,-,Please name all of the ways you could use this object. Keep in mind that one object can have many uses. Separate your responses with a comma.,NA,y,9066,NA,NA,2100,6103,NA,NA,NA,"fabric, feel, ",1
