Username,ID,ExperimentName,Session,Trial,Date,TimeDif,"Condition Number","Stimuli File","Order File","Condition Description","Condition Notes",Stimuli*Cue,Stimuli*Answer,Stimuli*Shuffle,"Stimuli*Stimuli Notes",Stimuli*Value,Procedure*Item,"Procedure*Trial Type","Procedure*Max Time","Procedure*Min Time",Procedure*Text,"Procedure*Procedure Notes",Procedure*Shuffle,Response*RT,Response*Response,Response*Accuracy,Response*RTfirst,Response*RTlast,Response*strictAcc,Response*lenientAcc,Response*focus,Response*JOL,Response*Focus
J00726843_knf,on61h9uwcc,"Affordance Norms_South Alabama",1,1,2023-04-16T21:14:58+00:00,12.931577920914,100,"updated stim.csv",Version100.csv,"Version 100","List 100",,,,,,0,Instruct,-,10,"In this section, you will be presented with a series of objects. Please name as many possible uses for this object as you can think of by typing them in the box below each object.",,Instruct1,10887,,,-1,-1,,,,,1
J00726843_knf,on61h9uwcc,"Affordance Norms_South Alabama",1,2,2023-04-16T21:15:09+00:00,10.905868053436,100,"updated stim.csv",Version100.csv,"Version 100","List 100",,,,,,0,Instruct,-,10,"Please keep in mind that a single object will have more than one use. For example, a ball can be thrown or can be bounced or even stepped on. When listing multiple uses for one object, please separate each use with a comma (i.e., thrown, bounced, stepped on)",,Instruct2,10628,,,-1,-1,,,,,1
J00726843_knf,on61h9uwcc,"Affordance Norms_South Alabama",1,3,2023-04-16T21:15:14+00:00,4.8515610694885,100,"updated stim.csv",Version100.csv,"Version 100","List 100",,,,,,0,Instruct,-,-,"Before starting the experiment, you will complete a short practice sesstion. Press ENTER when you are ready to begin.",,Instruct3,4595,,,-1,-1,,,,,1
J00726843_knf,on61h9uwcc,"Affordance Norms_South Alabama",1,4,2023-04-16T21:15:49+00:00,35.050258874893,100,"updated stim.csv",Version100.csv,"Version 100","List 100",spaghetti,,3003,6,2461,3004,BOI,-,-,"Please name all of the ways you could use this object. Keep in mind that one object can have many uses. Separate your responses with a comma.",,n,34682,,,6779,32070,,,,"eaten,slurped,dropped",1
J00726843_knf,on61h9uwcc,"Affordance Norms_South Alabama",1,5,2023-04-16T21:16:33+00:00,44.382338047028,100,"updated stim.csv",Version100.csv,"Version 100","List 100",saucer,,3005,5.777777778,2249,3006,BOI,-,-,"Please name all of the ways you could use this object. Keep in mind that one object can have many uses. Separate your responses with a comma.",,n,44015,,,1785,41556,,,,"thrown,eaten off of,cleaned,stacked,dried,displayed",1
J00726843_knf,on61h9uwcc,"Affordance Norms_South Alabama",1,6,2023-04-16T21:16:50+00:00,17.31582403183,100,"updated stim.csv",Version100.csv,"Version 100","List 100",shortening,,3002,4.92,2358,3003,BOI,-,-,"Please name all of the ways you could use this object. Keep in mind that one object can have many uses. Separate your responses with a comma.",,n,17042,,,3507,13090,,,,baking,1
J00726843_knf,on61h9uwcc,"Affordance Norms_South Alabama",1,7,2023-04-16T21:17:19+00:00,28.854241132736,100,"updated stim.csv",Version100.csv,"Version 100","List 100",grain,,3004,5.217391304,1143,3005,BOI,-,-,"Please name all of the ways you could use this object. Keep in mind that one object can have many uses. Separate your responses with a comma.",,n,28448,,,3769,25622,,,,"making bread, killing ant beds",1
J00726843_knf,on61h9uwcc,"Affordance Norms_South Alabama",1,8,2023-04-16T21:18:15+00:00,56.020009994507,100,"updated stim.csv",Version100.csv,"Version 100","List 100",paperwork,,3001,5.625,1866,3002,BOI,-,-,"Please name all of the ways you could use this object. Keep in mind that one object can have many uses. Separate your responses with a comma.",,n,55655,,,2072,50211,,,,"filed, written, composed, sent, faxed, emailed, delayed, ignored, maliciously read",1
J00726843_knf,on61h9uwcc,"Affordance Norms_South Alabama",1,9,2023-04-16T21:18:18+00:00,3.0832808017731,100,"updated stim.csv",Version100.csv,"Version 100","List 100",,,,,,0,Instruct,-,-,"You have completed this section. Press ENTER to continue",,"Instruct 5",2817,,,-1,-1,,,,,1
J00726843_knf,on61h9uwcc,"Affordance Norms_South Alabama",1,10,2023-04-16T21:18:22+00:00,3.8148829936981,100,"updated stim.csv",Version100.csv,"Version 100","List 100",,,,,,0,Instruct,-,-,"You will now start the full experiment. Press ENTER when you are ready to begin.",,,3558,,,-1,-1,,,,,1
J00726843_knf,on61h9uwcc,"Affordance Norms_South Alabama",1,11,2023-04-16T21:19:17+00:00,54.453891992569,100,"updated stim.csv",Version100.csv,"Version 100","List 100",deck,,2988,5.541666667,763,2989,BOI,-,-,"Please name all of the ways you could use this object. Keep in mind that one object can have many uses. Separate your responses with a comma.",,y,54072,,,7770,52190,,,,"partied on, place for plants, welcome area, boat, playing cards, to hit someone",1
J00726843_knf,on61h9uwcc,"Affordance Norms_South Alabama",1,12,2023-04-16T21:19:42+00:00,25.09179019928,100,"updated stim.csv",Version100.csv,"Version 100","List 100",bowling,,2980,5,293,2981,BOI,-,-,"Please name all of the ways you could use this object. Keep in mind that one object can have many uses. Separate your responses with a comma.",,y,24678,,,15178,19895,,,,"to knock over pins",1
J00726843_knf,on61h9uwcc,"Affordance Norms_South Alabama",1,13,2023-04-16T21:20:21+00:00,39.104614973068,100,"updated stim.csv",Version100.csv,"Version 100","List 100",pulley,,2973,5.208333333,2092,2974,BOI,-,-,"Please name all of the ways you could use this object. Keep in mind that one object can have many uses. Separate your responses with a comma.",,y,38685,,,2730,34824,,,,"an elevator, a tree house, to move something heavy",1
J00726843_knf,on61h9uwcc,"Affordance Norms_South Alabama",1,14,2023-04-16T21:20:48+00:00,27.297076940536,100,"updated stim.csv",Version100.csv,"Version 100","List 100",dish,,2981,5.8,802,2982,BOI,-,-,"Please name all of the ways you could use this object. Keep in mind that one object can have many uses. Separate your responses with a comma.",,y,26055,,,1781,20221,,,,"wash, stack, eat, serve, display",1
J00726843_knf,on61h9uwcc,"Affordance Norms_South Alabama",1,15,2023-04-16T21:21:24+00:00,36.114181995392,100,"updated stim.csv",Version100.csv,"Version 100","List 100",blowgun,,2985,4.625,246,2986,BOI,-,-,"Please name all of the ways you could use this object. Keep in mind that one object can have many uses. Separate your responses with a comma.",,y,35693,,,7334,33545,,,,"poison darts, bubbles, spitballs",1
J00726843_knf,on61h9uwcc,"Affordance Norms_South Alabama",1,16,2023-04-16T21:21:51+00:00,26.668101072311,100,"updated stim.csv",Version100.csv,"Version 100","List 100",debris,,2971,4.75,762,2972,BOI,-,-,"Please name all of the ways you could use this object. Keep in mind that one object can have many uses. Separate your responses with a comma.",,y,26305,,,2068,17551,,,,"clear, wash away, leave",1
J00726843_knf,on61h9uwcc,"Affordance Norms_South Alabama",1,17,2023-04-16T21:22:14+00:00,23.101655006409,100,"updated stim.csv",Version100.csv,"Version 100","List 100",knickers,,2977,5.5,1435,2978,BOI,-,-,"Please name all of the ways you could use this object. Keep in mind that one object can have many uses. Separate your responses with a comma.",,y,22726,,,3658,20475,,,,"put on, wash, tear, button, put away ",1
J00726843_knf,on61h9uwcc,"Affordance Norms_South Alabama",1,18,2023-04-16T21:23:05+00:00,50.913673877716,100,"updated stim.csv",Version100.csv,"Version 100","List 100",school,,2979,5.16,2269,2980,BOI,-,-,"Please name all of the ways you could use this object. Keep in mind that one object can have many uses. Separate your responses with a comma.",,y,50550,,,2506,43216,,,,"learn, social settings, adulthood, opportunities, stress",1
J00726843_knf,on61h9uwcc,"Affordance Norms_South Alabama",1,19,2023-04-16T21:23:23+00:00,17.819092035294,100,"updated stim.csv",Version100.csv,"Version 100","List 100",badminton,,2999,4.92,120,3000,BOI,-,-,"Please name all of the ways you could use this object. Keep in mind that one object can have many uses. Separate your responses with a comma.",,y,17528,,,3289,13785,,,,"pit, play, learn",1
J00726843_knf,on61h9uwcc,"Affordance Norms_South Alabama",1,20,2023-04-16T21:23:38+00:00,15.528825998306,100,"updated stim.csv",Version100.csv,"Version 100","List 100",guardrail,,2991,4.36,1186,2992,BOI,-,-,"Please name all of the ways you could use this object. Keep in mind that one object can have many uses. Separate your responses with a comma.",,y,15263,,,2687,11697,,,,"protect, hold back, stop",1
J00726843_knf,on61h9uwcc,"Affordance Norms_South Alabama",1,21,2023-04-16T21:23:54+00:00,16.076503038406,100,"updated stim.csv",Version100.csv,"Version 100","List 100",breadboard,,2987,5.44,310,2988,BOI,-,-,"Please name all of the ways you could use this object. Keep in mind that one object can have many uses. Separate your responses with a comma.",,y,15789,,,9163,12749,,,,"put bread on ",1
J00726843_knf,on61h9uwcc,"Affordance Norms_South Alabama",1,22,2023-04-16T21:24:42+00:00,47.736187934875,100,"updated stim.csv",Version100.csv,"Version 100","List 100",Fern,,2976,5.005471956,964,2977,BOI,-,-,"Please name all of the ways you could use this object. Keep in mind that one object can have many uses. Separate your responses with a comma.",,y,47344,,,1500,43209,,,,"grow, chop, regrow, use as cover foliage, source of entertainment ",1
J00726843_knf,on61h9uwcc,"Affordance Norms_South Alabama",1,23,2023-04-16T21:25:16+00:00,34.088057994843,100,"updated stim.csv",Version100.csv,"Version 100","List 100",wallboard,,2978,4.64,2887,2979,BOI,-,-,"Please name all of the ways you could use this object. Keep in mind that one object can have many uses. Separate your responses with a comma.",,y,33704,,,2689,32038,,,,"write, pin, stick on notes, bounce off ideas, put pictures",1
J00726843_knf,on61h9uwcc,"Affordance Norms_South Alabama",1,24,2023-04-16T21:26:33+00:00,76.898020029068,100,"updated stim.csv",Version100.csv,"Version 100","List 100",tee,,2984,5.347826087,2656,2985,BOI,-,-,"Please name all of the ways you could use this object. Keep in mind that one object can have many uses. Separate your responses with a comma.",,y,76509,,,5077,74106,,,,"put a ball on, hit a ball off of, the letter, slag for anger, done perfectly",1
J00726843_knf,on61h9uwcc,"Affordance Norms_South Alabama",1,25,2023-04-16T21:28:01+00:00,87.856609106064,100,"updated stim.csv",Version100.csv,"Version 100","List 100",greenhouse,,2975,5.260869565,1171,2976,BOI,-,-,"Please name all of the ways you could use this object. Keep in mind that one object can have many uses. Separate your responses with a comma.",,y,86503,,,1811,84555,,,,"grow plants, keep plants at optimal temperatures, the gas in the atmosphere, keep warm, a house that is painted green ",1
J00726843_knf,on61h9uwcc,"Affordance Norms_South Alabama",1,26,2023-04-16T21:28:42+00:00,41.379750967026,100,"updated stim.csv",Version100.csv,"Version 100","List 100",fieldstone,,2990,4.761904762,971,2991,BOI,-,-,"Please name all of the ways you could use this object. Keep in mind that one object can have many uses. Separate your responses with a comma.",,y,40912,,,1932,39266,,,,"to throw, to kick, make a fireplace ",1
J00726843_knf,on61h9uwcc,"Affordance Norms_South Alabama",1,27,2023-04-16T21:29:41+00:00,58.377334833145,100,"updated stim.csv",Version100.csv,"Version 100","List 100",wrist,,2993,6.291666667,2982,2994,BOI,-,-,"Please name all of the ways you could use this object. Keep in mind that one object can have many uses. Separate your responses with a comma.",,y,57989,,,2221,45376,,,,"to rotate, to throw, to pick up, to break, to crank",1
J00726843_knf,on61h9uwcc,"Affordance Norms_South Alabama",1,28,2023-04-16T21:30:16+00:00,34.795536994934,100,"updated stim.csv",Version100.csv,"Version 100","List 100",marketeer,,2989,4.5,1608,2990,BOI,-,-,"Please name all of the ways you could use this object. Keep in mind that one object can have many uses. Separate your responses with a comma.",,y,34428,,,14384,31814,,,,"to buy from, to barter, listen to",1
J00726843_knf,on61h9uwcc,"Affordance Norms_South Alabama",1,29,2023-04-16T21:31:11+00:00,55.62157201767,100,"updated stim.csv",Version100.csv,"Version 100","List 100",brow,,2998,4.416666667,336,2999,BOI,-,-,"Please name all of the ways you could use this object. Keep in mind that one object can have many uses. Separate your responses with a comma.",,y,55223,,,2455,52447,,,,"to furrow, keep sweat from your eyes, as a fashion statement, to build a cottage on ",1
J00726843_knf,on61h9uwcc,"Affordance Norms_South Alabama",1,30,2023-04-16T21:31:57+00:00,45.511632204056,100,"updated stim.csv",Version100.csv,"Version 100","List 100",waffle,,2983,6.173913043,2878,2984,BOI,-,-,"Please name all of the ways you could use this object. Keep in mind that one object can have many uses. Separate your responses with a comma.",,y,45124,,,1486,39968,,,,"to eat, to put syrup on, to cut up, to warm up, to make up someone's mind",1
J00726843_knf,on61h9uwcc,"Affordance Norms_South Alabama",1,31,2023-04-16T21:32:30+00:00,33.067359924316,100,"updated stim.csv",Version100.csv,"Version 100","List 100",hound,,2974,4.962962963,1324,2975,BOI,-,-,"Please name all of the ways you could use this object. Keep in mind that one object can have many uses. Separate your responses with a comma.",,y,31808,,,2809,29812,,,,"to track animals, to annoy someone over a problem, to be a companion",1
J00726843_knf,on61h9uwcc,"Affordance Norms_South Alabama",1,32,2023-04-16T21:32:50+00:00,20.265212059021,100,"updated stim.csv",Version100.csv,"Version 100","List 100",centipede,,2986,5.25,478,2987,BOI,-,-,"Please name all of the ways you could use this object. Keep in mind that one object can have many uses. Separate your responses with a comma.",,y,19873,,,1499,17603,,,,"to crush, to study, to run away from ",1
J00726843_knf,on61h9uwcc,"Affordance Norms_South Alabama",1,33,2023-04-16T21:33:52+00:00,62.450279951096,100,"updated stim.csv",Version100.csv,"Version 100","List 100",earplugs,,2996,6.541666667,880,2997,BOI,-,-,"Please name all of the ways you could use this object. Keep in mind that one object can have many uses. Separate your responses with a comma.",,y,62075,,,1357,56315,,,,"to prevent loud music, to protect your ears from water, to wear at a gun range, to prevent auditory stimulation ",1
J00726843_knf,on61h9uwcc,"Affordance Norms_South Alabama",1,34,2023-04-16T21:34:18+00:00,25.107763051987,100,"updated stim.csv",Version100.csv,"Version 100","List 100",topaz,,2992,4.642857143,2735,2993,BOI,-,-,"Please name all of the ways you could use this object. Keep in mind that one object can have many uses. Separate your responses with a comma.",,y,24739,,,1547,23183,,,,"to make a jewelry out of, to sell, to buy",1
J00726843_knf,on61h9uwcc,"Affordance Norms_South Alabama",1,35,2023-04-16T21:35:10+00:00,52.513995885849,100,"updated stim.csv",Version100.csv,"Version 100","List 100",trampoline,,2994,5.88,2759,2995,BOI,-,-,"Please name all of the ways you could use this object. Keep in mind that one object can have many uses. Separate your responses with a comma.",,y,52128,,,1233,49652,,,,"to jump on, to be a source of childhood injury, play games on, fall off of, get static in your hair ",1
J00726843_knf,on61h9uwcc,"Affordance Norms_South Alabama",1,36,2023-04-16T21:35:49+00:00,38.742770910263,100,"updated stim.csv",Version100.csv,"Version 100","List 100",waist,,2997,6.458333333,1117,2998,BOI,-,-,"Please name all of the ways you could use this object. Keep in mind that one object can have many uses. Separate your responses with a comma.",,y,38353,,,1777,34533,,,,"to wear pants, hold up a belt, to measure",1
J00726843_knf,on61h9uwcc,"Affordance Norms_South Alabama",1,37,2023-04-16T21:36:29+00:00,39.766158103943,100,"updated stim.csv",Version100.csv,"Version 100","List 100",glove,,3000,4.888888889,2880,3001,BOI,-,-,"Please name all of the ways you could use this object. Keep in mind that one object can have many uses. Separate your responses with a comma.",,y,39373,,,1404,37006,,,,"to cover one's hands, to protect from injury, as a fashion statement ",1
J00726843_knf,on61h9uwcc,"Affordance Norms_South Alabama",1,38,2023-04-16T21:37:17+00:00,48.650949954987,100,"updated stim.csv",Version100.csv,"Version 100","List 100",limb,,2982,5.703703704,1511,2983,BOI,-,-,"Please name all of the ways you could use this object. Keep in mind that one object can have many uses. Separate your responses with a comma.",,y,48269,,,1436,46415,,,,"to move, to cut off, to climb on, to perform daily activities, to carry something ",1
J00726843_knf,on61h9uwcc,"Affordance Norms_South Alabama",1,39,2023-04-16T21:38:15+00:00,57.323989152908,100,"updated stim.csv",Version100.csv,"Version 100","List 100",dye,,2972,4.52173913,873,2973,BOI,-,-,"Please name all of the ways you could use this object. Keep in mind that one object can have many uses. Separate your responses with a comma.",,y,56012,,,1660,45406,,,,"to color your hair, to color a shirt, to color food, to use in medical technology ",1
J00726843_knf,on61h9uwcc,"Affordance Norms_South Alabama",1,40,2023-04-16T21:38:57+00:00,42.227382898331,100,"updated stim.csv",Version100.csv,"Version 100","List 100",respirator,,2995,4.923076923,2158,2996,BOI,-,-,"Please name all of the ways you could use this object. Keep in mind that one object can have many uses. Separate your responses with a comma.",,y,41850,,,1362,29956,,,,"to help breathe, protect from contaminants ",1
J00726843_knf,on61h9uwcc,"Affordance Norms_South Alabama",1,41,2023-04-16T21:38:59+00:00,2.6779189109802,100,"updated stim.csv",Version100.csv,"Version 100","List 100",,,,,,0,Instruct,,,"You will now be asked a few questions about your experience today.",,"Instruct 4",2413,,,-1,-1,,,,,1
