Username,ID,ExperimentName,Session,Trial,Date,TimeDif,"Condition Number","Stimuli File","Order File","Condition Description","Condition Notes",Stimuli*Cue,Stimuli*Answer,Stimuli*Shuffle,"Stimuli*Stimuli Notes",Stimuli*Value,Procedure*Item,"Procedure*Trial Type","Procedure*Max Time","Procedure*Min Time",Procedure*Text,"Procedure*Procedure Notes",Procedure*Shuffle,Response*RT,Response*Response,Response*Accuracy,Response*RTfirst,Response*RTlast,Response*strictAcc,Response*lenientAcc,Response*focus,Response*JOL,Response*Focus
J00723386J_JL,ihfjfmavrr,"Affordance Norms_South Alabama",1,1,2023-04-24T02:44:02+00:00,10.926722049713,27,"updated stim.csv",Version27.csv,"Version 27","List 27",,,,,,0,Instruct,-,10,"In this section, you will be presented with a series of objects. Please name as many possible uses for this object as you can think of by typing them in the box below each object.",,Instruct1,10846,,,-1,-1,,,,,1
J00723386J_JL,ihfjfmavrr,"Affordance Norms_South Alabama",1,2,2023-04-24T02:44:12+00:00,10.662481069565,27,"updated stim.csv",Version27.csv,"Version 27","List 27",,,,,,0,Instruct,-,10,"Please keep in mind that a single object will have more than one use. For example, a ball can be thrown or can be bounced or even stepped on. When listing multiple uses for one object, please separate each use with a comma (i.e., thrown, bounced, stepped on)",,Instruct2,10530,,,-1,-1,,,,,1
J00723386J_JL,ihfjfmavrr,"Affordance Norms_South Alabama",1,3,2023-04-24T02:44:16+00:00,3.9092309474945,27,"updated stim.csv",Version27.csv,"Version 27","List 27",,,,,,0,Instruct,-,-,"Before starting the experiment, you will complete a short practice sesstion. Press ENTER when you are ready to begin.",,Instruct3,3780,,,-1,-1,,,,,1
J00723386J_JL,ihfjfmavrr,"Affordance Norms_South Alabama",1,4,2023-04-24T02:44:36+00:00,19.753592967987,27,"updated stim.csv",Version27.csv,"Version 27","List 27",paperwork,,3001,5.625,1866,3002,BOI,-,-,"Please name all of the ways you could use this object. Keep in mind that one object can have many uses. Separate your responses with a comma.",,n,19520,,,2650,18146,,,,"write, shred, file, approve",1
J00723386J_JL,ihfjfmavrr,"Affordance Norms_South Alabama",1,5,2023-04-24T02:44:51+00:00,14.91605591774,27,"updated stim.csv",Version27.csv,"Version 27","List 27",grain,,3004,5.217391304,1143,3005,BOI,-,-,"Please name all of the ways you could use this object. Keep in mind that one object can have many uses. Separate your responses with a comma.",,n,14788,,,4046,13094,,,,"Grind, cook, food, feed, ",1
J00723386J_JL,ihfjfmavrr,"Affordance Norms_South Alabama",1,6,2023-04-24T02:45:03+00:00,11.795023202896,27,"updated stim.csv",Version27.csv,"Version 27","List 27",shortening,,3002,4.92,2358,3003,BOI,-,-,"Please name all of the ways you could use this object. Keep in mind that one object can have many uses. Separate your responses with a comma.",,n,11662,,,3859,11364,,,,"Cook, food, fry, mix",1
J00723386J_JL,ihfjfmavrr,"Affordance Norms_South Alabama",1,7,2023-04-24T02:45:22+00:00,18.693847894669,27,"updated stim.csv",Version27.csv,"Version 27","List 27",spaghetti,,3003,6,2461,3004,BOI,-,-,"Please name all of the ways you could use this object. Keep in mind that one object can have many uses. Separate your responses with a comma.",,n,18556,,,2411,18393,,,,"eat, plate, cook, bake, leftovers",1
J00723386J_JL,ihfjfmavrr,"Affordance Norms_South Alabama",1,8,2023-04-24T02:45:39+00:00,17.517024040222,27,"updated stim.csv",Version27.csv,"Version 27","List 27",saucer,,3005,5.777777778,2249,3006,BOI,-,-,"Please name all of the ways you could use this object. Keep in mind that one object can have many uses. Separate your responses with a comma.",,n,17375,,,2462,15789,,,,"eat off of, display, clean , food",1
J00723386J_JL,ihfjfmavrr,"Affordance Norms_South Alabama",1,9,2023-04-24T02:45:40+00:00,1.1026990413666,27,"updated stim.csv",Version27.csv,"Version 27","List 27",,,,,,0,Instruct,-,-,"You have completed this section. Press ENTER to continue",,"Instruct 5",980,,,-1,-1,,,,,1
J00723386J_JL,ihfjfmavrr,"Affordance Norms_South Alabama",1,10,2023-04-24T02:45:42+00:00,1.4080448150635,27,"updated stim.csv",Version27.csv,"Version 27","List 27",,,,,,0,Instruct,-,-,"You will now start the full experiment. Press ENTER when you are ready to begin.",,,1284,,,-1,-1,,,,,1
J00723386J_JL,ihfjfmavrr,"Affordance Norms_South Alabama",1,11,2023-04-24T02:46:01+00:00,19.27992105484,27,"updated stim.csv",Version27.csv,"Version 27","List 27",father,,788,6.035714286,951,789,BOI,-,-,"Please name all of the ways you could use this object. Keep in mind that one object can have many uses. Separate your responses with a comma.",,y,19048,,,1944,18698,,,,"parent, idol, figure, person, friend",1
J00723386J_JL,ihfjfmavrr,"Affordance Norms_South Alabama",1,12,2023-04-24T02:46:12+00:00,11.282865047455,27,"updated stim.csv",Version27.csv,"Version 27","List 27",daiquiri,,799,5.454545455,749,800,BOI,-,-,"Please name all of the ways you could use this object. Keep in mind that one object can have many uses. Separate your responses with a comma.",,y,11152,,,1431,10962,,,,"drink, mix, make",1
J00723386J_JL,ihfjfmavrr,"Affordance Norms_South Alabama",1,13,2023-04-24T02:46:22+00:00,9.4644010066986,27,"updated stim.csv",Version27.csv,"Version 27","List 27",sedative,,800,4.416666667,2307,801,BOI,-,-,"Please name all of the ways you could use this object. Keep in mind that one object can have many uses. Separate your responses with a comma.",,y,9339,,,1805,8417,,,,"medicine, sleep",1
J00723386J_JL,ihfjfmavrr,"Affordance Norms_South Alabama",1,14,2023-04-24T02:46:38+00:00,16.471640110016,27,"updated stim.csv",Version27.csv,"Version 27","List 27",bug,,787,5.296296296,347,788,BOI,-,-,"Please name all of the ways you could use this object. Keep in mind that one object can have many uses. Separate your responses with a comma.",,y,16341,,,1553,10492,,,,"insect, food, pets",1
J00723386J_JL,ihfjfmavrr,"Affordance Norms_South Alabama",1,15,2023-04-24T02:46:44+00:00,6.3520619869232,27,"updated stim.csv",Version27.csv,"Version 27","List 27",vermicelli,,806,5.571428571,2850,807,BOI,-,-,"Please name all of the ways you could use this object. Keep in mind that one object can have many uses. Separate your responses with a comma.",,y,6227,,,3264,6029,,,,"i dont know what this is ",1
J00723386J_JL,ihfjfmavrr,"Affordance Norms_South Alabama",1,16,2023-04-24T02:47:00+00:00,15.639297962189,27,"updated stim.csv",Version27.csv,"Version 27","List 27",flagpole,,802,4.785714286,996,803,BOI,-,-,"Please name all of the ways you could use this object. Keep in mind that one object can have many uses. Separate your responses with a comma.",,y,15514,,,2642,15015,,,,"display, pride, memorial",1
J00723386J_JL,ihfjfmavrr,"Affordance Norms_South Alabama",1,17,2023-04-24T02:47:13+00:00,12.896074056625,27,"updated stim.csv",Version27.csv,"Version 27","List 27",gambler,,792,4.416666667,1070,793,BOI,-,-,"Please name all of the ways you could use this object. Keep in mind that one object can have many uses. Separate your responses with a comma.",,y,12772,,,1797,12636,,,,"addiction, poker, blackjack, cards",1
J00723386J_JL,ihfjfmavrr,"Affordance Norms_South Alabama",1,18,2023-04-24T02:47:19+00:00,5.6185169219971,27,"updated stim.csv",Version27.csv,"Version 27","List 27",fondue,,794,4.92,1026,795,BOI,-,-,"Please name all of the ways you could use this object. Keep in mind that one object can have many uses. Separate your responses with a comma.",,y,5483,,,2096,5302,,,,"cheese, chocolate",1
J00723386J_JL,ihfjfmavrr,"Affordance Norms_South Alabama",1,19,2023-04-24T02:47:30+00:00,11.45512008667,27,"updated stim.csv",Version27.csv,"Version 27","List 27",intercom,,809,4.695652174,1363,810,BOI,-,-,"Please name all of the ways you could use this object. Keep in mind that one object can have many uses. Separate your responses with a comma.",,y,11318,,,4668,11081,,,,"announcement, communication",1
J00723386J_JL,ihfjfmavrr,"Affordance Norms_South Alabama",1,20,2023-04-24T02:47:45+00:00,15.196464776993,27,"updated stim.csv",Version27.csv,"Version 27","List 27",receipts,,795,5.04,2144,796,BOI,-,-,"Please name all of the ways you could use this object. Keep in mind that one object can have many uses. Separate your responses with a comma.",,y,15062,,,1874,14894,,,,"store, buying, coupons",1
J00723386J_JL,ihfjfmavrr,"Affordance Norms_South Alabama",1,21,2023-04-24T02:47:57+00:00,11.878056049347,27,"updated stim.csv",Version27.csv,"Version 27","List 27",housekeeper,,801,4.458333333,1331,802,BOI,-,-,"Please name all of the ways you could use this object. Keep in mind that one object can have many uses. Separate your responses with a comma.",,y,11749,,,1723,11555,,,,"profession, job, servant",1
J00723386J_JL,ihfjfmavrr,"Affordance Norms_South Alabama",1,22,2023-04-24T02:48:05+00:00,8.1237230300903,27,"updated stim.csv",Version27.csv,"Version 27","List 27",fridge,,786,6.166666667,1056,787,BOI,-,-,"Please name all of the ways you could use this object. Keep in mind that one object can have many uses. Separate your responses with a comma.",,y,7994,,,1962,7556,,,,"cold, storage, food",1
J00723386J_JL,ihfjfmavrr,"Affordance Norms_South Alabama",1,23,2023-04-24T02:48:17+00:00,12.203108072281,27,"updated stim.csv",Version27.csv,"Version 27","List 27",subway,,805,5,2577,806,BOI,-,-,"Please name all of the ways you could use this object. Keep in mind that one object can have many uses. Separate your responses with a comma.",,y,12071,,,2628,11793,,,,"sandwich, train, transportation ",1
J00723386J_JL,ihfjfmavrr,"Affordance Norms_South Alabama",1,24,2023-04-24T02:48:35+00:00,17.399062871933,27,"updated stim.csv",Version27.csv,"Version 27","List 27",scythe,,803,4.727272727,2293,804,BOI,-,-,"Please name all of the ways you could use this object. Keep in mind that one object can have many uses. Separate your responses with a comma.",,y,17274,,,1983,16929,,,,"harvester, tool, weapon",1
J00723386J_JL,ihfjfmavrr,"Affordance Norms_South Alabama",1,25,2023-04-24T02:49:02+00:00,26.785495996475,27,"updated stim.csv",Version27.csv,"Version 27","List 27",electronics,,783,5.12,899,784,BOI,-,-,"Please name all of the ways you could use this object. Keep in mind that one object can have many uses. Separate your responses with a comma.",,y,26557,,,3920,26462,,,,"cell phone, tv, car, watch, computer, tablet, communication, display, advertise",1
J00723386J_JL,ihfjfmavrr,"Affordance Norms_South Alabama",1,26,2023-04-24T02:49:07+00:00,5.5313200950623,27,"updated stim.csv",Version27.csv,"Version 27","List 27",lingerie,,790,5.72,1518,791,BOI,-,-,"Please name all of the ways you could use this object. Keep in mind that one object can have many uses. Separate your responses with a comma.",,y,5397,,,3646,4928,,,,pleaure,1
J00723386J_JL,ihfjfmavrr,"Affordance Norms_South Alabama",1,27,2023-04-24T02:49:12+00:00,4.5185580253601,27,"updated stim.csv",Version27.csv,"Version 27","List 27",foxhound,,781,4.347826087,1052,782,BOI,-,-,"Please name all of the ways you could use this object. Keep in mind that one object can have many uses. Separate your responses with a comma.",,y,4390,,,3464,4245,,,,hunting,1
J00723386J_JL,ihfjfmavrr,"Affordance Norms_South Alabama",1,28,2023-04-24T02:49:21+00:00,9.7670829296112,27,"updated stim.csv",Version27.csv,"Version 27","List 27",cherry,,804,5.454545455,511,805,BOI,-,-,"Please name all of the ways you could use this object. Keep in mind that one object can have many uses. Separate your responses with a comma.",,y,9638,,,1265,9276,,,,"food, dessert, flavouring ",1
J00723386J_JL,ihfjfmavrr,"Affordance Norms_South Alabama",1,29,2023-04-24T02:49:40+00:00,18.311258077621,27,"updated stim.csv",Version27.csv,"Version 27","List 27",appliance,,807,5.791666667,62,808,BOI,-,-,"Please name all of the ways you could use this object. Keep in mind that one object can have many uses. Separate your responses with a comma.",,y,18175,,,1818,17762,,,,"dishwasher, microwave, washing machine, fridge, freezer, stove, oven",1
J00723386J_JL,ihfjfmavrr,"Affordance Norms_South Alabama",1,30,2023-04-24T02:49:49+00:00,9.5380499362946,27,"updated stim.csv",Version27.csv,"Version 27","List 27",marshmallow,,797,6.173913043,1611,798,BOI,-,-,"Please name all of the ways you could use this object. Keep in mind that one object can have many uses. Separate your responses with a comma.",,y,9402,,,1535,8717,,,,"food, smores, topping",1
J00723386J_JL,ihfjfmavrr,"Affordance Norms_South Alabama",1,31,2023-04-24T02:50:01+00:00,11.796240091324,27,"updated stim.csv",Version27.csv,"Version 27","List 27",billfold,,793,5.444444444,215,794,BOI,-,-,"Please name all of the ways you could use this object. Keep in mind that one object can have many uses. Separate your responses with a comma.",,y,11667,,,3093,11349,,,,"wallet, store cards and money",1
J00723386J_JL,ihfjfmavrr,"Affordance Norms_South Alabama",1,32,2023-04-24T02:50:04+00:00,2.7543540000916,27,"updated stim.csv",Version27.csv,"Version 27","List 27",bum,,782,4.346153846,357,783,BOI,-,-,"Please name all of the ways you could use this object. Keep in mind that one object can have many uses. Separate your responses with a comma.",,y,2616,,,2108,2471,,,,butt,1
J00723386J_JL,ihfjfmavrr,"Affordance Norms_South Alabama",1,33,2023-04-24T02:50:10+00:00,6.2576830387115,27,"updated stim.csv",Version27.csv,"Version 27","List 27",Grasshopper,,810,4.753721245,1161,811,BOI,-,-,"Please name all of the ways you could use this object. Keep in mind that one object can have many uses. Separate your responses with a comma.",,y,6127,,,1305,5086,,,,"insect, food",1
J00723386J_JL,ihfjfmavrr,"Affordance Norms_South Alabama",1,34,2023-04-24T02:50:20+00:00,9.5050239562988,27,"updated stim.csv",Version27.csv,"Version 27","List 27",skin,,789,6.16,2399,790,BOI,-,-,"Please name all of the ways you could use this object. Keep in mind that one object can have many uses. Separate your responses with a comma.",,y,9371,,,3935,9113,,,,"lotion, moistureizer ",1
J00723386J_JL,ihfjfmavrr,"Affordance Norms_South Alabama",1,35,2023-04-24T02:50:22+00:00,2.6522219181061,27,"updated stim.csv",Version27.csv,"Version 27","List 27",bunkmate,,791,4.458333333,362,792,BOI,-,-,"Please name all of the ways you could use this object. Keep in mind that one object can have many uses. Separate your responses with a comma.",,y,2529,,,1669,2343,,,,"friend ",1
J00723386J_JL,ihfjfmavrr,"Affordance Norms_South Alabama",1,36,2023-04-24T02:50:27+00:00,4.6941659450531,27,"updated stim.csv",Version27.csv,"Version 27","List 27",kaleidoscope,,784,5.84,1400,785,BOI,-,-,"Please name all of the ways you could use this object. Keep in mind that one object can have many uses. Separate your responses with a comma.",,y,4567,,,2543,4378,,,,"see through it",1
J00723386J_JL,ihfjfmavrr,"Affordance Norms_South Alabama",1,37,2023-04-24T02:50:33+00:00,6.2324559688568,27,"updated stim.csv",Version27.csv,"Version 27","List 27",breastbone,,785,5.318181818,313,786,BOI,-,-,"Please name all of the ways you could use this object. Keep in mind that one object can have many uses. Separate your responses with a comma.",,y,6098,,,2371,3504,,,,skeleton,1
J00723386J_JL,ihfjfmavrr,"Affordance Norms_South Alabama",1,38,2023-04-24T02:50:40+00:00,7.2935111522675,27,"updated stim.csv",Version27.csv,"Version 27","List 27",apricot,,808,6.291666667,66,809,BOI,-,-,"Please name all of the ways you could use this object. Keep in mind that one object can have many uses. Separate your responses with a comma.",,y,7159,,,1243,7049,,,,"food, plant, tree",1
J00723386J_JL,ihfjfmavrr,"Affordance Norms_South Alabama",1,39,2023-04-24T02:50:47+00:00,6.8168339729309,27,"updated stim.csv",Version27.csv,"Version 27","List 27",mothball,,796,5.12,1691,797,BOI,-,-,"Please name all of the ways you could use this object. Keep in mind that one object can have many uses. Separate your responses with a comma.",,y,6679,,,2722,6342,,,,"keep moths away",1
J00723386J_JL,ihfjfmavrr,"Affordance Norms_South Alabama",1,40,2023-04-24T02:50:54+00:00,6.5467779636383,27,"updated stim.csv",Version27.csv,"Version 27","List 27",townsfolk,,798,4.583333333,2748,799,BOI,-,-,"Please name all of the ways you could use this object. Keep in mind that one object can have many uses. Separate your responses with a comma.",,y,6420,,,2091,6170,,,,"residents, neighbors",1
J00723386J_JL,ihfjfmavrr,"Affordance Norms_South Alabama",1,41,2023-04-24T02:50:56+00:00,2.2436230182648,27,"updated stim.csv",Version27.csv,"Version 27","List 27",,,,,,0,Instruct,,,"You will now be asked a few questions about your experience today.",,"Instruct 4",2122,,,-1,-1,,,,,1
