Username,ID,ExperimentName,Session,Trial,Date,TimeDif,"Condition Number","Stimuli File","Order File","Condition Description","Condition Notes",Stimuli*Cue,Stimuli*Answer,Stimuli*Shuffle,"Stimuli*Stimuli Notes",Stimuli*Value,Procedure*Item,"Procedure*Trial Type","Procedure*Max Time","Procedure*Min Time",Procedure*Text,"Procedure*Procedure Notes",Procedure*Shuffle,Response*RT,Response*Response,Response*Accuracy,Response*RTfirst,Response*RTlast,Response*strictAcc,Response*lenientAcc,Response*focus,Response*JOL,Response*Focus
j00718171_ivh,m9ojga76ka,"Affordance Norms_South Alabama",1,1,2022-12-01T13:59:38+00:00,10.992980003357,14,"updated stim.csv",Version14.csv,"Version 14","List 14",,,,,,0,Instruct,-,10,"In this section, you will be presented with a series of objects. Please name as many possible uses for this object as you can think of by typing them in the box below each object.",,Instruct1,10698,,,-1,-1,,,,,1
j00718171_ivh,m9ojga76ka,"Affordance Norms_South Alabama",1,2,2022-12-01T13:59:55+00:00,17.094396114349,14,"updated stim.csv",Version14.csv,"Version 14","List 14",,,,,,0,Instruct,-,10,"Please keep in mind that a single object will have more than one use. For example, a ball can be thrown or can be bounced or even stepped on. When listing multiple uses for one object, please separate each use with a comma (i.e., thrown, bounced, stepped on)",,Instruct2,16479,,,-1,-1,,,,,1
j00718171_ivh,m9ojga76ka,"Affordance Norms_South Alabama",1,3,2022-12-01T13:59:59+00:00,3.6658430099487,14,"updated stim.csv",Version14.csv,"Version 14","List 14",,,,,,0,Instruct,-,-,"Before starting the experiment, you will complete a short practice sesstion. Press ENTER when you are ready to begin.",,Instruct3,1143,,,-1,-1,,,,,1
j00718171_ivh,m9ojga76ka,"Affordance Norms_South Alabama",1,4,2022-12-01T14:00:21+00:00,22.359524011612,14,"updated stim.csv",Version14.csv,"Version 14","List 14",paperwork,,3001,5.625,1866,3002,BOI,-,-,"Please name all of the ways you could use this object. Keep in mind that one object can have many uses. Separate your responses with a comma.",,n,21901,,,6324,21006,,,,"writing, folding, drawn",1
j00718171_ivh,m9ojga76ka,"Affordance Norms_South Alabama",1,5,2022-12-01T14:00:31+00:00,10.387165784836,14,"updated stim.csv",Version14.csv,"Version 14","List 14",spaghetti,,3003,6,2461,3004,BOI,-,-,"Please name all of the ways you could use this object. Keep in mind that one object can have many uses. Separate your responses with a comma.",,n,9967,,,1836,8959,,,,"eating, feeding",1
j00718171_ivh,m9ojga76ka,"Affordance Norms_South Alabama",1,6,2022-12-01T14:00:46+00:00,14.565465211868,14,"updated stim.csv",Version14.csv,"Version 14","List 14",shortening,,3002,4.92,2358,3003,BOI,-,-,"Please name all of the ways you could use this object. Keep in mind that one object can have many uses. Separate your responses with a comma.",,n,14165,,,-1,-1,,,,,1
j00718171_ivh,m9ojga76ka,"Affordance Norms_South Alabama",1,7,2022-12-01T14:00:53+00:00,7.2475838661194,14,"updated stim.csv",Version14.csv,"Version 14","List 14",grain,,3004,5.217391304,1143,3005,BOI,-,-,"Please name all of the ways you could use this object. Keep in mind that one object can have many uses. Separate your responses with a comma.",,n,6853,,,2498,5931,,,,"cooking, crafts",1
j00718171_ivh,m9ojga76ka,"Affordance Norms_South Alabama",1,8,2022-12-01T14:01:00+00:00,6.8238649368286,14,"updated stim.csv",Version14.csv,"Version 14","List 14",saucer,,3005,5.777777778,2249,3006,BOI,-,-,"Please name all of the ways you could use this object. Keep in mind that one object can have many uses. Separate your responses with a comma.",,n,5870,,,-1,-1,,,,,1
j00718171_ivh,m9ojga76ka,"Affordance Norms_South Alabama",1,9,2022-12-01T14:01:03+00:00,2.9041700363159,14,"updated stim.csv",Version14.csv,"Version 14","List 14",,,,,,0,Instruct,-,-,"You have completed this section. Press ENTER to continue",,"Instruct 5",2578,,,-1,-1,,,,,1
j00718171_ivh,m9ojga76ka,"Affordance Norms_South Alabama",1,10,2022-12-01T14:01:06+00:00,3.0301649570465,14,"updated stim.csv",Version14.csv,"Version 14","List 14",,,,,,0,Instruct,-,-,"You will now start the full experiment. Press ENTER when you are ready to begin.",,,2641,,,-1,-1,,,,,1
j00718171_ivh,m9ojga76ka,"Affordance Norms_South Alabama",1,11,2022-12-01T14:01:15+00:00,9.3018951416016,14,"updated stim.csv",Version14.csv,"Version 14","List 14",tuba,,401,5.130434783,2790,402,BOI,-,-,"Please name all of the ways you could use this object. Keep in mind that one object can have many uses. Separate your responses with a comma.",,y,8897,,,2805,6418,,,,"playing, decor",1
j00718171_ivh,m9ojga76ka,"Affordance Norms_South Alabama",1,12,2022-12-01T14:01:31+00:00,15.620270967484,14,"updated stim.csv",Version14.csv,"Version 14","List 14",author,,398,4.4,99,399,BOI,-,-,"Please name all of the ways you could use this object. Keep in mind that one object can have many uses. Separate your responses with a comma.",,y,15098,,,2044,11307,,,,"writing, reading, reserching",1
j00718171_ivh,m9ojga76ka,"Affordance Norms_South Alabama",1,13,2022-12-01T14:01:43+00:00,12.52631688118,14,"updated stim.csv",Version14.csv,"Version 14","List 14",cleat,,407,4.5,552,408,BOI,-,-,"Please name all of the ways you could use this object. Keep in mind that one object can have many uses. Separate your responses with a comma.",,y,12156,,,2817,11862,,,,"practice, games",1
j00718171_ivh,m9ojga76ka,"Affordance Norms_South Alabama",1,14,2022-12-01T14:01:57+00:00,13.82806801796,14,"updated stim.csv",Version14.csv,"Version 14","List 14",doctor,,417,5.68,809,418,BOI,-,-,"Please name all of the ways you could use this object. Keep in mind that one object can have many uses. Separate your responses with a comma.",,y,13517,,,8425,12786,,,,"surgery, checkups",1
j00718171_ivh,m9ojga76ka,"Affordance Norms_South Alabama",1,15,2022-12-01T14:02:07+00:00,10.252583026886,14,"updated stim.csv",Version14.csv,"Version 14","List 14",doorstep,,396,5.333333333,828,397,BOI,-,-,"Please name all of the ways you could use this object. Keep in mind that one object can have many uses. Separate your responses with a comma.",,y,9500,,,3139,9183,,,,"stepping up, stepping down",1
j00718171_ivh,m9ojga76ka,"Affordance Norms_South Alabama",1,16,2022-12-01T14:02:17+00:00,9.9527859687805,14,"updated stim.csv",Version14.csv,"Version 14","List 14",cord,,420,6.103448276,640,421,BOI,-,-,"Please name all of the ways you could use this object. Keep in mind that one object can have many uses. Separate your responses with a comma.",,y,9307,,,4882,8933,,,,"charging, plugging",1
j00718171_ivh,m9ojga76ka,"Affordance Norms_South Alabama",1,17,2022-12-01T14:02:29+00:00,11.730977058411,14,"updated stim.csv",Version14.csv,"Version 14","List 14",fisherman,,418,4.851851852,991,419,BOI,-,-,"Please name all of the ways you could use this object. Keep in mind that one object can have many uses. Separate your responses with a comma.",,y,10701,,,2880,9530,,,,"catch fish, identifying fish",1
j00718171_ivh,m9ojga76ka,"Affordance Norms_South Alabama",1,18,2022-12-01T14:02:37+00:00,8.304575920105,14,"updated stim.csv",Version14.csv,"Version 14","List 14",flannels,,413,5.681818182,999,414,BOI,-,-,"Please name all of the ways you could use this object. Keep in mind that one object can have many uses. Separate your responses with a comma.",,y,7568,,,2403,5242,,,,wearing,1
j00718171_ivh,m9ojga76ka,"Affordance Norms_South Alabama",1,19,2022-12-01T14:02:44+00:00,6.9746310710907,14,"updated stim.csv",Version14.csv,"Version 14","List 14",turnip,,412,6.12,2802,413,BOI,-,-,"Please name all of the ways you could use this object. Keep in mind that one object can have many uses. Separate your responses with a comma.",,y,6588,,,2718,3877,,,,cooking,1
j00718171_ivh,m9ojga76ka,"Affordance Norms_South Alabama",1,20,2022-12-01T14:02:47+00:00,2.1372539997101,14,"updated stim.csv",Version14.csv,"Version 14","List 14",tonic,,414,5.086956522,2729,415,BOI,-,-,"Please name all of the ways you could use this object. Keep in mind that one object can have many uses. Separate your responses with a comma.",,y,1470,,,-1,-1,,,,,1
j00718171_ivh,m9ojga76ka,"Affordance Norms_South Alabama",1,21,2022-12-01T14:03:00+00:00,13.533793926239,14,"updated stim.csv",Version14.csv,"Version 14","List 14",clip,,406,4.833333333,560,407,BOI,-,-,"Please name all of the ways you could use this object. Keep in mind that one object can have many uses. Separate your responses with a comma.",,y,13058,,,4146,12900,,,,"pin up hair, style",1
j00718171_ivh,m9ojga76ka,"Affordance Norms_South Alabama",1,22,2022-12-01T14:03:04+00:00,3.8689231872559,14,"updated stim.csv",Version14.csv,"Version 14","List 14",driftwood,,395,5.416666667,847,396,BOI,-,-,"Please name all of the ways you could use this object. Keep in mind that one object can have many uses. Separate your responses with a comma.",,y,3461,,,-1,-1,,,,,1
j00718171_ivh,m9ojga76ka,"Affordance Norms_South Alabama",1,23,2022-12-01T14:03:15+00:00,11.463361978531,14,"updated stim.csv",Version14.csv,"Version 14","List 14",crayon,,394,6.36,687,395,BOI,-,-,"Please name all of the ways you could use this object. Keep in mind that one object can have many uses. Separate your responses with a comma.",,y,11082,,,2488,10884,,,,"coloring, drawing, writing, melting",1
j00718171_ivh,m9ojga76ka,"Affordance Norms_South Alabama",1,24,2022-12-01T14:03:21+00:00,5.5425930023193,14,"updated stim.csv",Version14.csv,"Version 14","List 14",cocktail,,415,5.481481481,588,416,BOI,-,-,"Please name all of the ways you could use this object. Keep in mind that one object can have many uses. Separate your responses with a comma.",,y,5265,,,1749,5071,,,,"drinking, decor",1
j00718171_ivh,m9ojga76ka,"Affordance Norms_South Alabama",1,25,2022-12-01T14:03:33+00:00,11.568562984467,14,"updated stim.csv",Version14.csv,"Version 14","List 14",suede,,391,5,2579,392,BOI,-,-,"Please name all of the ways you could use this object. Keep in mind that one object can have many uses. Separate your responses with a comma.",,y,10966,,,2260,10778,,,,"wearing, sewing",1
j00718171_ivh,m9ojga76ka,"Affordance Norms_South Alabama",1,26,2022-12-01T14:03:37+00:00,4.054251909256,14,"updated stim.csv",Version14.csv,"Version 14","List 14",milkshake,,393,6.4,1661,394,BOI,-,-,"Please name all of the ways you could use this object. Keep in mind that one object can have many uses. Separate your responses with a comma.",,y,3586,,,1510,2878,,,,drinking,1
j00718171_ivh,m9ojga76ka,"Affordance Norms_South Alabama",1,27,2022-12-01T14:03:46+00:00,9.0266070365906,14,"updated stim.csv",Version14.csv,"Version 14","List 14",booth,,403,4.92,282,404,BOI,-,-,"Please name all of the ways you could use this object. Keep in mind that one object can have many uses. Separate your responses with a comma.",,y,8583,,,4244,8425,,,,"pop up shop, games",1
j00718171_ivh,m9ojga76ka,"Affordance Norms_South Alabama",1,28,2022-12-01T14:03:48+00:00,2.3732290267944,14,"updated stim.csv",Version14.csv,"Version 14","List 14",broker,,404,4.464285714,330,405,BOI,-,-,"Please name all of the ways you could use this object. Keep in mind that one object can have many uses. Separate your responses with a comma.",,y,1792,,,-1,-1,,,,,1
j00718171_ivh,m9ojga76ka,"Affordance Norms_South Alabama",1,29,2022-12-01T14:03:50+00:00,1.5985550880432,14,"updated stim.csv",Version14.csv,"Version 14","List 14",brassiere,,409,5.666666667,306,410,BOI,-,-,"Please name all of the ways you could use this object. Keep in mind that one object can have many uses. Separate your responses with a comma.",,y,1111,,,-1,-1,,,,,1
j00718171_ivh,m9ojga76ka,"Affordance Norms_South Alabama",1,30,2022-12-01T14:03:51+00:00,1.4737138748169,14,"updated stim.csv",Version14.csv,"Version 14","List 14",hutch,,400,4.708333333,1342,401,BOI,-,-,"Please name all of the ways you could use this object. Keep in mind that one object can have many uses. Separate your responses with a comma.",,y,1051,,,-1,-1,,,,,1
j00718171_ivh,m9ojga76ka,"Affordance Norms_South Alabama",1,31,2022-12-01T14:03:59+00:00,7.7801289558411,14,"updated stim.csv",Version14.csv,"Version 14","List 14",earring,,405,6.428571429,881,406,BOI,-,-,"Please name all of the ways you could use this object. Keep in mind that one object can have many uses. Separate your responses with a comma.",,y,7150,,,2243,3575,,,,wearing,1
j00718171_ivh,m9ojga76ka,"Affordance Norms_South Alabama",1,32,2022-12-01T14:04:13+00:00,14.545423030853,14,"updated stim.csv",Version14.csv,"Version 14","List 14",granddaughter,,392,5,1146,393,BOI,-,-,"Please name all of the ways you could use this object. Keep in mind that one object can have many uses. Separate your responses with a comma.",,y,14167,,,13281,13962,,,,child,1
j00718171_ivh,m9ojga76ka,"Affordance Norms_South Alabama",1,33,2022-12-01T14:04:19+00:00,5.9236469268799,14,"updated stim.csv",Version14.csv,"Version 14","List 14",pedestal,,419,4.88,1901,420,BOI,-,-,"Please name all of the ways you could use this object. Keep in mind that one object can have many uses. Separate your responses with a comma.",,y,5551,,,3970,5351,,,,stepping,1
j00718171_ivh,m9ojga76ka,"Affordance Norms_South Alabama",1,34,2022-12-01T14:04:26+00:00,7.1383440494537,14,"updated stim.csv",Version14.csv,"Version 14","List 14",paperhanger,,410,4.625,1864,411,BOI,-,-,"Please name all of the ways you could use this object. Keep in mind that one object can have many uses. Separate your responses with a comma.",,y,6699,,,4269,6529,,,,"hanging clothes",1
j00718171_ivh,m9ojga76ka,"Affordance Norms_South Alabama",1,35,2022-12-01T14:04:40+00:00,13.065312147141,14,"updated stim.csv",Version14.csv,"Version 14","List 14",hairpin,,397,6.125,1216,398,BOI,-,-,"Please name all of the ways you could use this object. Keep in mind that one object can have many uses. Separate your responses with a comma.",,y,12666,,,5067,11817,,,,"unlock a door, pin hair",1
j00718171_ivh,m9ojga76ka,"Affordance Norms_South Alabama",1,36,2022-12-01T14:04:43+00:00,3.4930808544159,14,"updated stim.csv",Version14.csv,"Version 14","List 14",pellet,,416,4.296296296,1910,417,BOI,-,-,"Please name all of the ways you could use this object. Keep in mind that one object can have many uses. Separate your responses with a comma.",,y,3005,,,1687,2836,,,,shooting,1
j00718171_ivh,m9ojga76ka,"Affordance Norms_South Alabama",1,37,2022-12-01T14:04:54+00:00,10.900266170502,14,"updated stim.csv",Version14.csv,"Version 14","List 14",hamstring,,408,5.08,1227,409,BOI,-,-,"Please name all of the ways you could use this object. Keep in mind that one object can have many uses. Separate your responses with a comma.",,y,10527,,,3048,10340,,,,"walking, running, stepping, jumping",1
j00718171_ivh,m9ojga76ka,"Affordance Norms_South Alabama",1,38,2022-12-01T14:05:22+00:00,28.420518875122,14,"updated stim.csv",Version14.csv,"Version 14","List 14",vagina,,399,6.041666667,2832,400,BOI,-,-,"Please name all of the ways you could use this object. Keep in mind that one object can have many uses. Separate your responses with a comma.",,y,27783,,,3593,27448,,,,"peeing, childbirth",1
j00718171_ivh,m9ojga76ka,"Affordance Norms_South Alabama",1,39,2022-12-01T14:05:26+00:00,4.0458629131317,14,"updated stim.csv",Version14.csv,"Version 14","List 14",Cheeseburger,,402,,3001,403,BOI,-,-,"Please name all of the ways you could use this object. Keep in mind that one object can have many uses. Separate your responses with a comma.",,y,3642,,,1421,2389,,,,eating,1
j00718171_ivh,m9ojga76ka,"Affordance Norms_South Alabama",1,40,2022-12-01T14:05:30+00:00,3.3971180915833,14,"updated stim.csv",Version14.csv,"Version 14","List 14",seasoning,,411,4.47826087,2300,412,BOI,-,-,"Please name all of the ways you could use this object. Keep in mind that one object can have many uses. Separate your responses with a comma.",,y,2761,,,1482,2554,,,,cooking,1
j00718171_ivh,m9ojga76ka,"Affordance Norms_South Alabama",1,41,2022-12-01T14:05:32+00:00,2.1534700393677,14,"updated stim.csv",Version14.csv,"Version 14","List 14",,,,,,0,Instruct,,,"You will now be asked a few questions about your experience today.",,"Instruct 4",1371,,,-1,-1,,,,,1
