Username,ID,ExperimentName,Session,Trial,Date,TimeDif,"Condition Number","Stimuli File","Order File","Condition Description","Condition Notes",Stimuli*Cue,Stimuli*Answer,Stimuli*Shuffle,"Stimuli*Stimuli Notes",Stimuli*Value,Procedure*Item,"Procedure*Trial Type","Procedure*Max Time","Procedure*Min Time",Procedure*Text,"Procedure*Procedure Notes",Procedure*Shuffle,Response*RT,Response*Response,Response*Accuracy,Response*RTfirst,Response*RTlast,Response*strictAcc,Response*lenientAcc,Response*focus,Response*JOL,Response*Focus
j00697576_blw,5j5yty6moo,"Affordance Norms_South Alabama",1,1,2023-04-07T14:55:10+00:00,21.007495880127,54,"updated stim.csv",Version54.csv,"Version 54","List 54",,,,,,0,Instruct,-,10,"In this section, you will be presented with a series of objects. Please name as many possible uses for this object as you can think of by typing them in the box below each object.",,Instruct1,20771,,,-1,-1,,,,,1
j00697576_blw,5j5yty6moo,"Affordance Norms_South Alabama",1,2,2023-04-07T14:55:24+00:00,13.553712129593,54,"updated stim.csv",Version54.csv,"Version 54","List 54",,,,,,0,Instruct,-,10,"Please keep in mind that a single object will have more than one use. For example, a ball can be thrown or can be bounced or even stepped on. When listing multiple uses for one object, please separate each use with a comma (i.e., thrown, bounced, stepped on)",,Instruct2,13409,,,-1,-1,,,,,1
j00697576_blw,5j5yty6moo,"Affordance Norms_South Alabama",1,3,2023-04-07T14:55:29+00:00,5.8180239200592,54,"updated stim.csv",Version54.csv,"Version 54","List 54",,,,,,0,Instruct,-,-,"Before starting the experiment, you will complete a short practice sesstion. Press ENTER when you are ready to begin.",,Instruct3,5702,,,-1,-1,,,,,1
j00697576_blw,5j5yty6moo,"Affordance Norms_South Alabama",1,4,2023-04-07T14:56:06+00:00,36.94775390625,54,"updated stim.csv",Version54.csv,"Version 54","List 54",grain,,3004,5.217391304,1143,3005,BOI,-,-,"Please name all of the ways you could use this object. Keep in mind that one object can have many uses. Separate your responses with a comma.",,n,36781,,,2716,29908,,,,"baking, harvesting, eating",1
j00697576_blw,5j5yty6moo,"Affordance Norms_South Alabama",1,5,2023-04-07T14:56:41+00:00,34.887577056885,54,"updated stim.csv",Version54.csv,"Version 54","List 54",saucer,,3005,5.777777778,2249,3006,BOI,-,-,"Please name all of the ways you could use this object. Keep in mind that one object can have many uses. Separate your responses with a comma.",,n,34733,,,1729,23622,,,,"serving, holding, washing, breaking, placing, throwing",1
j00697576_blw,5j5yty6moo,"Affordance Norms_South Alabama",1,6,2023-04-07T14:57:59+00:00,77.864231109619,54,"updated stim.csv",Version54.csv,"Version 54","List 54",paperwork,,3001,5.625,1866,3002,BOI,-,-,"Please name all of the ways you could use this object. Keep in mind that one object can have many uses. Separate your responses with a comma.",,n,77709,,,1589,44839,,,,"filing, filling, reading, analyzing, organizing, submitting, compiling, ",1
j00697576_blw,5j5yty6moo,"Affordance Norms_South Alabama",1,7,2023-04-07T14:58:10+00:00,11.215487957001,54,"updated stim.csv",Version54.csv,"Version 54","List 54",spaghetti,,3003,6,2461,3004,BOI,-,-,"Please name all of the ways you could use this object. Keep in mind that one object can have many uses. Separate your responses with a comma.",,n,11094,,,1577,10299,,,,"eating, throwing, serving, making",1
j00697576_blw,5j5yty6moo,"Affordance Norms_South Alabama",1,8,2023-04-07T14:58:22+00:00,11.801292896271,54,"updated stim.csv",Version54.csv,"Version 54","List 54",shortening,,3002,4.92,2358,3003,BOI,-,-,"Please name all of the ways you could use this object. Keep in mind that one object can have many uses. Separate your responses with a comma.",,n,11692,,,2591,9171,,,,"frying, baking, cleaning",1
j00697576_blw,5j5yty6moo,"Affordance Norms_South Alabama",1,9,2023-04-07T14:58:24+00:00,2.0146291255951,54,"updated stim.csv",Version54.csv,"Version 54","List 54",,,,,,0,Instruct,-,-,"You have completed this section. Press ENTER to continue",,"Instruct 5",1899,,,-1,-1,,,,,1
j00697576_blw,5j5yty6moo,"Affordance Norms_South Alabama",1,10,2023-04-07T14:58:27+00:00,2.4392640590668,54,"updated stim.csv",Version54.csv,"Version 54","List 54",,,,,,0,Instruct,-,-,"You will now start the full experiment. Press ENTER when you are ready to begin.",,,2329,,,-1,-1,,,,,1
j00697576_blw,5j5yty6moo,"Affordance Norms_South Alabama",1,11,2023-04-07T14:59:16+00:00,49.074440002441,54,"updated stim.csv",Version54.csv,"Version 54","List 54",counselor,,1600,4.375,665,1601,BOI,-,-,"Please name all of the ways you could use this object. Keep in mind that one object can have many uses. Separate your responses with a comma.",,y,48911,,,2068,31769,,,,"talking, opening up, ",1
j00697576_blw,5j5yty6moo,"Affordance Norms_South Alabama",1,12,2023-04-07T14:59:47+00:00,31.315706968307,54,"updated stim.csv",Version54.csv,"Version 54","List 54",windbreaker,,1599,5.307692308,2941,1600,BOI,-,-,"Please name all of the ways you could use this object. Keep in mind that one object can have many uses. Separate your responses with a comma.",,y,31154,,,2381,29921,,,,"wearing, hanging, washing, giving away",1
j00697576_blw,5j5yty6moo,"Affordance Norms_South Alabama",1,13,2023-04-07T15:00:13+00:00,26.103121042252,54,"updated stim.csv",Version54.csv,"Version 54","List 54",flamethrower,,1611,4.740740741,997,1612,BOI,-,-,"Please name all of the ways you could use this object. Keep in mind that one object can have many uses. Separate your responses with a comma.",,y,25948,,,12856,23712,,,,"entertainment, discarding of trash",1
j00697576_blw,5j5yty6moo,"Affordance Norms_South Alabama",1,14,2023-04-07T15:01:20+00:00,66.545961856842,54,"updated stim.csv",Version54.csv,"Version 54","List 54",tapestry,,1613,4.565217391,2633,1614,BOI,-,-,"Please name all of the ways you could use this object. Keep in mind that one object can have many uses. Separate your responses with a comma.",,y,63355,,,2487,62897,,,,"hanging, decorating, painting, printing, selling",1
j00697576_blw,5j5yty6moo,"Affordance Norms_South Alabama",1,15,2023-04-07T15:02:03+00:00,43.231909990311,54,"updated stim.csv",Version54.csv,"Version 54","List 54",headboard,,1610,5.52,1264,1611,BOI,-,-,"Please name all of the ways you could use this object. Keep in mind that one object can have many uses. Separate your responses with a comma.",,y,43048,,,2860,39860,,,,"decorating, holds clothing, protects head from wall",1
j00697576_blw,5j5yty6moo,"Affordance Norms_South Alabama",1,16,2023-04-07T15:02:49+00:00,45.975121974945,54,"updated stim.csv",Version54.csv,"Version 54","List 54",videotape,,1614,5.44,2856,1615,BOI,-,-,"Please name all of the ways you could use this object. Keep in mind that one object can have many uses. Separate your responses with a comma.",,y,45810,,,1536,38183,,,,"watch, record, sell, copy, share, upload to computer",1
j00697576_blw,5j5yty6moo,"Affordance Norms_South Alabama",1,17,2023-04-07T15:03:38+00:00,49.637825012207,54,"updated stim.csv",Version54.csv,"Version 54","List 54",mushroom,,1591,5.333333333,1723,1592,BOI,-,-,"Please name all of the ways you could use this object. Keep in mind that one object can have many uses. Separate your responses with a comma.",,y,49461,,,1336,47338,,,,"eat, harvest, grow, look at, forage ",1
j00697576_blw,5j5yty6moo,"Affordance Norms_South Alabama",1,18,2023-04-07T15:04:24+00:00,45.813600063324,54,"updated stim.csv",Version54.csv,"Version 54","List 54",pecan,,1595,5.5,1899,1596,BOI,-,-,"Please name all of the ways you could use this object. Keep in mind that one object can have many uses. Separate your responses with a comma.",,y,45609,,,1819,40911,,,,"eat, grow, harvest, bake, chop, sprinkle, glaze, caramelize, ",1
j00697576_blw,5j5yty6moo,"Affordance Norms_South Alabama",1,19,2023-04-07T15:05:40+00:00,76.27926492691,54,"updated stim.csv",Version54.csv,"Version 54","List 54",lilly,,1615,4.590909091,1509,1616,BOI,-,-,"Please name all of the ways you could use this object. Keep in mind that one object can have many uses. Separate your responses with a comma.",,y,76078,,,3124,74259,,,,"plant, pick, make a bouquet, paint, admire, ",1
j00697576_blw,5j5yty6moo,"Affordance Norms_South Alabama",1,20,2023-04-07T15:06:21+00:00,40.503138065338,54,"updated stim.csv",Version54.csv,"Version 54","List 54",diamond,,1618,5.304347826,786,1619,BOI,-,-,"Please name all of the ways you could use this object. Keep in mind that one object can have many uses. Separate your responses with a comma.",,y,40295,,,3574,39661,,,,"cut, polish, place, mine, shine",1
j00697576_blw,5j5yty6moo,"Affordance Norms_South Alabama",1,21,2023-04-07T15:07:12+00:00,50.540196895599,54,"updated stim.csv",Version54.csv,"Version 54","List 54",chin,,1616,5.884615385,526,1617,BOI,-,-,"Please name all of the ways you could use this object. Keep in mind that one object can have many uses. Separate your responses with a comma.",,y,50334,,,1917,49709,,,,"hold, scratch, wipe, itch",1
j00697576_blw,5j5yty6moo,"Affordance Norms_South Alabama",1,22,2023-04-07T15:07:54+00:00,42.687153100967,54,"updated stim.csv",Version54.csv,"Version 54","List 54",thermostat,,1604,5.074074074,2678,1605,BOI,-,-,"Please name all of the ways you could use this object. Keep in mind that one object can have many uses. Separate your responses with a comma.",,y,42548,,,10998,39034,,,,"change, break",1
j00697576_blw,5j5yty6moo,"Affordance Norms_South Alabama",1,23,2023-04-07T15:08:51+00:00,56.619673013687,54,"updated stim.csv",Version54.csv,"Version 54","List 54",handball,,1607,5.75,1230,1608,BOI,-,-,"Please name all of the ways you could use this object. Keep in mind that one object can have many uses. Separate your responses with a comma.",,y,56437,,,1840,50136,,,,"throw, catch, dodge, hit, score",1
j00697576_blw,5j5yty6moo,"Affordance Norms_South Alabama",1,24,2023-04-07T15:09:38+00:00,47.072229862213,54,"updated stim.csv",Version54.csv,"Version 54","List 54",groceries,,1597,5.962962963,1178,1598,BOI,-,-,"Please name all of the ways you could use this object. Keep in mind that one object can have many uses. Separate your responses with a comma.",,y,46870,,,3443,44608,,,,"eat, put away, buy, spend, shop, make a list, cook",1
j00697576_blw,5j5yty6moo,"Affordance Norms_South Alabama",1,25,2023-04-07T15:09:45+00:00,6.9881501197815,54,"updated stim.csv",Version54.csv,"Version 54","List 54",hatband,,1606,5.16,1259,1607,BOI,-,-,"Please name all of the ways you could use this object. Keep in mind that one object can have many uses. Separate your responses with a comma.",,y,6860,,,3775,4918,,,,wear,1
j00697576_blw,5j5yty6moo,"Affordance Norms_South Alabama",1,26,2023-04-07T15:10:23+00:00,38.47282409668,54,"updated stim.csv",Version54.csv,"Version 54","List 54",crayfish,,1592,5.043478261,686,1593,BOI,-,-,"Please name all of the ways you could use this object. Keep in mind that one object can have many uses. Separate your responses with a comma.",,y,38280,,,3016,37604,,,,"swim, hunt, eat, look at",1
j00697576_blw,5j5yty6moo,"Affordance Norms_South Alabama",1,27,2023-04-07T15:10:46+00:00,22.816576957703,54,"updated stim.csv",Version54.csv,"Version 54","List 54",hammer,,1617,6.173913043,1223,1618,BOI,-,-,"Please name all of the ways you could use this object. Keep in mind that one object can have many uses. Separate your responses with a comma.",,y,22599,,,2882,22031,,,,"build, destroy, hammer",1
j00697576_blw,5j5yty6moo,"Affordance Norms_South Alabama",1,28,2023-04-07T15:11:09+00:00,22.666375875473,54,"updated stim.csv",Version54.csv,"Version 54","List 54",receptacle,,1602,4.863636364,2145,1603,BOI,-,-,"Please name all of the ways you could use this object. Keep in mind that one object can have many uses. Separate your responses with a comma.",,y,22407,,,8438,19005,,,,waiting,1
j00697576_blw,5j5yty6moo,"Affordance Norms_South Alabama",1,29,2023-04-07T15:12:21+00:00,71.773259162903,54,"updated stim.csv",Version54.csv,"Version 54","List 54",ferryboat,,1593,5.083333333,966,1594,BOI,-,-,"Please name all of the ways you could use this object. Keep in mind that one object can have many uses. Separate your responses with a comma.",,y,71584,,,6153,71051,,,,"carry, ride, float, sink, drive",1
j00697576_blw,5j5yty6moo,"Affordance Norms_South Alabama",1,30,2023-04-07T15:12:31+00:00,10.49245095253,54,"updated stim.csv",Version54.csv,"Version 54","List 54",cranberry,,1620,5.458333333,680,1621,BOI,-,-,"Please name all of the ways you could use this object. Keep in mind that one object can have many uses. Separate your responses with a comma.",,y,10367,,,1637,7437,,,,"eat, harvest, drink",1
j00697576_blw,5j5yty6moo,"Affordance Norms_South Alabama",1,31,2023-04-07T15:12:40+00:00,9.182550907135,54,"updated stim.csv",Version54.csv,"Version 54","List 54",stencil,,1609,5.583333333,2520,1610,BOI,-,-,"Please name all of the ways you could use this object. Keep in mind that one object can have many uses. Separate your responses with a comma.",,y,9040,,,1780,8334,,,,"stencil, draw, create",1
j00697576_blw,5j5yty6moo,"Affordance Norms_South Alabama",1,32,2023-04-07T15:13:19+00:00,39.010452032089,54,"updated stim.csv",Version54.csv,"Version 54","List 54",plug,,1608,5.875,2009,1609,BOI,-,-,"Please name all of the ways you could use this object. Keep in mind that one object can have many uses. Separate your responses with a comma.",,y,38856,,,7696,38376,,,,"hook wires up, break, spark",1
j00697576_blw,5j5yty6moo,"Affordance Norms_South Alabama",1,33,2023-04-07T15:14:15+00:00,55.51718211174,54,"updated stim.csv",Version54.csv,"Version 54","List 54",dad,,1594,5.416666667,744,1595,BOI,-,-,"Please name all of the ways you could use this object. Keep in mind that one object can have many uses. Separate your responses with a comma.",,y,55328,,,14613,54687,,,,"talk to, spend time with",1
j00697576_blw,5j5yty6moo,"Affordance Norms_South Alabama",1,34,2023-04-07T15:15:09+00:00,54.635934829712,54,"updated stim.csv",Version54.csv,"Version 54","List 54",coffeepot,,1612,6.037037037,593,1613,BOI,-,-,"Please name all of the ways you could use this object. Keep in mind that one object can have many uses. Separate your responses with a comma.",,y,54465,,,7495,14785,,,,"pour, wash, break",1
j00697576_blw,5j5yty6moo,"Affordance Norms_South Alabama",1,35,2023-04-07T15:15:48+00:00,38.073204994202,54,"updated stim.csv",Version54.csv,"Version 54","List 54",ankle,,1619,5.833333333,42,1620,BOI,-,-,"Please name all of the ways you could use this object. Keep in mind that one object can have many uses. Separate your responses with a comma.",,y,37858,,,2235,37266,,,,"twist, walk, break, sprain",1
j00697576_blw,5j5yty6moo,"Affordance Norms_South Alabama",1,36,2023-04-07T15:15:53+00:00,5.2170920372009,54,"updated stim.csv",Version54.csv,"Version 54","List 54",kiln,,1605,4.304347826,1417,1606,BOI,-,-,"Please name all of the ways you could use this object. Keep in mind that one object can have many uses. Separate your responses with a comma.",,y,5067,,,2011,4628,,,,"fire, creat",1
j00697576_blw,5j5yty6moo,"Affordance Norms_South Alabama",1,37,2023-04-07T15:16:12+00:00,18.79096698761,54,"updated stim.csv",Version54.csv,"Version 54","List 54",icebox,,1596,5.181818182,1346,1597,BOI,-,-,"Please name all of the ways you could use this object. Keep in mind that one object can have many uses. Separate your responses with a comma.",,y,18643,,,8529,18300,,,,"freeze, store, install ",1
j00697576_blw,5j5yty6moo,"Affordance Norms_South Alabama",1,38,2023-04-07T15:16:46+00:00,34.216513156891,54,"updated stim.csv",Version54.csv,"Version 54","List 54",eyeglass,,1598,5.958333333,933,1599,BOI,-,-,"Please name all of the ways you could use this object. Keep in mind that one object can have many uses. Separate your responses with a comma.",,y,34068,,,1360,16520,,,,"wear, see, break, try on, ",1
j00697576_blw,5j5yty6moo,"Affordance Norms_South Alabama",1,39,2023-04-07T15:17:04+00:00,18.48793387413,54,"updated stim.csv",Version54.csv,"Version 54","List 54",trophy,,1601,4.916666667,2782,1602,BOI,-,-,"Please name all of the ways you could use this object. Keep in mind that one object can have many uses. Separate your responses with a comma.",,y,18366,,,2682,16438,,,,"win, show off, store",1
j00697576_blw,5j5yty6moo,"Affordance Norms_South Alabama",1,40,2023-04-07T15:18:04+00:00,59.907472133636,54,"updated stim.csv",Version54.csv,"Version 54","List 54",den,,1603,4.333333333,772,1604,BOI,-,-,"Please name all of the ways you could use this object. Keep in mind that one object can have many uses. Separate your responses with a comma.",,y,59740,,,1676,57618,,,,"relax in, decorate, clean, play in, watch tv in, host events, play video games",1
j00697576_blw,5j5yty6moo,"Affordance Norms_South Alabama",1,41,2023-04-07T15:18:07+00:00,2.7298419475555,54,"updated stim.csv",Version54.csv,"Version 54","List 54",,,,,,0,Instruct,,,"You will now be asked a few questions about your experience today.",,"Instruct 4",2607,,,-1,-1,,,,,1
