Username,ID,ExperimentName,Session,Trial,Date,TimeDif,"Condition Number","Stimuli File","Order File","Condition Description","Condition Notes",Stimuli*Cue,Stimuli*Answer,Stimuli*Shuffle,"Stimuli*Stimuli Notes",Stimuli*Value,Procedure*Item,"Procedure*Trial Type","Procedure*Max Time","Procedure*Min Time",Procedure*Text,"Procedure*Procedure Notes",Procedure*Shuffle,Response*RT,Response*Response,Response*Accuracy,Response*RTfirst,Response*RTlast,Response*strictAcc,Response*lenientAcc,Response*focus,Response*JOL,Response*Focus
J00715311,1szlpx6fg1,"Affordance Norms_South Alabama",1,1,2023-03-31T22:06:15+00:00,12.577570915222,27,"updated stim.csv",Version27.csv,"Version 27","List 27",,,,,,0,Instruct,-,10,"In this section, you will be presented with a series of objects. Please name as many possible uses for this object as you can think of by typing them in the box below each object.",,Instruct1,12483,,,-1,-1,,,,,1
J00715311,1szlpx6fg1,"Affordance Norms_South Alabama",1,2,2023-03-31T22:06:26+00:00,11.132063150406,27,"updated stim.csv",Version27.csv,"Version 27","List 27",,,,,,0,Instruct,-,10,"Please keep in mind that a single object will have more than one use. For example, a ball can be thrown or can be bounced or even stepped on. When listing multiple uses for one object, please separate each use with a comma (i.e., thrown, bounced, stepped on)",,Instruct2,11012,,,-1,-1,,,,,1
J00715311,1szlpx6fg1,"Affordance Norms_South Alabama",1,3,2023-03-31T22:06:29+00:00,2.7004470825195,27,"updated stim.csv",Version27.csv,"Version 27","List 27",,,,,,0,Instruct,-,-,"Before starting the experiment, you will complete a short practice sesstion. Press ENTER when you are ready to begin.",,Instruct3,2629,,,-1,-1,,,,,1
J00715311,1szlpx6fg1,"Affordance Norms_South Alabama",1,4,2023-03-31T22:06:47+00:00,18.502363920212,27,"updated stim.csv",Version27.csv,"Version 27","List 27",paperwork,,3001,5.625,1866,3002,BOI,-,-,"Please name all of the ways you could use this object. Keep in mind that one object can have many uses. Separate your responses with a comma.",,n,18381,,,1545,17651,,,,"office, school, information",1
J00715311,1szlpx6fg1,"Affordance Norms_South Alabama",1,5,2023-03-31T22:07:04+00:00,17.04047703743,27,"updated stim.csv",Version27.csv,"Version 27","List 27",spaghetti,,3003,6,2461,3004,BOI,-,-,"Please name all of the ways you could use this object. Keep in mind that one object can have many uses. Separate your responses with a comma.",,n,16894,,,1251,4812,,,,"eat, food, pasta, ",1
J00715311,1szlpx6fg1,"Affordance Norms_South Alabama",1,6,2023-03-31T22:07:19+00:00,14.431162834167,27,"updated stim.csv",Version27.csv,"Version 27","List 27",saucer,,3005,5.777777778,2249,3006,BOI,-,-,"Please name all of the ways you could use this object. Keep in mind that one object can have many uses. Separate your responses with a comma.",,n,14228,,,3249,14143,,,,"plate, silverware, fancy, glass",1
J00715311,1szlpx6fg1,"Affordance Norms_South Alabama",1,7,2023-03-31T22:07:31+00:00,11.637523174286,27,"updated stim.csv",Version27.csv,"Version 27","List 27",grain,,3004,5.217391304,1143,3005,BOI,-,-,"Please name all of the ways you could use this object. Keep in mind that one object can have many uses. Separate your responses with a comma.",,n,11418,,,1416,4553,,,,"food, sand,",1
J00715311,1szlpx6fg1,"Affordance Norms_South Alabama",1,8,2023-03-31T22:08:33+00:00,62.593986988068,27,"updated stim.csv",Version27.csv,"Version 27","List 27",shortening,,3002,4.92,2358,3003,BOI,-,-,"Please name all of the ways you could use this object. Keep in mind that one object can have many uses. Separate your responses with a comma.",,n,62428,,,1351,61827,,,,"cooking, baking, shortcake,",1
J00715311,1szlpx6fg1,"Affordance Norms_South Alabama",1,9,2023-03-31T22:08:35+00:00,1.440584897995,27,"updated stim.csv",Version27.csv,"Version 27","List 27",,,,,,0,Instruct,-,-,"You have completed this section. Press ENTER to continue",,"Instruct 5",1348,,,-1,-1,,,,,1
J00715311,1szlpx6fg1,"Affordance Norms_South Alabama",1,10,2023-03-31T22:08:42+00:00,7.7521870136261,27,"updated stim.csv",Version27.csv,"Version 27","List 27",,,,,,0,Instruct,-,-,"You will now start the full experiment. Press ENTER when you are ready to begin.",,,7609,,,-1,-1,,,,,1
J00715311,1szlpx6fg1,"Affordance Norms_South Alabama",1,11,2023-03-31T22:08:52+00:00,9.9891850948334,27,"updated stim.csv",Version27.csv,"Version 27","List 27",daiquiri,,799,5.454545455,749,800,BOI,-,-,"Please name all of the ways you could use this object. Keep in mind that one object can have many uses. Separate your responses with a comma.",,y,9839,,,1365,9593,,,,"liquor, ice, strawberry, drinl",1
J00715311,1szlpx6fg1,"Affordance Norms_South Alabama",1,12,2023-03-31T22:09:05+00:00,12.375977039337,27,"updated stim.csv",Version27.csv,"Version 27","List 27",bunkmate,,791,4.458333333,362,792,BOI,-,-,"Please name all of the ways you could use this object. Keep in mind that one object can have many uses. Separate your responses with a comma.",,y,12174,,,1957,8588,,,,"dorm, friend, ",1
J00715311,1szlpx6fg1,"Affordance Norms_South Alabama",1,13,2023-03-31T22:09:07+00:00,2.1571269035339,27,"updated stim.csv",Version27.csv,"Version 27","List 27",vermicelli,,806,5.571428571,2850,807,BOI,-,-,"Please name all of the ways you could use this object. Keep in mind that one object can have many uses. Separate your responses with a comma.",,y,2032,,,-1,-1,,,,,1
J00715311,1szlpx6fg1,"Affordance Norms_South Alabama",1,14,2023-03-31T22:09:20+00:00,12.99623799324,27,"updated stim.csv",Version27.csv,"Version 27","List 27",fondue,,794,4.92,1026,795,BOI,-,-,"Please name all of the ways you could use this object. Keep in mind that one object can have many uses. Separate your responses with a comma.",,y,12831,,,1732,12661,,,,"fruit, chocolate, butter, snacks, dinner",1
J00715311,1szlpx6fg1,"Affordance Norms_South Alabama",1,15,2023-03-31T22:09:35+00:00,14.784992933273,27,"updated stim.csv",Version27.csv,"Version 27","List 27",housekeeper,,801,4.458333333,1331,802,BOI,-,-,"Please name all of the ways you could use this object. Keep in mind that one object can have many uses. Separate your responses with a comma.",,y,14628,,,2281,6189,,,,"rich, luxury, ",1
J00715311,1szlpx6fg1,"Affordance Norms_South Alabama",1,16,2023-03-31T22:09:44+00:00,9.0953669548035,27,"updated stim.csv",Version27.csv,"Version 27","List 27",receipts,,795,5.04,2144,796,BOI,-,-,"Please name all of the ways you could use this object. Keep in mind that one object can have many uses. Separate your responses with a comma.",,y,8951,,,1767,8608,,,,"store, paper, monet",1
J00715311,1szlpx6fg1,"Affordance Norms_South Alabama",1,17,2023-03-31T22:09:53+00:00,9.6455950737,27,"updated stim.csv",Version27.csv,"Version 27","List 27",bug,,787,5.296296296,347,788,BOI,-,-,"Please name all of the ways you could use this object. Keep in mind that one object can have many uses. Separate your responses with a comma.",,y,9486,,,2227,9340,,,,"gross, outside, small, big",1
J00715311,1szlpx6fg1,"Affordance Norms_South Alabama",1,18,2023-03-31T22:10:04+00:00,10.190096139908,27,"updated stim.csv",Version27.csv,"Version 27","List 27",marshmallow,,797,6.173913043,1611,798,BOI,-,-,"Please name all of the ways you could use this object. Keep in mind that one object can have many uses. Separate your responses with a comma.",,y,10026,,,1550,9846,,,,"white, fluffy, sugar, sweet",1
J00715311,1szlpx6fg1,"Affordance Norms_South Alabama",1,19,2023-03-31T22:10:17+00:00,13.178657770157,27,"updated stim.csv",Version27.csv,"Version 27","List 27",skin,,789,6.16,2399,790,BOI,-,-,"Please name all of the ways you could use this object. Keep in mind that one object can have many uses. Separate your responses with a comma.",,y,12993,,,1179,12546,,,,"white, dry, thick, thin, ",1
J00715311,1szlpx6fg1,"Affordance Norms_South Alabama",1,20,2023-03-31T22:10:23+00:00,6.1993691921234,27,"updated stim.csv",Version27.csv,"Version 27","List 27",Grasshopper,,810,4.753721245,1161,811,BOI,-,-,"Please name all of the ways you could use this object. Keep in mind that one object can have many uses. Separate your responses with a comma.",,y,6027,,,1076,5811,,,,"green, night animal",1
J00715311,1szlpx6fg1,"Affordance Norms_South Alabama",1,21,2023-03-31T22:10:27+00:00,3.6744918823242,27,"updated stim.csv",Version27.csv,"Version 27","List 27",intercom,,809,4.695652174,1363,810,BOI,-,-,"Please name all of the ways you could use this object. Keep in mind that one object can have many uses. Separate your responses with a comma.",,y,3577,,,1417,3375,,,,"loud, school",1
J00715311,1szlpx6fg1,"Affordance Norms_South Alabama",1,22,2023-03-31T22:10:30+00:00,3.1585071086884,27,"updated stim.csv",Version27.csv,"Version 27","List 27",kaleidoscope,,784,5.84,1400,785,BOI,-,-,"Please name all of the ways you could use this object. Keep in mind that one object can have many uses. Separate your responses with a comma.",,y,3074,,,1619,2837,,,,colorful,1
J00715311,1szlpx6fg1,"Affordance Norms_South Alabama",1,23,2023-03-31T22:10:43+00:00,13.649689912796,27,"updated stim.csv",Version27.csv,"Version 27","List 27",bum,,782,4.346153846,357,783,BOI,-,-,"Please name all of the ways you could use this object. Keep in mind that one object can have many uses. Separate your responses with a comma.",,y,13366,,,2134,13226,,,,"sun, lazy, dirty",1
J00715311,1szlpx6fg1,"Affordance Norms_South Alabama",1,24,2023-03-31T22:10:51+00:00,7.5508289337158,27,"updated stim.csv",Version27.csv,"Version 27","List 27",apricot,,808,6.291666667,66,809,BOI,-,-,"Please name all of the ways you could use this object. Keep in mind that one object can have many uses. Separate your responses with a comma.",,y,7143,,,1740,6952,,,,"orange, fruit, dried, tropical",1
J00715311,1szlpx6fg1,"Affordance Norms_South Alabama",1,25,2023-03-31T22:10:55+00:00,4.3409361839294,27,"updated stim.csv",Version27.csv,"Version 27","List 27",billfold,,793,5.444444444,215,794,BOI,-,-,"Please name all of the ways you could use this object. Keep in mind that one object can have many uses. Separate your responses with a comma.",,y,4172,,,1752,2657,,,,"money, ",1
J00715311,1szlpx6fg1,"Affordance Norms_South Alabama",1,26,2023-03-31T22:10:59+00:00,3.6756238937378,27,"updated stim.csv",Version27.csv,"Version 27","List 27",breastbone,,785,5.318181818,313,786,BOI,-,-,"Please name all of the ways you could use this object. Keep in mind that one object can have many uses. Separate your responses with a comma.",,y,3550,,,2789,3410,,,,female,1
J00715311,1szlpx6fg1,"Affordance Norms_South Alabama",1,27,2023-03-31T22:11:05+00:00,6.3867490291595,27,"updated stim.csv",Version27.csv,"Version 27","List 27",cherry,,804,5.454545455,511,805,BOI,-,-,"Please name all of the ways you could use this object. Keep in mind that one object can have many uses. Separate your responses with a comma.",,y,6146,,,1095,6013,,,,"red, sweet, fruit",1
J00715311,1szlpx6fg1,"Affordance Norms_South Alabama",1,28,2023-03-31T22:11:10+00:00,4.9483110904694,27,"updated stim.csv",Version27.csv,"Version 27","List 27",flagpole,,802,4.785714286,996,803,BOI,-,-,"Please name all of the ways you could use this object. Keep in mind that one object can have many uses. Separate your responses with a comma.",,y,4679,,,1442,4544,,,,"straight, outside",1
J00715311,1szlpx6fg1,"Affordance Norms_South Alabama",1,29,2023-03-31T22:11:21+00:00,10.280227899551,27,"updated stim.csv",Version27.csv,"Version 27","List 27",fridge,,786,6.166666667,1056,787,BOI,-,-,"Please name all of the ways you could use this object. Keep in mind that one object can have many uses. Separate your responses with a comma.",,y,9894,,,1230,9765,,,,"cold, large, kitchen, holds food",1
J00715311,1szlpx6fg1,"Affordance Norms_South Alabama",1,30,2023-03-31T22:11:27+00:00,6.4315509796143,27,"updated stim.csv",Version27.csv,"Version 27","List 27",electronics,,783,5.12,899,784,BOI,-,-,"Please name all of the ways you could use this object. Keep in mind that one object can have many uses. Separate your responses with a comma.",,y,6208,,,1841,5997,,,,"phone, email, laptop",1
J00715311,1szlpx6fg1,"Affordance Norms_South Alabama",1,31,2023-03-31T22:11:38+00:00,11.104886054993,27,"updated stim.csv",Version27.csv,"Version 27","List 27",subway,,805,5,2577,806,BOI,-,-,"Please name all of the ways you could use this object. Keep in mind that one object can have many uses. Separate your responses with a comma.",,y,10939,,,1828,10745,,,,"train, transportation, food restaurant ",1
J00715311,1szlpx6fg1,"Affordance Norms_South Alabama",1,32,2023-03-31T22:11:49+00:00,10.721116065979,27,"updated stim.csv",Version27.csv,"Version 27","List 27",appliance,,807,5.791666667,62,808,BOI,-,-,"Please name all of the ways you could use this object. Keep in mind that one object can have many uses. Separate your responses with a comma.",,y,10531,,,2653,10344,,,,"kitchen, living room, house, essential ",1
J00715311,1szlpx6fg1,"Affordance Norms_South Alabama",1,33,2023-03-31T22:12:11+00:00,22.54838681221,27,"updated stim.csv",Version27.csv,"Version 27","List 27",gambler,,792,4.416666667,1070,793,BOI,-,-,"Please name all of the ways you could use this object. Keep in mind that one object can have many uses. Separate your responses with a comma.",,y,22363,,,7123,22226,,,,"money, addiction, Las Vegas, poker",1
J00715311,1szlpx6fg1,"Affordance Norms_South Alabama",1,34,2023-03-31T22:12:18+00:00,6.2935111522675,27,"updated stim.csv",Version27.csv,"Version 27","List 27",mothball,,796,5.12,1691,797,BOI,-,-,"Please name all of the ways you could use this object. Keep in mind that one object can have many uses. Separate your responses with a comma.",,y,6137,,,2501,5882,,,,"animal, laundry",1
J00715311,1szlpx6fg1,"Affordance Norms_South Alabama",1,35,2023-03-31T22:12:26+00:00,8.4348900318146,27,"updated stim.csv",Version27.csv,"Version 27","List 27",scythe,,803,4.727272727,2293,804,BOI,-,-,"Please name all of the ways you could use this object. Keep in mind that one object can have many uses. Separate your responses with a comma.",,y,8264,,,-1,-1,,,,,1
J00715311,1szlpx6fg1,"Affordance Norms_South Alabama",1,36,2023-03-31T22:12:31+00:00,5.023090839386,27,"updated stim.csv",Version27.csv,"Version 27","List 27",townsfolk,,798,4.583333333,2748,799,BOI,-,-,"Please name all of the ways you could use this object. Keep in mind that one object can have many uses. Separate your responses with a comma.",,y,4785,,,1535,4243,,,,"old, decades, ",1
J00715311,1szlpx6fg1,"Affordance Norms_South Alabama",1,37,2023-03-31T22:12:37+00:00,5.5946609973907,27,"updated stim.csv",Version27.csv,"Version 27","List 27",father,,788,6.035714286,951,789,BOI,-,-,"Please name all of the ways you could use this object. Keep in mind that one object can have many uses. Separate your responses with a comma.",,y,5361,,,1215,4456,,,,"dad, parent, ",1
J00715311,1szlpx6fg1,"Affordance Norms_South Alabama",1,38,2023-03-31T22:12:48+00:00,10.796904087067,27,"updated stim.csv",Version27.csv,"Version 27","List 27",sedative,,800,4.416666667,2307,801,BOI,-,-,"Please name all of the ways you could use this object. Keep in mind that one object can have many uses. Separate your responses with a comma.",,y,10548,,,2006,10379,,,,"tired, drug, addicitive ",1
J00715311,1szlpx6fg1,"Affordance Norms_South Alabama",1,39,2023-03-31T22:12:50+00:00,2.7122409343719,27,"updated stim.csv",Version27.csv,"Version 27","List 27",foxhound,,781,4.347826087,1052,782,BOI,-,-,"Please name all of the ways you could use this object. Keep in mind that one object can have many uses. Separate your responses with a comma.",,y,2610,,,1776,2354,,,,animal,1
J00715311,1szlpx6fg1,"Affordance Norms_South Alabama",1,40,2023-03-31T22:13:01+00:00,10.394221067429,27,"updated stim.csv",Version27.csv,"Version 27","List 27",lingerie,,790,5.72,1518,791,BOI,-,-,"Please name all of the ways you could use this object. Keep in mind that one object can have many uses. Separate your responses with a comma.",,y,10158,,,1256,10009,,,,sex,1
J00715311,1szlpx6fg1,"Affordance Norms_South Alabama",1,41,2023-03-31T22:13:03+00:00,1.9468698501587,27,"updated stim.csv",Version27.csv,"Version 27","List 27",,,,,,0,Instruct,,,"You will now be asked a few questions about your experience today.",,"Instruct 4",1812,,,-1,-1,,,,,1
