Username,ID,ExperimentName,Session,Trial,Date,TimeDif,"Condition Number","Stimuli File","Order File","Condition Description","Condition Notes",Stimuli*Cue,Stimuli*Answer,Stimuli*Shuffle,"Stimuli*Stimuli Notes",Stimuli*Value,Procedure*Item,"Procedure*Trial Type","Procedure*Max Time","Procedure*Min Time",Procedure*Text,"Procedure*Procedure Notes",Procedure*Shuffle,Response*RT,Response*Response,Response*Accuracy,Response*RTfirst,Response*RTlast,Response*strictAcc,Response*lenientAcc,Response*focus,Response*JOL,Response*Focus
J00716294_djj,ffzzkb83nl,"Affordance Norms_South Alabama",1,1,2023-04-12T02:59:12+00:00,10.637838125229,75,"updated stim.csv",Version75.csv,"Version 75","List 75",,,,,,0,Instruct,-,10,"In this section, you will be presented with a series of objects. Please name as many possible uses for this object as you can think of by typing them in the box below each object.",,Instruct1,10325,,,-1,-1,,,,,1
J00716294_djj,ffzzkb83nl,"Affordance Norms_South Alabama",1,2,2023-04-12T02:59:25+00:00,12.729960918427,75,"updated stim.csv",Version75.csv,"Version 75","List 75",,,,,,0,Instruct,-,10,"Please keep in mind that a single object will have more than one use. For example, a ball can be thrown or can be bounced or even stepped on. When listing multiple uses for one object, please separate each use with a comma (i.e., thrown, bounced, stepped on)",,Instruct2,11892,,,-1,-1,,,,,1
J00716294_djj,ffzzkb83nl,"Affordance Norms_South Alabama",1,3,2023-04-12T02:59:31+00:00,5.7685339450836,75,"updated stim.csv",Version75.csv,"Version 75","List 75",,,,,,0,Instruct,-,-,"Before starting the experiment, you will complete a short practice sesstion. Press ENTER when you are ready to begin.",,Instruct3,5390,,,-1,-1,,,,,1
J00716294_djj,ffzzkb83nl,"Affordance Norms_South Alabama",1,4,2023-04-12T02:59:40+00:00,9.5674960613251,75,"updated stim.csv",Version75.csv,"Version 75","List 75",saucer,,3005,5.777777778,2249,3006,BOI,-,-,"Please name all of the ways you could use this object. Keep in mind that one object can have many uses. Separate your responses with a comma.",,n,9125,,,5446,8173,,,,"hold a cup",1
J00716294_djj,ffzzkb83nl,"Affordance Norms_South Alabama",1,5,2023-04-12T02:59:44+00:00,3.3642771244049,75,"updated stim.csv",Version75.csv,"Version 75","List 75",spaghetti,,3003,6,2461,3004,BOI,-,-,"Please name all of the ways you could use this object. Keep in mind that one object can have many uses. Separate your responses with a comma.",,n,3139,,,1851,2230,,,,eat,1
J00716294_djj,ffzzkb83nl,"Affordance Norms_South Alabama",1,6,2023-04-12T02:59:53+00:00,9.3679718971252,75,"updated stim.csv",Version75.csv,"Version 75","List 75",shortening,,3002,4.92,2358,3003,BOI,-,-,"Please name all of the ways you could use this object. Keep in mind that one object can have many uses. Separate your responses with a comma.",,n,8989,,,4650,8440,,,,"cut time off",1
J00716294_djj,ffzzkb83nl,"Affordance Norms_South Alabama",1,7,2023-04-12T03:00:00+00:00,7.138729095459,75,"updated stim.csv",Version75.csv,"Version 75","List 75",paperwork,,3001,5.625,1866,3002,BOI,-,-,"Please name all of the ways you could use this object. Keep in mind that one object can have many uses. Separate your responses with a comma.",,n,6735,,,1995,5679,,,,grading,1
J00716294_djj,ffzzkb83nl,"Affordance Norms_South Alabama",1,8,2023-04-12T03:00:08+00:00,8.121052980423,75,"updated stim.csv",Version75.csv,"Version 75","List 75",grain,,3004,5.217391304,1143,3005,BOI,-,-,"Please name all of the ways you could use this object. Keep in mind that one object can have many uses. Separate your responses with a comma.",,n,7696,,,5968,6854,,,,food,1
J00716294_djj,ffzzkb83nl,"Affordance Norms_South Alabama",1,9,2023-04-12T03:00:10+00:00,1.4891798496246,75,"updated stim.csv",Version75.csv,"Version 75","List 75",,,,,,0,Instruct,-,-,"You have completed this section. Press ENTER to continue",,"Instruct 5",1263,,,-1,-1,,,,,1
J00716294_djj,ffzzkb83nl,"Affordance Norms_South Alabama",1,10,2023-04-12T03:00:11+00:00,1.0111880302429,75,"updated stim.csv",Version75.csv,"Version 75","List 75",,,,,,0,Instruct,-,-,"You will now start the full experiment. Press ENTER when you are ready to begin.",,,767,,,-1,-1,,,,,1
J00716294_djj,ffzzkb83nl,"Affordance Norms_South Alabama",1,11,2023-04-12T03:00:15+00:00,3.6890871524811,75,"updated stim.csv",Version75.csv,"Version 75","List 75",vehicle,,2239,6.173913043,2843,2240,BOI,-,-,"Please name all of the ways you could use this object. Keep in mind that one object can have many uses. Separate your responses with a comma.",,y,3437,,,1515,2744,,,,drive,1
J00716294_djj,ffzzkb83nl,"Affordance Norms_South Alabama",1,12,2023-04-12T03:00:23+00:00,8.7313919067383,75,"updated stim.csv",Version75.csv,"Version 75","List 75",pottery,,2241,5.458333333,2050,2242,BOI,-,-,"Please name all of the ways you could use this object. Keep in mind that one object can have many uses. Separate your responses with a comma.",,y,8265,,,1966,7187,,,,"art, decoration",1
J00716294_djj,ffzzkb83nl,"Affordance Norms_South Alabama",1,13,2023-04-12T03:00:35+00:00,11.820209026337,75,"updated stim.csv",Version75.csv,"Version 75","List 75",lice,,2229,5,1500,2230,BOI,-,-,"Please name all of the ways you could use this object. Keep in mind that one object can have many uses. Separate your responses with a comma.",,y,11364,,,9895,10745,,,,none,1
J00716294_djj,ffzzkb83nl,"Affordance Norms_South Alabama",1,14,2023-04-12T03:00:40+00:00,4.5335340499878,75,"updated stim.csv",Version75.csv,"Version 75","List 75",metalworker,,2230,4.8,1651,2231,BOI,-,-,"Please name all of the ways you could use this object. Keep in mind that one object can have many uses. Separate your responses with a comma.",,y,4066,,,2789,3290,,,,job,1
J00716294_djj,ffzzkb83nl,"Affordance Norms_South Alabama",1,15,2023-04-12T03:00:42+00:00,2.848217010498,75,"updated stim.csv",Version75.csv,"Version 75","List 75",quiche,,2233,5.727272727,2114,2234,BOI,-,-,"Please name all of the ways you could use this object. Keep in mind that one object can have many uses. Separate your responses with a comma.",,y,2490,,,-1,-1,,,,,1
J00716294_djj,ffzzkb83nl,"Affordance Norms_South Alabama",1,16,2023-04-12T03:00:44+00:00,2.0497028827667,75,"updated stim.csv",Version75.csv,"Version 75","List 75",lavatory,,2249,5.620689655,1473,2250,BOI,-,-,"Please name all of the ways you could use this object. Keep in mind that one object can have many uses. Separate your responses with a comma.",,y,1819,,,-1,-1,,,,,1
J00716294_djj,ffzzkb83nl,"Affordance Norms_South Alabama",1,17,2023-04-12T03:00:51+00:00,6.2968261241913,75,"updated stim.csv",Version75.csv,"Version 75","List 75",mousetrap,,2226,4.916666667,1702,2227,BOI,-,-,"Please name all of the ways you could use this object. Keep in mind that one object can have many uses. Separate your responses with a comma.",,y,5746,,,2089,5011,,,,"catch mouse",1
J00716294_djj,ffzzkb83nl,"Affordance Norms_South Alabama",1,18,2023-04-12T03:00:57+00:00,6.1045207977295,75,"updated stim.csv",Version75.csv,"Version 75","List 75",kindle,,2243,4.4,1420,2244,BOI,-,-,"Please name all of the ways you could use this object. Keep in mind that one object can have many uses. Separate your responses with a comma.",,y,5644,,,4009,4483,,,,read,1
J00716294_djj,ffzzkb83nl,"Affordance Norms_South Alabama",1,19,2023-04-12T03:01:01+00:00,4.0282030105591,75,"updated stim.csv",Version75.csv,"Version 75","List 75",veterinarian,,2231,5.074074074,2854,2232,BOI,-,-,"Please name all of the ways you could use this object. Keep in mind that one object can have many uses. Separate your responses with a comma.",,y,3774,,,2094,2886,,,,pets,1
J00716294_djj,ffzzkb83nl,"Affordance Norms_South Alabama",1,20,2023-04-12T03:01:04+00:00,3.5098841190338,75,"updated stim.csv",Version75.csv,"Version 75","List 75",primate,,2236,4.375,2063,2237,BOI,-,-,"Please name all of the ways you could use this object. Keep in mind that one object can have many uses. Separate your responses with a comma.",,y,3266,,,-1,-1,,,,,1
J00716294_djj,ffzzkb83nl,"Affordance Norms_South Alabama",1,21,2023-04-12T03:01:08+00:00,3.3810420036316,75,"updated stim.csv",Version75.csv,"Version 75","List 75",cheddar,,2246,5.291666667,502,2247,BOI,-,-,"Please name all of the ways you could use this object. Keep in mind that one object can have many uses. Separate your responses with a comma.",,y,3151,,,1743,2326,,,,food,1
J00716294_djj,ffzzkb83nl,"Affordance Norms_South Alabama",1,22,2023-04-12T03:01:12+00:00,3.8466489315033,75,"updated stim.csv",Version75.csv,"Version 75","List 75",ingredients,,2227,4.958333333,1355,2228,BOI,-,-,"Please name all of the ways you could use this object. Keep in mind that one object can have many uses. Separate your responses with a comma.",,y,3625,,,1600,2724,,,,cooking,1
J00716294_djj,ffzzkb83nl,"Affordance Norms_South Alabama",1,23,2023-04-12T03:01:16+00:00,4.5016260147095,75,"updated stim.csv",Version75.csv,"Version 75","List 75",denim,,2238,5.416666667,773,2239,BOI,-,-,"Please name all of the ways you could use this object. Keep in mind that one object can have many uses. Separate your responses with a comma.",,y,4069,,,2014,3507,,,,clothes,1
J00716294_djj,ffzzkb83nl,"Affordance Norms_South Alabama",1,24,2023-04-12T03:01:24+00:00,8.0854229927063,75,"updated stim.csv",Version75.csv,"Version 75","List 75",substance,,2240,4.47826087,2576,2241,BOI,-,-,"Please name all of the ways you could use this object. Keep in mind that one object can have many uses. Separate your responses with a comma.",,y,7593,,,3322,6633,,,,science,1
J00716294_djj,ffzzkb83nl,"Affordance Norms_South Alabama",1,25,2023-04-12T03:01:29+00:00,5.1042768955231,75,"updated stim.csv",Version75.csv,"Version 75","List 75",model,,2235,5.086956522,1674,2236,BOI,-,-,"Please name all of the ways you could use this object. Keep in mind that one object can have many uses. Separate your responses with a comma.",,y,4600,,,2093,3908,,,,pictures,1
J00716294_djj,ffzzkb83nl,"Affordance Norms_South Alabama",1,26,2023-04-12T03:01:35+00:00,5.3731911182404,75,"updated stim.csv",Version75.csv,"Version 75","List 75",housefly,,2245,4.541666667,1330,2246,BOI,-,-,"Please name all of the ways you could use this object. Keep in mind that one object can have many uses. Separate your responses with a comma.",,y,4950,,,2942,3749,,,,swat,1
J00716294_djj,ffzzkb83nl,"Affordance Norms_South Alabama",1,27,2023-04-12T03:01:37+00:00,2.7743549346924,75,"updated stim.csv",Version75.csv,"Version 75","List 75",fudge,,2224,5.68,1063,2225,BOI,-,-,"Please name all of the ways you could use this object. Keep in mind that one object can have many uses. Separate your responses with a comma.",,y,2524,,,1189,1442,,,,eat,1
J00716294_djj,ffzzkb83nl,"Affordance Norms_South Alabama",1,28,2023-04-12T03:01:38+00:00,0.94277811050415,75,"updated stim.csv",Version75.csv,"Version 75","List 75",shinbone,,2222,4.826086957,2340,2223,BOI,-,-,"Please name all of the ways you could use this object. Keep in mind that one object can have many uses. Separate your responses with a comma.",,y,697,,,-1,-1,,,,,1
J00716294_djj,ffzzkb83nl,"Affordance Norms_South Alabama",1,29,2023-04-12T03:01:41+00:00,2.5679688453674,75,"updated stim.csv",Version75.csv,"Version 75","List 75",cookhouse,,2237,4.423076923,632,2238,BOI,-,-,"Please name all of the ways you could use this object. Keep in mind that one object can have many uses. Separate your responses with a comma.",,y,2306,,,-1,-1,,,,,1
J00716294_djj,ffzzkb83nl,"Affordance Norms_South Alabama",1,30,2023-04-12T03:01:47+00:00,6.2248980998993,75,"updated stim.csv",Version75.csv,"Version 75","List 75",rattle,,2248,4.409090909,2140,2249,BOI,-,-,"Please name all of the ways you could use this object. Keep in mind that one object can have many uses. Separate your responses with a comma.",,y,5764,,,4556,4943,,,,baby,1
J00716294_djj,ffzzkb83nl,"Affordance Norms_South Alabama",1,31,2023-04-12T03:01:57+00:00,9.6138699054718,75,"updated stim.csv",Version75.csv,"Version 75","List 75",anchor,,2232,5.739130435,39,2233,BOI,-,-,"Please name all of the ways you could use this object. Keep in mind that one object can have many uses. Separate your responses with a comma.",,y,9180,,,3406,8475,,,,"stop something from moving",1
J00716294_djj,ffzzkb83nl,"Affordance Norms_South Alabama",1,32,2023-04-12T03:02:03+00:00,6.600848197937,75,"updated stim.csv",Version75.csv,"Version 75","List 75",doornail,,2244,5.4,827,2245,BOI,-,-,"Please name all of the ways you could use this object. Keep in mind that one object can have many uses. Separate your responses with a comma.",,y,5637,,,1650,4898,,,,"hang something",1
J00716294_djj,ffzzkb83nl,"Affordance Norms_South Alabama",1,33,2023-04-12T03:02:05+00:00,1.1753067970276,75,"updated stim.csv",Version75.csv,"Version 75","List 75",waxwork,,2228,4.3,2913,2229,BOI,-,-,"Please name all of the ways you could use this object. Keep in mind that one object can have many uses. Separate your responses with a comma.",,y,947,,,-1,-1,,,,,1
J00716294_djj,ffzzkb83nl,"Affordance Norms_South Alabama",1,34,2023-04-12T03:02:08+00:00,3.2627010345459,75,"updated stim.csv",Version75.csv,"Version 75","List 75",whisk,,2247,6,2927,2248,BOI,-,-,"Please name all of the ways you could use this object. Keep in mind that one object can have many uses. Separate your responses with a comma.",,y,3053,,,1317,2354,,,,cooking,1
J00716294_djj,ffzzkb83nl,"Affordance Norms_South Alabama",1,35,2023-04-12T03:02:14+00:00,6.1014060974121,75,"updated stim.csv",Version75.csv,"Version 75","List 75",moth,,2225,4.84,1690,2226,BOI,-,-,"Please name all of the ways you could use this object. Keep in mind that one object can have many uses. Separate your responses with a comma.",,y,5593,,,4010,4806,,,,light,1
J00716294_djj,ffzzkb83nl,"Affordance Norms_South Alabama",1,36,2023-04-12T03:02:18+00:00,4.0033450126648,75,"updated stim.csv",Version75.csv,"Version 75","List 75",shotgun,,2234,5.826086957,2361,2235,BOI,-,-,"Please name all of the ways you could use this object. Keep in mind that one object can have many uses. Separate your responses with a comma.",,y,3779,,,2718,3095,,,,aim,1
J00716294_djj,ffzzkb83nl,"Affordance Norms_South Alabama",1,37,2023-04-12T03:02:23+00:00,5.2053549289703,75,"updated stim.csv",Version75.csv,"Version 75","List 75",washboard,,2250,5.208333333,2896,2251,BOI,-,-,"Please name all of the ways you could use this object. Keep in mind that one object can have many uses. Separate your responses with a comma.",,y,4720,,,1406,4026,,,,"clean stuff",1
J00716294_djj,ffzzkb83nl,"Affordance Norms_South Alabama",1,38,2023-04-12T03:02:26+00:00,3.0205271244049,75,"updated stim.csv",Version75.csv,"Version 75","List 75",motorbike,,2223,6.347826087,1694,2224,BOI,-,-,"Please name all of the ways you could use this object. Keep in mind that one object can have many uses. Separate your responses with a comma.",,y,2788,,,1644,2210,,,,ride,1
J00716294_djj,ffzzkb83nl,"Affordance Norms_South Alabama",1,39,2023-04-12T03:02:32+00:00,5.4341108798981,75,"updated stim.csv",Version75.csv,"Version 75","List 75",laundry,,2221,6.208333333,1472,2222,BOI,-,-,"Please name all of the ways you could use this object. Keep in mind that one object can have many uses. Separate your responses with a comma.",,y,4976,,,1977,4337,,,,clothes,1
J00716294_djj,ffzzkb83nl,"Affordance Norms_South Alabama",1,40,2023-04-12T03:02:38+00:00,5.969743013382,75,"updated stim.csv",Version75.csv,"Version 75","List 75",wig,,2242,5.913043478,2935,2243,BOI,-,-,"Please name all of the ways you could use this object. Keep in mind that one object can have many uses. Separate your responses with a comma.",,y,5506,,,3032,4576,,,,"dress up",1
J00716294_djj,ffzzkb83nl,"Affordance Norms_South Alabama",1,41,2023-04-12T03:02:40+00:00,2.047590970993,75,"updated stim.csv",Version75.csv,"Version 75","List 75",,,,,,0,Instruct,,,"You will now be asked a few questions about your experience today.",,"Instruct 4",1766,,,-1,-1,,,,,1
