Username,ID,ExperimentName,Session,Trial,Date,TimeDif,"Condition Number","Stimuli File","Order File","Condition Description","Condition Notes",Stimuli*Cue,Stimuli*Answer,Stimuli*Shuffle,"Stimuli*Stimuli Notes",Stimuli*Value,Procedure*Item,"Procedure*Trial Type","Procedure*Max Time","Procedure*Min Time",Procedure*Text,"Procedure*Procedure Notes",Procedure*Shuffle,Response*RT,Response*Response,Response*Accuracy,Response*RTfirst,Response*RTlast,Response*strictAcc,Response*lenientAcc,Response*focus,Response*JOL,Response*Focus
J00713089,d3vg74zy3x,"Affordance Norms_South Alabama",1,1,2022-10-31T01:51:13+00:00,11.530030012131,12,"updated stim.csv",Version12.csv,"Version 12","List 12",,,,,,0,Instruct,-,10,"In this section, you will be presented with a series of objects. Please name as many possible uses for this object as you can think of by typing them in the box below each object.",,Instruct1,11404,,,-1,-1,,,,,1
J00713089,d3vg74zy3x,"Affordance Norms_South Alabama",1,2,2022-10-31T01:51:33+00:00,20.135207891464,12,"updated stim.csv",Version12.csv,"Version 12","List 12",,,,,,0,Instruct,-,10,"Please keep in mind that a single object will have more than one use. For example, a ball can be thrown or can be bounced or even stepped on. When listing multiple uses for one object, please separate each use with a comma (i.e., thrown, bounced, stepped on)",,Instruct2,19958,,,-1,-1,,,,,1
J00713089,d3vg74zy3x,"Affordance Norms_South Alabama",1,3,2022-10-31T01:51:37+00:00,4.3879520893097,12,"updated stim.csv",Version12.csv,"Version 12","List 12",,,,,,0,Instruct,-,-,"Before starting the experiment, you will complete a short practice sesstion. Press ENTER when you are ready to begin.",,Instruct3,4224,,,-1,-1,,,,,1
J00713089,d3vg74zy3x,"Affordance Norms_South Alabama",1,4,2022-10-31T01:52:05+00:00,27.623194932938,12,"updated stim.csv",Version12.csv,"Version 12","List 12",saucer,,3005,5.777777778,2249,3006,BOI,-,-,"Please name all of the ways you could use this object. Keep in mind that one object can have many uses. Separate your responses with a comma.",,n,27424,,,2878,20992,,,,"throw, aliens",1
J00713089,d3vg74zy3x,"Affordance Norms_South Alabama",1,5,2022-10-31T01:53:00+00:00,55.193524122238,12,"updated stim.csv",Version12.csv,"Version 12","List 12",spaghetti,,3003,6,2461,3004,BOI,-,-,"Please name all of the ways you could use this object. Keep in mind that one object can have many uses. Separate your responses with a comma.",,n,55001,,,1956,52548,,,,"eat, twirl, digest, craft",1
J00713089,d3vg74zy3x,"Affordance Norms_South Alabama",1,6,2022-10-31T01:54:29+00:00,88.770830869675,12,"updated stim.csv",Version12.csv,"Version 12","List 12",grain,,3004,5.217391304,1143,3005,BOI,-,-,"Please name all of the ways you could use this object. Keep in mind that one object can have many uses. Separate your responses with a comma.",,n,88531,,,5335,7158,,,,"ground, ",1
J00713089,d3vg74zy3x,"Affordance Norms_South Alabama",1,7,2022-10-31T01:55:16+00:00,47.013875007629,12,"updated stim.csv",Version12.csv,"Version 12","List 12",paperwork,,3001,5.625,1866,3002,BOI,-,-,"Please name all of the ways you could use this object. Keep in mind that one object can have many uses. Separate your responses with a comma.",,n,46786,,,3526,45986,,,,"write, type, shred, paper airplane, trashketball, read",1
J00713089,d3vg74zy3x,"Affordance Norms_South Alabama",1,8,2022-10-31T01:55:48+00:00,31.924019098282,12,"updated stim.csv",Version12.csv,"Version 12","List 12",shortening,,3002,4.92,2358,3003,BOI,-,-,"Please name all of the ways you could use this object. Keep in mind that one object can have many uses. Separate your responses with a comma.",,n,31700,,,6517,31500,,,,"bake, cook, eat",1
J00713089,d3vg74zy3x,"Affordance Norms_South Alabama",1,9,2022-10-31T01:55:50+00:00,2.3484039306641,12,"updated stim.csv",Version12.csv,"Version 12","List 12",,,,,,0,Instruct,-,-,"You have completed this section. Press ENTER to continue",,"Instruct 5",2209,,,-1,-1,,,,,1
J00713089,d3vg74zy3x,"Affordance Norms_South Alabama",1,10,2022-10-31T01:55:52+00:00,1.8220009803772,12,"updated stim.csv",Version12.csv,"Version 12","List 12",,,,,,0,Instruct,-,-,"You will now start the full experiment. Press ENTER when you are ready to begin.",,,1655,,,-1,-1,,,,,1
J00713089,d3vg74zy3x,"Affordance Norms_South Alabama",1,11,2022-10-31T01:58:58+00:00,185.92157196999,12,"updated stim.csv",Version12.csv,"Version 12","List 12",someone,,357,4.625,2450,358,BOI,-,-,"Please name all of the ways you could use this object. Keep in mind that one object can have many uses. Separate your responses with a comma.",,y,185720,,,136430,185715,,,,"dating, friend, ]",1
J00713089,d3vg74zy3x,"Affordance Norms_South Alabama",1,12,2022-10-31T02:04:14+00:00,316.46867394447,12,"updated stim.csv",Version12.csv,"Version 12","List 12",ruby,,332,4.76,2202,333,BOI,-,-,"Please name all of the ways you could use this object. Keep in mind that one object can have many uses. Separate your responses with a comma.",,y,316227,,,180794,188163,,,,"look, decorate, wear",1
J00713089,d3vg74zy3x,"Affordance Norms_South Alabama",1,13,2022-10-31T02:04:37+00:00,22.346456050873,12,"updated stim.csv",Version12.csv,"Version 12","List 12",dumbbell,,351,5.958333333,865,352,BOI,-,-,"Please name all of the ways you could use this object. Keep in mind that one object can have many uses. Separate your responses with a comma.",,y,22081,,,15096,18835,,,,"lift, workout",1
J00713089,d3vg74zy3x,"Affordance Norms_South Alabama",1,14,2022-10-31T02:05:39+00:00,62.720607995987,12,"updated stim.csv",Version12.csv,"Version 12","List 12",condiment,,347,5.76,620,348,BOI,-,-,"Please name all of the ways you could use this object. Keep in mind that one object can have many uses. Separate your responses with a comma.",,y,62522,,,2710,61300,,,,"eat, spread, smear, squirt",1
J00713089,d3vg74zy3x,"Affordance Norms_South Alabama",1,15,2022-10-31T02:06:22+00:00,42.633852958679,12,"updated stim.csv",Version12.csv,"Version 12","List 12",certificate,,358,5.041666667,482,359,BOI,-,-,"Please name all of the ways you could use this object. Keep in mind that one object can have many uses. Separate your responses with a comma.",,y,42398,,,28103,41600,,,,"sign, frame, read, earn, hang",1
J00713089,d3vg74zy3x,"Affordance Norms_South Alabama",1,16,2022-10-31T02:06:28+00:00,5.8555421829224,12,"updated stim.csv",Version12.csv,"Version 12","List 12",champagne,,333,5.583333333,493,334,BOI,-,-,"Please name all of the ways you could use this object. Keep in mind that one object can have many uses. Separate your responses with a comma.",,y,5726,,,1361,5541,,,,"drink, toast, poar",1
J00713089,d3vg74zy3x,"Affordance Norms_South Alabama",1,17,2022-10-31T02:07:04+00:00,36.072829961777,12,"updated stim.csv",Version12.csv,"Version 12","List 12",pinkie,,355,5.260869565,1974,356,BOI,-,-,"Please name all of the ways you could use this object. Keep in mind that one object can have many uses. Separate your responses with a comma.",,y,35854,,,3605,34121,,,,"pinkie swear, point",1
J00713089,d3vg74zy3x,"Affordance Norms_South Alabama",1,18,2022-10-31T02:08:59+00:00,114.75531196594,12,"updated stim.csv",Version12.csv,"Version 12","List 12",closet,,348,4.962962963,567,349,BOI,-,-,"Please name all of the ways you could use this object. Keep in mind that one object can have many uses. Separate your responses with a comma.",,y,114557,,,13908,27053,,,,"organize, clean, hang",1
J00713089,d3vg74zy3x,"Affordance Norms_South Alabama",1,19,2022-10-31T02:09:32+00:00,32.98769903183,12,"updated stim.csv",Version12.csv,"Version 12","List 12",fungus,,346,4.32,1064,347,BOI,-,-,"Please name all of the ways you could use this object. Keep in mind that one object can have many uses. Separate your responses with a comma.",,y,32776,,,2811,32466,,,,"spread, catch, itch",1
J00713089,d3vg74zy3x,"Affordance Norms_South Alabama",1,20,2022-10-31T02:09:43+00:00,11.465170860291,12,"updated stim.csv",Version12.csv,"Version 12","List 12",mall,,340,4.36,1582,341,BOI,-,-,"Please name all of the ways you could use this object. Keep in mind that one object can have many uses. Separate your responses with a comma.",,y,11342,,,1773,8260,,,,"shop, eat, walk",1
J00713089,d3vg74zy3x,"Affordance Norms_South Alabama",1,21,2022-10-31T02:12:03+00:00,139.72449111938,12,"updated stim.csv",Version12.csv,"Version 12","List 12",necklace,,338,5.821428571,1741,339,BOI,-,-,"Please name all of the ways you could use this object. Keep in mind that one object can have many uses. Separate your responses with a comma.",,y,139481,,,110850,123140,,,,"wear, decorate",1
J00713089,d3vg74zy3x,"Affordance Norms_South Alabama",1,22,2022-10-31T02:12:20+00:00,16.936522960663,12,"updated stim.csv",Version12.csv,"Version 12","List 12",bass,,337,4.37037037,164,338,BOI,-,-,"Please name all of the ways you could use this object. Keep in mind that one object can have many uses. Separate your responses with a comma.",,y,16775,,,5500,15731,,,,"eat, fish, mount",1
J00713089,d3vg74zy3x,"Affordance Norms_South Alabama",1,23,2022-10-31T02:14:55+00:00,154.86280608177,12,"updated stim.csv",Version12.csv,"Version 12","List 12",bystander,,331,4.791666667,384,332,BOI,-,-,"Please name all of the ways you could use this object. Keep in mind that one object can have many uses. Separate your responses with a comma.",,y,154596,,,1878,153449,,,,"witness, question",1
J00713089,d3vg74zy3x,"Affordance Norms_South Alabama",1,24,2022-10-31T02:15:13+00:00,18.253906965256,12,"updated stim.csv",Version12.csv,"Version 12","List 12",toddler,,349,5.875,2714,350,BOI,-,-,"Please name all of the ways you could use this object. Keep in mind that one object can have many uses. Separate your responses with a comma.",,y,18100,,,1987,15889,,,,"play, entertain, soothe, feed, change",1
J00713089,d3vg74zy3x,"Affordance Norms_South Alabama",1,25,2022-10-31T02:15:51+00:00,37.770915031433,12,"updated stim.csv",Version12.csv,"Version 12","List 12",man,,352,5.346153846,1586,353,BOI,-,-,"Please name all of the ways you could use this object. Keep in mind that one object can have many uses. Separate your responses with a comma.",,y,37568,,,2203,36517,,,,"speak, look at, conversate, help",1
J00713089,d3vg74zy3x,"Affordance Norms_South Alabama",1,26,2022-10-31T02:16:07+00:00,16.226881980896,12,"updated stim.csv",Version12.csv,"Version 12","List 12",bartender,,353,4.64,156,354,BOI,-,-,"Please name all of the ways you could use this object. Keep in mind that one object can have many uses. Separate your responses with a comma.",,y,16066,,,2663,14898,,,,"pour, mix, entertain, do tricks",1
J00713089,d3vg74zy3x,"Affordance Norms_South Alabama",1,27,2022-10-31T02:16:25+00:00,17.868003845215,12,"updated stim.csv",Version12.csv,"Version 12","List 12",dock,,336,4.541666667,808,337,BOI,-,-,"Please name all of the ways you could use this object. Keep in mind that one object can have many uses. Separate your responses with a comma.",,y,17728,,,4295,16280,,,,"park, sit, hangout, drink, talk, listen to music",1
J00713089,d3vg74zy3x,"Affordance Norms_South Alabama",1,28,2022-10-31T02:16:34+00:00,9.5484251976013,12,"updated stim.csv",Version12.csv,"Version 12","List 12",cobweb,,359,4.916666667,584,360,BOI,-,-,"Please name all of the ways you could use this object. Keep in mind that one object can have many uses. Separate your responses with a comma.",,y,9398,,,3877,8311,,,,"remove, clean, dust",1
J00713089,d3vg74zy3x,"Affordance Norms_South Alabama",1,29,2022-10-31T02:17:40+00:00,66.063566923141,12,"updated stim.csv",Version12.csv,"Version 12","List 12",mulberry,,339,4.703703704,1714,340,BOI,-,-,"Please name all of the ways you could use this object. Keep in mind that one object can have many uses. Separate your responses with a comma.",,y,65834,,,36470,63040,,,,"climb, chop, paint, use timber wood",1
J00713089,d3vg74zy3x,"Affordance Norms_South Alabama",1,30,2022-10-31T02:18:05+00:00,24.665885925293,12,"updated stim.csv",Version12.csv,"Version 12","List 12",hourglass,,354,4.583333333,1325,355,BOI,-,-,"Please name all of the ways you could use this object. Keep in mind that one object can have many uses. Separate your responses with a comma.",,y,24445,,,2832,22651,,,,"time, decorate, pour, watch",1
J00713089,d3vg74zy3x,"Affordance Norms_South Alabama",1,31,2022-10-31T02:18:23+00:00,18.161412000656,12,"updated stim.csv",Version12.csv,"Version 12","List 12",stockings,,344,5.84,2542,345,BOI,-,-,"Please name all of the ways you could use this object. Keep in mind that one object can have many uses. Separate your responses with a comma.",,y,18038,,,2732,16915,,,,"wear, decorate, stuff, fold, crafts",1
J00713089,d3vg74zy3x,"Affordance Norms_South Alabama",1,32,2022-10-31T02:18:40+00:00,16.639922142029,12,"updated stim.csv",Version12.csv,"Version 12","List 12",beet,,345,5.32,193,346,BOI,-,-,"Please name all of the ways you could use this object. Keep in mind that one object can have many uses. Separate your responses with a comma.",,y,16486,,,9896,15126,,,,"eat, mash, juice, cook",1
J00713089,d3vg74zy3x,"Affordance Norms_South Alabama",1,33,2022-10-31T02:19:02+00:00,22.455178976059,12,"updated stim.csv",Version12.csv,"Version 12","List 12",dairy,,335,4.28,750,336,BOI,-,-,"Please name all of the ways you could use this object. Keep in mind that one object can have many uses. Separate your responses with a comma.",,y,22251,,,11006,21098,,,,"drink, mix, bake, measure",1
J00713089,d3vg74zy3x,"Affordance Norms_South Alabama",1,34,2022-10-31T02:19:20+00:00,17.912052869797,12,"updated stim.csv",Version12.csv,"Version 12","List 12",shot,,356,4.392857143,2360,357,BOI,-,-,"Please name all of the ways you could use this object. Keep in mind that one object can have many uses. Separate your responses with a comma.",,y,17783,,,924,9910,,,,"vaccinate, drink",1
J00713089,d3vg74zy3x,"Affordance Norms_South Alabama",1,35,2022-10-31T02:19:44+00:00,24.002947092056,12,"updated stim.csv",Version12.csv,"Version 12","List 12",mayonnaise,,342,5.523809524,1628,343,BOI,-,-,"Please name all of the ways you could use this object. Keep in mind that one object can have many uses. Separate your responses with a comma.",,y,23787,,,2575,22839,,,,"spread, eat, mix, cook",1
J00713089,d3vg74zy3x,"Affordance Norms_South Alabama",1,36,2022-10-31T02:20:01+00:00,16.527535915375,12,"updated stim.csv",Version12.csv,"Version 12","List 12",hip,,341,5.086956522,1291,342,BOI,-,-,"Please name all of the ways you could use this object. Keep in mind that one object can have many uses. Separate your responses with a comma.",,y,16376,,,1575,15979,,,,"move, shake, build, creak",1
J00713089,d3vg74zy3x,"Affordance Norms_South Alabama",1,37,2022-10-31T02:20:15+00:00,14.497537136078,12,"updated stim.csv",Version12.csv,"Version 12","List 12",flower,,343,5.916666667,1015,344,BOI,-,-,"Please name all of the ways you could use this object. Keep in mind that one object can have many uses. Separate your responses with a comma.",,y,14337,,,1611,13640,,,,"grow, nourish, water, fertilize",1
J00713089,d3vg74zy3x,"Affordance Norms_South Alabama",1,38,2022-10-31T02:20:29+00:00,13.626807928085,12,"updated stim.csv",Version12.csv,"Version 12","List 12",sifter,,350,4.782608696,2378,351,BOI,-,-,"Please name all of the ways you could use this object. Keep in mind that one object can have many uses. Separate your responses with a comma.",,y,13451,,,2847,13115,,,,"sift, separate, divide",1
J00713089,d3vg74zy3x,"Affordance Norms_South Alabama",1,39,2022-10-31T02:22:05+00:00,96.436094999313,12,"updated stim.csv",Version12.csv,"Version 12","List 12",String,,334,5.626180837,2568,335,BOI,-,-,"Please name all of the ways you could use this object. Keep in mind that one object can have many uses. Separate your responses with a comma.",,y,96213,,,10196,95830,,,,"crafts, floss, braid",1
J00713089,d3vg74zy3x,"Affordance Norms_South Alabama",1,40,2022-10-31T02:22:16+00:00,10.529184103012,12,"updated stim.csv",Version12.csv,"Version 12","List 12",showerhead,,360,5.041666667,2365,361,BOI,-,-,"Please name all of the ways you could use this object. Keep in mind that one object can have many uses. Separate your responses with a comma.",,y,10367,,,3594,8447,,,,"pour, adjust, shower",1
J00713089,d3vg74zy3x,"Affordance Norms_South Alabama",1,41,2022-10-31T02:22:18+00:00,2.3945260047913,12,"updated stim.csv",Version12.csv,"Version 12","List 12",,,,,,0,Instruct,,,"You will now be asked a few questions about your experience today.",,"Instruct 4",2230,,,-1,-1,,,,,1
