Username,ID,ExperimentName,Session,Trial,Date,TimeDif,"Condition Number","Stimuli File","Order File","Condition Description","Condition Notes",Stimuli*Cue,Stimuli*Answer,Stimuli*Shuffle,"Stimuli*Stimuli Notes",Stimuli*Value,Procedure*Item,"Procedure*Trial Type","Procedure*Max Time","Procedure*Min Time",Procedure*Text,"Procedure*Procedure Notes",Procedure*Shuffle,Response*RT,Response*Response,Response*Accuracy,Response*RTfirst,Response*RTlast,Response*strictAcc,Response*lenientAcc,Response*focus,Response*JOL,Response*Focus
J00711051AN,d4vr4xdqko,"Affordance Norms_South Alabama",1,1,2023-01-31T23:45:11+00:00,22.425050973892,43,"updated stim.csv",Version43.csv,"Version 43","List 43",,,,,,0,Instruct,-,10,"In this section, you will be presented with a series of objects. Please name as many possible uses for this object as you can think of by typing them in the box below each object.",,Instruct1,21991,,,-1,-1,,,,,1
J00711051AN,d4vr4xdqko,"Affordance Norms_South Alabama",1,2,2023-01-31T23:45:22+00:00,10.929899930954,43,"updated stim.csv",Version43.csv,"Version 43","List 43",,,,,,0,Instruct,-,10,"Please keep in mind that a single object will have more than one use. For example, a ball can be thrown or can be bounced or even stepped on. When listing multiple uses for one object, please separate each use with a comma (i.e., thrown, bounced, stepped on)",,Instruct2,10600,,,-1,-1,,,,,1
J00711051AN,d4vr4xdqko,"Affordance Norms_South Alabama",1,3,2023-01-31T23:45:27+00:00,5.3487870693207,43,"updated stim.csv",Version43.csv,"Version 43","List 43",,,,,,0,Instruct,-,-,"Before starting the experiment, you will complete a short practice sesstion. Press ENTER when you are ready to begin.",,Instruct3,5021,,,-1,-1,,,,,1
J00711051AN,d4vr4xdqko,"Affordance Norms_South Alabama",1,4,2023-01-31T23:45:40+00:00,13.213248968124,43,"updated stim.csv",Version43.csv,"Version 43","List 43",saucer,,3005,5.777777778,2249,3006,BOI,-,-,"Please name all of the ways you could use this object. Keep in mind that one object can have many uses. Separate your responses with a comma.",,n,12648,,,7810,11338,,,,"shake,season",1
J00711051AN,d4vr4xdqko,"Affordance Norms_South Alabama",1,5,2023-01-31T23:45:56+00:00,15.797527074814,43,"updated stim.csv",Version43.csv,"Version 43","List 43",shortening,,3002,4.92,2358,3003,BOI,-,-,"Please name all of the ways you could use this object. Keep in mind that one object can have many uses. Separate your responses with a comma.",,n,15430,,,4178,9563,,,,"shorten,smaller,",1
J00711051AN,d4vr4xdqko,"Affordance Norms_South Alabama",1,6,2023-01-31T23:46:03+00:00,6.8016219139099,43,"updated stim.csv",Version43.csv,"Version 43","List 43",grain,,3004,5.217391304,1143,3005,BOI,-,-,"Please name all of the ways you could use this object. Keep in mind that one object can have many uses. Separate your responses with a comma.",,n,6464,,,-1,-1,,,,,1
J00711051AN,d4vr4xdqko,"Affordance Norms_South Alabama",1,7,2023-01-31T23:46:10+00:00,7.7200610637665,43,"updated stim.csv",Version43.csv,"Version 43","List 43",spaghetti,,3003,6,2461,3004,BOI,-,-,"Please name all of the ways you could use this object. Keep in mind that one object can have many uses. Separate your responses with a comma.",,n,7415,,,1583,5717,,,,"eat,cook",1
J00711051AN,d4vr4xdqko,"Affordance Norms_South Alabama",1,8,2023-01-31T23:46:24+00:00,13.241739034653,43,"updated stim.csv",Version43.csv,"Version 43","List 43",paperwork,,3001,5.625,1866,3002,BOI,-,-,"Please name all of the ways you could use this object. Keep in mind that one object can have many uses. Separate your responses with a comma.",,n,12956,,,5322,12056,,,,"write,study,work",1
J00711051AN,d4vr4xdqko,"Affordance Norms_South Alabama",1,9,2023-01-31T23:46:25+00:00,1.7547678947449,43,"updated stim.csv",Version43.csv,"Version 43","List 43",,,,,,0,Instruct,-,-,"You have completed this section. Press ENTER to continue",,"Instruct 5",1433,,,-1,-1,,,,,1
J00711051AN,d4vr4xdqko,"Affordance Norms_South Alabama",1,10,2023-01-31T23:46:29+00:00,3.3086550235748,43,"updated stim.csv",Version43.csv,"Version 43","List 43",,,,,,0,Instruct,-,-,"You will now start the full experiment. Press ENTER when you are ready to begin.",,,2978,,,-1,-1,,,,,1
J00711051AN,d4vr4xdqko,"Affordance Norms_South Alabama",1,11,2023-01-31T23:46:41+00:00,12.692546129227,43,"updated stim.csv",Version43.csv,"Version 43","List 43",axe,,1281,6.153846154,106,1282,BOI,-,-,"Please name all of the ways you could use this object. Keep in mind that one object can have many uses. Separate your responses with a comma.",,y,12395,,,2063,10374,,,,"throw,cut,hit",1
J00711051AN,d4vr4xdqko,"Affordance Norms_South Alabama",1,12,2023-01-31T23:46:57+00:00,15.957693815231,43,"updated stim.csv",Version43.csv,"Version 43","List 43",doorbell,,1263,5.916666667,822,1264,BOI,-,-,"Please name all of the ways you could use this object. Keep in mind that one object can have many uses. Separate your responses with a comma.",,y,15624,,,1390,14768,,,,"ring,install,watch surrounding",1
J00711051AN,d4vr4xdqko,"Affordance Norms_South Alabama",1,13,2023-01-31T23:47:08+00:00,10.683024168015,43,"updated stim.csv",Version43.csv,"Version 43","List 43",maid,,1283,4.458333333,1574,1284,BOI,-,-,"Please name all of the ways you could use this object. Keep in mind that one object can have many uses. Separate your responses with a comma.",,y,10394,,,1435,9273,,,,"clean,cook,help out",1
J00711051AN,d4vr4xdqko,"Affordance Norms_South Alabama",1,14,2023-01-31T23:47:16+00:00,8.2028698921204,43,"updated stim.csv",Version43.csv,"Version 43","List 43",motorist,,1270,5.12,1698,1271,BOI,-,-,"Please name all of the ways you could use this object. Keep in mind that one object can have many uses. Separate your responses with a comma.",,y,7852,,,2127,6906,,,,"ride,drive",1
J00711051AN,d4vr4xdqko,"Affordance Norms_South Alabama",1,15,2023-01-31T23:47:31+00:00,14.955915927887,43,"updated stim.csv",Version43.csv,"Version 43","List 43",marijuana,,1284,6.04,1606,1285,BOI,-,-,"Please name all of the ways you could use this object. Keep in mind that one object can have many uses. Separate your responses with a comma.",,y,14661,,,3292,13588,,,,"smoke,illegal,buy,sell",1
J00711051AN,d4vr4xdqko,"Affordance Norms_South Alabama",1,16,2023-01-31T23:47:42+00:00,10.591136217117,43,"updated stim.csv",Version43.csv,"Version 43","List 43",crowbar,,1268,6.25,710,1269,BOI,-,-,"Please name all of the ways you could use this object. Keep in mind that one object can have many uses. Separate your responses with a comma.",,y,10218,,,-1,-1,,,,,1
J00711051AN,d4vr4xdqko,"Affordance Norms_South Alabama",1,17,2023-01-31T23:47:56+00:00,14.404533863068,43,"updated stim.csv",Version43.csv,"Version 43","List 43",gauze,,1269,5.88,1088,1270,BOI,-,-,"Please name all of the ways you could use this object. Keep in mind that one object can have many uses. Separate your responses with a comma.",,y,14064,,,2746,13191,,,,"protect,soakup,heal",1
J00711051AN,d4vr4xdqko,"Affordance Norms_South Alabama",1,18,2023-01-31T23:48:04+00:00,7.5532760620117,43,"updated stim.csv",Version43.csv,"Version 43","List 43",path,,1261,4.37037037,1887,1262,BOI,-,-,"Please name all of the ways you could use this object. Keep in mind that one object can have many uses. Separate your responses with a comma.",,y,7247,,,1857,6313,,,,"walk,direct",1
J00711051AN,d4vr4xdqko,"Affordance Norms_South Alabama",1,19,2023-01-31T23:48:28+00:00,23.840276002884,43,"updated stim.csv",Version43.csv,"Version 43","List 43",minister,,1280,4.84,1663,1281,BOI,-,-,"Please name all of the ways you could use this object. Keep in mind that one object can have many uses. Separate your responses with a comma.",,y,23317,,,14578,22065,,,,"preach,sing,speak",1
J00711051AN,d4vr4xdqko,"Affordance Norms_South Alabama",1,20,2023-01-31T23:48:30+00:00,2.6598770618439,43,"updated stim.csv",Version43.csv,"Version 43","List 43",prosthesis,,1282,4.689655172,2079,1283,BOI,-,-,"Please name all of the ways you could use this object. Keep in mind that one object can have many uses. Separate your responses with a comma.",,y,2344,,,-1,-1,,,,,1
J00711051AN,d4vr4xdqko,"Affordance Norms_South Alabama",1,21,2023-01-31T23:48:39+00:00,8.7476408481598,43,"updated stim.csv",Version43.csv,"Version 43","List 43",boulder,,1266,4.958333333,288,1267,BOI,-,-,"Please name all of the ways you could use this object. Keep in mind that one object can have many uses. Separate your responses with a comma.",,y,8266,,,2741,7605,,,,"move,heavy,roll",1
J00711051AN,d4vr4xdqko,"Affordance Norms_South Alabama",1,22,2023-01-31T23:48:48+00:00,9.4108200073242,43,"updated stim.csv",Version43.csv,"Version 43","List 43",footbath,,1276,5.090909091,1032,1277,BOI,-,-,"Please name all of the ways you could use this object. Keep in mind that one object can have many uses. Separate your responses with a comma.",,y,9132,,,2214,7903,,,,"clean,soak,heal",1
J00711051AN,d4vr4xdqko,"Affordance Norms_South Alabama",1,23,2023-01-31T23:48:59+00:00,10.903445959091,43,"updated stim.csv",Version43.csv,"Version 43","List 43",sling,,1285,4.909090909,2413,1286,BOI,-,-,"Please name all of the ways you could use this object. Keep in mind that one object can have many uses. Separate your responses with a comma.",,y,10625,,,3369,8143,,,,"shoot,hit,pull",1
J00711051AN,d4vr4xdqko,"Affordance Norms_South Alabama",1,24,2023-01-31T23:49:11+00:00,11.498414993286,43,"updated stim.csv",Version43.csv,"Version 43","List 43",bin,,1286,5.260869565,217,1287,BOI,-,-,"Please name all of the ways you could use this object. Keep in mind that one object can have many uses. Separate your responses with a comma.",,y,11206,,,1796,10234,,,,"storage,container,hold",1
J00711051AN,d4vr4xdqko,"Affordance Norms_South Alabama",1,25,2023-01-31T23:49:25+00:00,14.390987157822,43,"updated stim.csv",Version43.csv,"Version 43","List 43",fountainhead,,1272,4.523809524,1051,1273,BOI,-,-,"Please name all of the ways you could use this object. Keep in mind that one object can have many uses. Separate your responses with a comma.",,y,14053,,,7770,13315,,,,"produce,help function",1
J00711051AN,d4vr4xdqko,"Affordance Norms_South Alabama",1,26,2023-01-31T23:49:40+00:00,14.909276008606,43,"updated stim.csv",Version43.csv,"Version 43","List 43",environment,,1277,4.52173913,914,1278,BOI,-,-,"Please name all of the ways you could use this object. Keep in mind that one object can have many uses. Separate your responses with a comma.",,y,14599,,,1905,13653,,,,"surroundings,clea,dirty,around you",1
J00711051AN,d4vr4xdqko,"Affordance Norms_South Alabama",1,27,2023-01-31T23:50:09+00:00,28.720527887344,43,"updated stim.csv",Version43.csv,"Version 43","List 43",bathroom,,1264,6,169,1265,BOI,-,-,"Please name all of the ways you could use this object. Keep in mind that one object can have many uses. Separate your responses with a comma.",,y,28159,,,2419,25954,,,,"bathe,brush teeth,clean",1
J00711051AN,d4vr4xdqko,"Affordance Norms_South Alabama",1,28,2023-01-31T23:50:15+00:00,6.4793300628662,43,"updated stim.csv",Version43.csv,"Version 43","List 43",holster,,1279,4.68,1298,1280,BOI,-,-,"Please name all of the ways you could use this object. Keep in mind that one object can have many uses. Separate your responses with a comma.",,y,6152,,,1667,5205,,,,"hold,protect",1
J00711051AN,d4vr4xdqko,"Affordance Norms_South Alabama",1,29,2023-01-31T23:50:27+00:00,12.04475903511,43,"updated stim.csv",Version43.csv,"Version 43","List 43",sink,,1287,5.48,2385,1288,BOI,-,-,"Please name all of the ways you could use this object. Keep in mind that one object can have many uses. Separate your responses with a comma.",,y,11731,,,1444,10740,,,,"water,brush,clean,sanitize",1
J00711051AN,d4vr4xdqko,"Affordance Norms_South Alabama",1,30,2023-01-31T23:50:29+00:00,2.0858800411224,43,"updated stim.csv",Version43.csv,"Version 43","List 43",bangle,,1289,5.115384615,139,1290,BOI,-,-,"Please name all of the ways you could use this object. Keep in mind that one object can have many uses. Separate your responses with a comma.",,y,1797,,,-1,-1,,,,,1
J00711051AN,d4vr4xdqko,"Affordance Norms_South Alabama",1,31,2023-01-31T23:50:46+00:00,16.589357852936,43,"updated stim.csv",Version43.csv,"Version 43","List 43",granny,,1265,5.083333333,1155,1266,BOI,-,-,"Please name all of the ways you could use this object. Keep in mind that one object can have many uses. Separate your responses with a comma.",,y,16293,,,1935,15498,,,,"family,protector,helps",1
J00711051AN,d4vr4xdqko,"Affordance Norms_South Alabama",1,32,2023-01-31T23:50:59+00:00,13.241999149323,43,"updated stim.csv",Version43.csv,"Version 43","List 43",ledge,,1267,4.541666667,1482,1268,BOI,-,-,"Please name all of the ways you could use this object. Keep in mind that one object can have many uses. Separate your responses with a comma.",,y,12931,,,7960,8580,,,,"end,",1
J00711051AN,d4vr4xdqko,"Affordance Norms_South Alabama",1,33,2023-01-31T23:51:17+00:00,17.297978878021,43,"updated stim.csv",Version43.csv,"Version 43","List 43",vaginal,,1271,4.36,2833,1272,BOI,-,-,"Please name all of the ways you could use this object. Keep in mind that one object can have many uses. Separate your responses with a comma.",,y,17006,,,3951,16055,,,,"private,give birth,women",1
J00711051AN,d4vr4xdqko,"Affordance Norms_South Alabama",1,34,2023-01-31T23:51:28+00:00,11.308175086975,43,"updated stim.csv",Version43.csv,"Version 43","List 43",penny,,1275,6.448275862,1917,1276,BOI,-,-,"Please name all of the ways you could use this object. Keep in mind that one object can have many uses. Separate your responses with a comma.",,y,11026,,,2336,9269,,,,"money,spend,save",1
J00711051AN,d4vr4xdqko,"Affordance Norms_South Alabama",1,35,2023-01-31T23:51:42+00:00,13.762017011642,43,"updated stim.csv",Version43.csv,"Version 43","List 43",waiter,,1278,4.48,2883,1279,BOI,-,-,"Please name all of the ways you could use this object. Keep in mind that one object can have many uses. Separate your responses with a comma.",,y,13426,,,2435,12435,,,,"order,gets food,cleans",1
J00711051AN,d4vr4xdqko,"Affordance Norms_South Alabama",1,36,2023-01-31T23:51:44+00:00,1.992791891098,43,"updated stim.csv",Version43.csv,"Version 43","List 43",chrysanthemum,,1262,5.727272727,540,1263,BOI,-,-,"Please name all of the ways you could use this object. Keep in mind that one object can have many uses. Separate your responses with a comma.",,y,1678,,,-1,-1,,,,,1
J00711051AN,d4vr4xdqko,"Affordance Norms_South Alabama",1,37,2023-01-31T23:51:56+00:00,11.996802091599,43,"updated stim.csv",Version43.csv,"Version 43","List 43",puke,,1290,4.5,2091,1291,BOI,-,-,"Please name all of the ways you could use this object. Keep in mind that one object can have many uses. Separate your responses with a comma.",,y,11698,,,2040,10949,,,,"release fluids,sick,relief,painful",1
J00711051AN,d4vr4xdqko,"Affordance Norms_South Alabama",1,38,2023-01-31T23:52:03+00:00,7.1641449928284,43,"updated stim.csv",Version43.csv,"Version 43","List 43",bunkhouse,,1273,4.625,361,1274,BOI,-,-,"Please name all of the ways you could use this object. Keep in mind that one object can have many uses. Separate your responses with a comma.",,y,6860,,,1733,5547,,,,"sleep,extra",1
J00711051AN,d4vr4xdqko,"Affordance Norms_South Alabama",1,39,2023-01-31T23:52:10+00:00,7.4118819236755,43,"updated stim.csv",Version43.csv,"Version 43","List 43",suspenders,,1274,5.24,2599,1275,BOI,-,-,"Please name all of the ways you could use this object. Keep in mind that one object can have many uses. Separate your responses with a comma.",,y,7051,,,1515,6087,,,,"hold up, extra support",1
J00711051AN,d4vr4xdqko,"Affordance Norms_South Alabama",1,40,2023-01-31T23:52:30+00:00,20.162508010864,43,"updated stim.csv",Version43.csv,"Version 43","List 43",daughter,,1288,5.192307692,760,1289,BOI,-,-,"Please name all of the ways you could use this object. Keep in mind that one object can have many uses. Separate your responses with a comma.",,y,19872,,,7497,18964,,,,"growing,maturing,baby",1
J00711051AN,d4vr4xdqko,"Affordance Norms_South Alabama",1,41,2023-01-31T23:52:34+00:00,3.8798010349274,43,"updated stim.csv",Version43.csv,"Version 43","List 43",,,,,,0,Instruct,,,"You will now be asked a few questions about your experience today.",,"Instruct 4",3532,,,-1,-1,,,,,1
