Username,ID,ExperimentName,Session,Trial,Date,TimeDif,"Condition Number","Stimuli File","Order File","Condition Description","Condition Notes",Stimuli*Cue,Stimuli*Answer,Stimuli*Shuffle,"Stimuli*Stimuli Notes",Stimuli*Value,Procedure*Item,"Procedure*Trial Type","Procedure*Max Time","Procedure*Min Time",Procedure*Text,"Procedure*Procedure Notes",Procedure*Shuffle,Response*RT,Response*Response,Response*Accuracy,Response*RTfirst,Response*RTlast,Response*strictAcc,Response*lenientAcc,Response*focus,Response*JOL,Response*Focus
J00708685_egr,zqs03tmjqw,"Affordance Norms_South Alabama",1,1,2022-11-28T23:04:34+00:00,12.031027078629,61,"updated stim.csv",Version61.csv,"Version 61","List 61",,,,,,0,Instruct,-,10,"In this section, you will be presented with a series of objects. Please name as many possible uses for this object as you can think of by typing them in the box below each object.",,Instruct1,11934,,,-1,-1,,,,,1
J00708685_egr,zqs03tmjqw,"Affordance Norms_South Alabama",1,2,2022-11-28T23:04:46+00:00,11.42706990242,61,"updated stim.csv",Version61.csv,"Version 61","List 61",,,,,,0,Instruct,-,10,"Please keep in mind that a single object will have more than one use. For example, a ball can be thrown or can be bounced or even stepped on. When listing multiple uses for one object, please separate each use with a comma (i.e., thrown, bounced, stepped on)",,Instruct2,11317,,,-1,-1,,,,,1
J00708685_egr,zqs03tmjqw,"Affordance Norms_South Alabama",1,3,2022-11-28T23:04:50+00:00,4.4313311576843,61,"updated stim.csv",Version61.csv,"Version 61","List 61",,,,,,0,Instruct,-,-,"Before starting the experiment, you will complete a short practice sesstion. Press ENTER when you are ready to begin.",,Instruct3,4329,,,-1,-1,,,,,1
J00708685_egr,zqs03tmjqw,"Affordance Norms_South Alabama",1,4,2022-11-28T23:05:08+00:00,17.807729959488,61,"updated stim.csv",Version61.csv,"Version 61","List 61",spaghetti,,3003,6,2461,3004,BOI,-,-,"Please name all of the ways you could use this object. Keep in mind that one object can have many uses. Separate your responses with a comma.",,n,17535,,,1762,16494,,,,"eat,serve,play",1
J00708685_egr,zqs03tmjqw,"Affordance Norms_South Alabama",1,5,2022-11-28T23:05:29+00:00,20.682861089706,61,"updated stim.csv",Version61.csv,"Version 61","List 61",grain,,3004,5.217391304,1143,3005,BOI,-,-,"Please name all of the ways you could use this object. Keep in mind that one object can have many uses. Separate your responses with a comma.",,n,20485,,,3067,13741,,,,"cook,cut,grow",1
J00708685_egr,zqs03tmjqw,"Affordance Norms_South Alabama",1,6,2022-11-28T23:05:51+00:00,22.474806785583,61,"updated stim.csv",Version61.csv,"Version 61","List 61",paperwork,,3001,5.625,1866,3002,BOI,-,-,"Please name all of the ways you could use this object. Keep in mind that one object can have many uses. Separate your responses with a comma.",,n,22298,,,2607,21015,,,,"file,stack,finish,throw away,submit,fill out",1
J00708685_egr,zqs03tmjqw,"Affordance Norms_South Alabama",1,7,2022-11-28T23:06:11+00:00,20.178819179535,61,"updated stim.csv",Version61.csv,"Version 61","List 61",shortening,,3002,4.92,2358,3003,BOI,-,-,"Please name all of the ways you could use this object. Keep in mind that one object can have many uses. Separate your responses with a comma.",,n,19973,,,9322,17500,,,,"jeans,shorts,skirts",1
J00708685_egr,zqs03tmjqw,"Affordance Norms_South Alabama",1,8,2022-11-28T23:06:29+00:00,18.015560865402,61,"updated stim.csv",Version61.csv,"Version 61","List 61",saucer,,3005,5.777777778,2249,3006,BOI,-,-,"Please name all of the ways you could use this object. Keep in mind that one object can have many uses. Separate your responses with a comma.",,n,17891,,,6550,13869,,,,"serve, hold,display",1
J00708685_egr,zqs03tmjqw,"Affordance Norms_South Alabama",1,9,2022-11-28T23:06:32+00:00,2.6836400032043,61,"updated stim.csv",Version61.csv,"Version 61","List 61",,,,,,0,Instruct,-,-,"You have completed this section. Press ENTER to continue",,"Instruct 5",2562,,,-1,-1,,,,,1
J00708685_egr,zqs03tmjqw,"Affordance Norms_South Alabama",1,10,2022-11-28T23:06:36+00:00,3.8407061100006,61,"updated stim.csv",Version61.csv,"Version 61","List 61",,,,,,0,Instruct,-,-,"You will now start the full experiment. Press ENTER when you are ready to begin.",,,3722,,,-1,-1,,,,,1
J00708685_egr,zqs03tmjqw,"Affordance Norms_South Alabama",1,11,2022-11-28T23:06:59+00:00,23.395763874054,61,"updated stim.csv",Version61.csv,"Version 61","List 61",igloo,,1828,4.851851852,1349,1829,BOI,-,-,"Please name all of the ways you could use this object. Keep in mind that one object can have many uses. Separate your responses with a comma.",,y,23213,,,1775,17784,,,,"live,build,melt,carve",1
J00708685_egr,zqs03tmjqw,"Affordance Norms_South Alabama",1,12,2022-11-28T23:07:23+00:00,23.50528216362,61,"updated stim.csv",Version61.csv,"Version 61","List 61",bra,,1816,6.52173913,298,1817,BOI,-,-,"Please name all of the ways you could use this object. Keep in mind that one object can have many uses. Separate your responses with a comma.",,y,23328,,,2325,19942,,,,"wear,make,break",1
J00708685_egr,zqs03tmjqw,"Affordance Norms_South Alabama",1,13,2022-11-28T23:07:35+00:00,12.254748821259,61,"updated stim.csv",Version61.csv,"Version 61","List 61",camisole,,1820,5.476190476,407,1821,BOI,-,-,"Please name all of the ways you could use this object. Keep in mind that one object can have many uses. Separate your responses with a comma.",,y,12116,,,2085,10187,,,,"wear,break,tear,dye",1
J00708685_egr,zqs03tmjqw,"Affordance Norms_South Alabama",1,14,2022-11-28T23:07:43+00:00,7.4303481578827,61,"updated stim.csv",Version61.csv,"Version 61","List 61",potboiler,,1826,4.84,2048,1827,BOI,-,-,"Please name all of the ways you could use this object. Keep in mind that one object can have many uses. Separate your responses with a comma.",,y,7294,,,4642,5188,,,,cook,1
J00708685_egr,zqs03tmjqw,"Affordance Norms_South Alabama",1,15,2022-11-28T23:07:50+00:00,7.5918920040131,61,"updated stim.csv",Version61.csv,"Version 61","List 61",nettle,,1827,4.529411765,1752,1828,BOI,-,-,"Please name all of the ways you could use this object. Keep in mind that one object can have many uses. Separate your responses with a comma.",,y,7487,,,-1,-1,,,,,1
J00708685_egr,zqs03tmjqw,"Affordance Norms_South Alabama",1,16,2022-11-28T23:08:20+00:00,29.742020845413,61,"updated stim.csv",Version61.csv,"Version 61","List 61",bookshelf,,1818,5.727272727,279,1819,BOI,-,-,"Please name all of the ways you could use this object. Keep in mind that one object can have many uses. Separate your responses with a comma.",,y,29473,,,5283,27382,,,,"display things,build,destroy,throw away,clean",1
J00708685_egr,zqs03tmjqw,"Affordance Norms_South Alabama",1,17,2022-11-28T23:09:28+00:00,68.111356019974,61,"updated stim.csv",Version61.csv,"Version 61","List 61",prostitute,,1812,5,2080,1813,BOI,-,-,"Please name all of the ways you could use this object. Keep in mind that one object can have many uses. Separate your responses with a comma.",,y,67926,,,6480,66088,,,,"pay,murder",1
J00708685_egr,zqs03tmjqw,"Affordance Norms_South Alabama",1,18,2022-11-28T23:09:42+00:00,13.527646064758,61,"updated stim.csv",Version61.csv,"Version 61","List 61",crewman,,1802,4.291666667,693,1803,BOI,-,-,"Please name all of the ways you could use this object. Keep in mind that one object can have many uses. Separate your responses with a comma.",,y,13388,,,1868,12368,,,,"pay,help",1
J00708685_egr,zqs03tmjqw,"Affordance Norms_South Alabama",1,19,2022-11-28T23:10:05+00:00,23.07766699791,61,"updated stim.csv",Version61.csv,"Version 61","List 61",employee,,1829,5.045454545,903,1830,BOI,-,-,"Please name all of the ways you could use this object. Keep in mind that one object can have many uses. Separate your responses with a comma.",,y,22878,,,1475,20618,,,,"work,pay,fix,help",1
J00708685_egr,zqs03tmjqw,"Affordance Norms_South Alabama",1,20,2022-11-28T23:10:22+00:00,17.567249059677,61,"updated stim.csv",Version61.csv,"Version 61","List 61",mask,,1809,5.92,1614,1810,BOI,-,-,"Please name all of the ways you could use this object. Keep in mind that one object can have many uses. Separate your responses with a comma.",,y,17437,,,2856,9547,,,,"cover,protect",1
J00708685_egr,zqs03tmjqw,"Affordance Norms_South Alabama",1,21,2022-11-28T23:10:35+00:00,12.970393896103,61,"updated stim.csv",Version61.csv,"Version 61","List 61",cement,,1805,5.04,476,1806,BOI,-,-,"Please name all of the ways you could use this object. Keep in mind that one object can have many uses. Separate your responses with a comma.",,y,12824,,,3368,8740,,,,"building,leveling",1
J00708685_egr,zqs03tmjqw,"Affordance Norms_South Alabama",1,22,2022-11-28T23:11:00+00:00,24.863887071609,61,"updated stim.csv",Version61.csv,"Version 61","List 61",sportswoman,,1814,4.68,2483,1815,BOI,-,-,"Please name all of the ways you could use this object. Keep in mind that one object can have many uses. Separate your responses with a comma.",,y,24671,,,9167,20421,,,,"referee,entertainment ",1
J00708685_egr,zqs03tmjqw,"Affordance Norms_South Alabama",1,23,2022-11-28T23:11:16+00:00,15.531982898712,61,"updated stim.csv",Version61.csv,"Version 61","List 61",trailer,,1801,5.296296296,2755,1802,BOI,-,-,"Please name all of the ways you could use this object. Keep in mind that one object can have many uses. Separate your responses with a comma.",,y,15401,,,3942,10462,,,,"carry things,move things",1
J00708685_egr,zqs03tmjqw,"Affordance Norms_South Alabama",1,24,2022-11-28T23:11:35+00:00,18.948549032211,61,"updated stim.csv",Version61.csv,"Version 61","List 61",journalist,,1807,4.5,1391,1808,BOI,-,-,"Please name all of the ways you could use this object. Keep in mind that one object can have many uses. Separate your responses with a comma.",,y,18817,,,5838,16247,,,,"get information,spread information",1
J00708685_egr,zqs03tmjqw,"Affordance Norms_South Alabama",1,25,2022-11-28T23:11:45+00:00,10.040724039078,61,"updated stim.csv",Version61.csv,"Version 61","List 61",chihuahua,,1803,6.25,519,1804,BOI,-,-,"Please name all of the ways you could use this object. Keep in mind that one object can have many uses. Separate your responses with a comma.",,y,9913,,,2371,8354,,,,"play,love,noise",1
J00708685_egr,zqs03tmjqw,"Affordance Norms_South Alabama",1,26,2022-11-28T23:12:05+00:00,20.69589805603,61,"updated stim.csv",Version61.csv,"Version 61","List 61",earmuff,,1825,6.260869565,876,1826,BOI,-,-,"Please name all of the ways you could use this object. Keep in mind that one object can have many uses. Separate your responses with a comma.",,y,20507,,,1976,10752,,,,"keep warm,accessories ",1
J00708685_egr,zqs03tmjqw,"Affordance Norms_South Alabama",1,27,2022-11-28T23:12:18+00:00,12.331912994385,61,"updated stim.csv",Version61.csv,"Version 61","List 61",fingertip,,1830,5.928571429,981,1831,BOI,-,-,"Please name all of the ways you could use this object. Keep in mind that one object can have many uses. Separate your responses with a comma.",,y,12214,,,1984,7397,,,,"touch,feel",1
J00708685_egr,zqs03tmjqw,"Affordance Norms_South Alabama",1,28,2022-11-28T23:12:26+00:00,8.1194560527802,61,"updated stim.csv",Version61.csv,"Version 61","List 61",mouthpiece,,1821,5.304347826,1706,1822,BOI,-,-,"Please name all of the ways you could use this object. Keep in mind that one object can have many uses. Separate your responses with a comma.",,y,8011,,,1961,4400,,,,protect,1
J00708685_egr,zqs03tmjqw,"Affordance Norms_South Alabama",1,29,2022-11-28T23:12:36+00:00,10.342787981033,61,"updated stim.csv",Version61.csv,"Version 61","List 61",piglet,,1804,4.68,1956,1805,BOI,-,-,"Please name all of the ways you could use this object. Keep in mind that one object can have many uses. Separate your responses with a comma.",,y,10225,,,2460,8528,,,,"love,eat",1
J00708685_egr,zqs03tmjqw,"Affordance Norms_South Alabama",1,30,2022-11-28T23:12:52+00:00,15.463409900665,61,"updated stim.csv",Version61.csv,"Version 61","List 61",moccasin,,1819,5.458333333,1673,1820,BOI,-,-,"Please name all of the ways you could use this object. Keep in mind that one object can have many uses. Separate your responses with a comma.",,y,15323,,,3578,11745,,,,"keep warm, shoes",1
J00708685_egr,zqs03tmjqw,"Affordance Norms_South Alabama",1,31,2022-11-28T23:13:00+00:00,8.2774610519409,61,"updated stim.csv",Version61.csv,"Version 61","List 61",cymbals,,1810,5.695652174,742,1811,BOI,-,-,"Please name all of the ways you could use this object. Keep in mind that one object can have many uses. Separate your responses with a comma.",,y,8148,,,2464,4388,,,,"make noise",1
J00708685_egr,zqs03tmjqw,"Affordance Norms_South Alabama",1,32,2022-11-28T23:13:09+00:00,9.1163599491119,61,"updated stim.csv",Version61.csv,"Version 61","List 61",bacon,,1806,5.916666667,118,1807,BOI,-,-,"Please name all of the ways you could use this object. Keep in mind that one object can have many uses. Separate your responses with a comma.",,y,8993,,,1602,7729,,,,"eat,season",1
J00708685_egr,zqs03tmjqw,"Affordance Norms_South Alabama",1,33,2022-11-28T23:13:25+00:00,15.856458902359,61,"updated stim.csv",Version61.csv,"Version 61","List 61",strap,,1815,4.923076923,2559,1816,BOI,-,-,"Please name all of the ways you could use this object. Keep in mind that one object can have many uses. Separate your responses with a comma.",,y,15741,,,3369,14407,,,,"hold stuff down, to carry things",1
J00708685_egr,zqs03tmjqw,"Affordance Norms_South Alabama",1,34,2022-11-28T23:13:32+00:00,7.1186640262604,61,"updated stim.csv",Version61.csv,"Version 61","List 61",banana,,1823,6.107142857,136,1824,BOI,-,-,"Please name all of the ways you could use this object. Keep in mind that one object can have many uses. Separate your responses with a comma.",,y,7009,,,1527,4586,,,,"to eat, to grow",1
J00708685_egr,zqs03tmjqw,"Affordance Norms_South Alabama",1,35,2022-11-28T23:13:45+00:00,13.368296146393,61,"updated stim.csv",Version61.csv,"Version 61","List 61",pond,,1817,4.5,2029,1818,BOI,-,-,"Please name all of the ways you could use this object. Keep in mind that one object can have many uses. Separate your responses with a comma.",,y,13228,,,1638,12245,,,,"to swim, to fish, to live on",1
J00708685_egr,zqs03tmjqw,"Affordance Norms_South Alabama",1,36,2022-11-28T23:13:56+00:00,11.106482982635,61,"updated stim.csv",Version61.csv,"Version 61","List 61",chalet,,1808,4.416666667,489,1809,BOI,-,-,"Please name all of the ways you could use this object. Keep in mind that one object can have many uses. Separate your responses with a comma.",,y,10980,,,4467,9873,,,,"not sure what this is",1
J00708685_egr,zqs03tmjqw,"Affordance Norms_South Alabama",1,37,2022-11-28T23:14:07+00:00,10.711614847183,61,"updated stim.csv",Version61.csv,"Version 61","List 61",paw,,1824,5,1889,1825,BOI,-,-,"Please name all of the ways you could use this object. Keep in mind that one object can have many uses. Separate your responses with a comma.",,y,10596,,,2007,9660,,,,"walk on, to hold",1
J00708685_egr,zqs03tmjqw,"Affordance Norms_South Alabama",1,38,2022-11-28T23:14:18+00:00,11.043273210526,61,"updated stim.csv",Version61.csv,"Version 61","List 61",tearoom,,1822,4.458333333,2652,1823,BOI,-,-,"Please name all of the ways you could use this object. Keep in mind that one object can have many uses. Separate your responses with a comma.",,y,10895,,,1657,9872,,,,"to drink, to sit, to talk",1
J00708685_egr,zqs03tmjqw,"Affordance Norms_South Alabama",1,39,2022-11-28T23:14:31+00:00,12.86769080162,61,"updated stim.csv",Version61.csv,"Version 61","List 61",script,,1811,5.041666667,2289,1812,BOI,-,-,"Please name all of the ways you could use this object. Keep in mind that one object can have many uses. Separate your responses with a comma.",,y,12733,,,1499,9721,,,,"to read, to recite,to learn",1
J00708685_egr,zqs03tmjqw,"Affordance Norms_South Alabama",1,40,2022-11-28T23:14:41+00:00,9.7318520545959,61,"updated stim.csv",Version61.csv,"Version 61","List 61",item,,1813,5.739130435,1369,1814,BOI,-,-,"Please name all of the ways you could use this object. Keep in mind that one object can have many uses. Separate your responses with a comma.",,y,9616,,,2129,8467,,,,"to hold, to keep, to use",1
J00708685_egr,zqs03tmjqw,"Affordance Norms_South Alabama",1,41,2022-11-28T23:14:43+00:00,2.075709104538,61,"updated stim.csv",Version61.csv,"Version 61","List 61",,,,,,0,Instruct,,,"You will now be asked a few questions about your experience today.",,"Instruct 4",1951,,,-1,-1,,,,,1
