Username,ID,ExperimentName,Session,Trial,Date,TimeDif,"Condition Number","Stimuli File","Order File","Condition Description","Condition Notes",Stimuli*Cue,Stimuli*Answer,Stimuli*Shuffle,"Stimuli*Stimuli Notes",Stimuli*Value,Procedure*Item,"Procedure*Trial Type","Procedure*Max Time","Procedure*Min Time",Procedure*Text,"Procedure*Procedure Notes",Procedure*Shuffle,Response*RT,Response*Response,Response*Accuracy,Response*RTfirst,Response*RTlast,Response*strictAcc,Response*lenientAcc,Response*focus,Response*JOL,Response*Focus
J00717711_ACG,3asagjy4xo,"Affordance Norms_South Alabama",1,1,2022-12-01T18:28:21+00:00,11.129585027695,21,"updated stim.csv",Version21.csv,"Version 21","List 21",,,,,,0,Instruct,-,10,"In this section, you will be presented with a series of objects. Please name as many possible uses for this object as you can think of by typing them in the box below each object.",,Instruct1,10879,,,-1,-1,,,,,1
J00717711_ACG,3asagjy4xo,"Affordance Norms_South Alabama",1,2,2022-12-01T18:28:32+00:00,11.621959924698,21,"updated stim.csv",Version21.csv,"Version 21","List 21",,,,,,0,Instruct,-,10,"Please keep in mind that a single object will have more than one use. For example, a ball can be thrown or can be bounced or even stepped on. When listing multiple uses for one object, please separate each use with a comma (i.e., thrown, bounced, stepped on)",,Instruct2,11333,,,-1,-1,,,,,1
J00717711_ACG,3asagjy4xo,"Affordance Norms_South Alabama",1,3,2022-12-01T18:28:40+00:00,7.3750030994415,21,"updated stim.csv",Version21.csv,"Version 21","List 21",,,,,,0,Instruct,-,-,"Before starting the experiment, you will complete a short practice sesstion. Press ENTER when you are ready to begin.",,Instruct3,7247,,,-1,-1,,,,,1
J00717711_ACG,3asagjy4xo,"Affordance Norms_South Alabama",1,4,2022-12-01T18:29:02+00:00,22.739879846573,21,"updated stim.csv",Version21.csv,"Version 21","List 21",shortening,,3002,4.92,2358,3003,BOI,-,-,"Please name all of the ways you could use this object. Keep in mind that one object can have many uses. Separate your responses with a comma.",,n,22369,,,11557,16695,,,,cutting,1
J00717711_ACG,3asagjy4xo,"Affordance Norms_South Alabama",1,5,2022-12-01T18:29:14+00:00,11.751147985458,21,"updated stim.csv",Version21.csv,"Version 21","List 21",saucer,,3005,5.777777778,2249,3006,BOI,-,-,"Please name all of the ways you could use this object. Keep in mind that one object can have many uses. Separate your responses with a comma.",,n,11623,,,2522,11004,,,,"sauce, drink",1
J00717711_ACG,3asagjy4xo,"Affordance Norms_South Alabama",1,6,2022-12-01T18:29:32+00:00,17.859925031662,21,"updated stim.csv",Version21.csv,"Version 21","List 21",paperwork,,3001,5.625,1866,3002,BOI,-,-,"Please name all of the ways you could use this object. Keep in mind that one object can have many uses. Separate your responses with a comma.",,n,17616,,,2214,16619,,,,"job, office, school, career",1
J00717711_ACG,3asagjy4xo,"Affordance Norms_South Alabama",1,7,2022-12-01T18:29:38+00:00,6.044713973999,21,"updated stim.csv",Version21.csv,"Version 21","List 21",spaghetti,,3003,6,2461,3004,BOI,-,-,"Please name all of the ways you could use this object. Keep in mind that one object can have many uses. Separate your responses with a comma.",,n,5924,,,3969,5327,,,,eat,1
J00717711_ACG,3asagjy4xo,"Affordance Norms_South Alabama",1,8,2022-12-01T18:29:45+00:00,6.8100562095642,21,"updated stim.csv",Version21.csv,"Version 21","List 21",grain,,3004,5.217391304,1143,3005,BOI,-,-,"Please name all of the ways you could use this object. Keep in mind that one object can have many uses. Separate your responses with a comma.",,n,6609,,,2831,4871,,,,"bake, eat",1
J00717711_ACG,3asagjy4xo,"Affordance Norms_South Alabama",1,9,2022-12-01T18:29:47+00:00,1.8577599525452,21,"updated stim.csv",Version21.csv,"Version 21","List 21",,,,,,0,Instruct,-,-,"You have completed this section. Press ENTER to continue",,"Instruct 5",1610,,,-1,-1,,,,,1
J00717711_ACG,3asagjy4xo,"Affordance Norms_South Alabama",1,10,2022-12-01T18:29:48+00:00,1.7308418750763,21,"updated stim.csv",Version21.csv,"Version 21","List 21",,,,,,0,Instruct,-,-,"You will now start the full experiment. Press ENTER when you are ready to begin.",,,1625,,,-1,-1,,,,,1
J00717711_ACG,3asagjy4xo,"Affordance Norms_South Alabama",1,11,2022-12-01T18:30:11+00:00,22.829063177109,21,"updated stim.csv",Version21.csv,"Version 21","List 21",ammo,,603,5.32,34,604,BOI,-,-,"Please name all of the ways you could use this object. Keep in mind that one object can have many uses. Separate your responses with a comma.",,y,22599,,,19140,21987,,,,"gun, shooting",1
J00717711_ACG,3asagjy4xo,"Affordance Norms_South Alabama",1,12,2022-12-01T18:30:17+00:00,5.4142808914185,21,"updated stim.csv",Version21.csv,"Version 21","List 21",snowshoe,,605,5.541666667,2436,606,BOI,-,-,"Please name all of the ways you could use this object. Keep in mind that one object can have many uses. Separate your responses with a comma.",,y,5258,,,3428,4548,,,,walking,1
J00717711_ACG,3asagjy4xo,"Affordance Norms_South Alabama",1,13,2022-12-01T18:30:26+00:00,9.0057919025421,21,"updated stim.csv",Version21.csv,"Version 21","List 21",placenta,,629,4.28,1984,630,BOI,-,-,"Please name all of the ways you could use this object. Keep in mind that one object can have many uses. Separate your responses with a comma.",,y,8877,,,2012,7240,,,,"belly, vitamins",1
J00717711_ACG,3asagjy4xo,"Affordance Norms_South Alabama",1,14,2022-12-01T18:30:36+00:00,10.371309995651,21,"updated stim.csv",Version21.csv,"Version 21","List 21",piano,,630,6.166666667,1947,631,BOI,-,-,"Please name all of the ways you could use this object. Keep in mind that one object can have many uses. Separate your responses with a comma.",,y,10105,,,2304,9547,,,,"music, learning, concert",1
J00717711_ACG,3asagjy4xo,"Affordance Norms_South Alabama",1,15,2022-12-01T18:30:57+00:00,20.881691217422,21,"updated stim.csv",Version21.csv,"Version 21","List 21",bugle,,622,4.541666667,348,623,BOI,-,-,"Please name all of the ways you could use this object. Keep in mind that one object can have many uses. Separate your responses with a comma.",,y,20531,,,15474,18428,,,,signals,1
J00717711_ACG,3asagjy4xo,"Affordance Norms_South Alabama",1,16,2022-12-01T18:31:10+00:00,12.849545001984,21,"updated stim.csv",Version21.csv,"Version 21","List 21",bell,,614,5.76,196,615,BOI,-,-,"Please name all of the ways you could use this object. Keep in mind that one object can have many uses. Separate your responses with a comma.",,y,12629,,,1476,10317,,,,"ring, singnals",1
J00717711_ACG,3asagjy4xo,"Affordance Norms_South Alabama",1,17,2022-12-01T18:31:39+00:00,28.827105998993,21,"updated stim.csv",Version21.csv,"Version 21","List 21",steroids,,623,4.52,2532,624,BOI,-,-,"Please name all of the ways you could use this object. Keep in mind that one object can have many uses. Separate your responses with a comma.",,y,28476,,,3340,27856,,,,"inject, pills",1
J00717711_ACG,3asagjy4xo,"Affordance Norms_South Alabama",1,18,2022-12-01T18:31:44+00:00,5.5600090026855,21,"updated stim.csv",Version21.csv,"Version 21","List 21",quill,,613,4.565217391,2115,614,BOI,-,-,"Please name all of the ways you could use this object. Keep in mind that one object can have many uses. Separate your responses with a comma.",,y,5353,,,2946,4763,,,,"coover up",1
J00717711_ACG,3asagjy4xo,"Affordance Norms_South Alabama",1,19,2022-12-01T18:32:06+00:00,21.579070806503,21,"updated stim.csv",Version21.csv,"Version 21","List 21",schoolhouse,,612,5.291666667,2272,613,BOI,-,-,"Please name all of the ways you could use this object. Keep in mind that one object can have many uses. Separate your responses with a comma.",,y,21154,,,4247,10137,,,,learning,1
J00717711_ACG,3asagjy4xo,"Affordance Norms_South Alabama",1,20,2022-12-01T18:32:17+00:00,11.172144174576,21,"updated stim.csv",Version21.csv,"Version 21","List 21",gangster,,601,4.36,1072,602,BOI,-,-,"Please name all of the ways you could use this object. Keep in mind that one object can have many uses. Separate your responses with a comma.",,y,10948,,,8828,10690,,,,streets,1
J00717711_ACG,3asagjy4xo,"Affordance Norms_South Alabama",1,21,2022-12-01T18:32:24+00:00,7.2218430042267,21,"updated stim.csv",Version21.csv,"Version 21","List 21",spinach,,626,4.96,2474,627,BOI,-,-,"Please name all of the ways you could use this object. Keep in mind that one object can have many uses. Separate your responses with a comma.",,y,7093,,,3061,4261,,,,eat,1
J00717711_ACG,3asagjy4xo,"Affordance Norms_South Alabama",1,22,2022-12-01T18:32:31+00:00,6.6450319290161,21,"updated stim.csv",Version21.csv,"Version 21","List 21",lizard,,606,4.925925926,1529,607,BOI,-,-,"Please name all of the ways you could use this object. Keep in mind that one object can have many uses. Separate your responses with a comma.",,y,6356,,,4659,5716,,,,N/A,1
J00717711_ACG,3asagjy4xo,"Affordance Norms_South Alabama",1,23,2022-12-01T18:32:41+00:00,10.090554952621,21,"updated stim.csv",Version21.csv,"Version 21","List 21",guesthouse,,627,4.913043478,1189,628,BOI,-,-,"Please name all of the ways you could use this object. Keep in mind that one object can have many uses. Separate your responses with a comma.",,y,9888,,,3273,9405,,,,"sleep, eat, drink, party",1
J00717711_ACG,3asagjy4xo,"Affordance Norms_South Alabama",1,24,2022-12-01T18:32:49+00:00,8.3736619949341,21,"updated stim.csv",Version21.csv,"Version 21","List 21",cadillac,,621,5.12,395,622,BOI,-,-,"Please name all of the ways you could use this object. Keep in mind that one object can have many uses. Separate your responses with a comma.",,y,7781,,,2965,7106,,,,transportation,1
J00717711_ACG,3asagjy4xo,"Affordance Norms_South Alabama",1,25,2022-12-01T18:34:03+00:00,73.648641109467,21,"updated stim.csv",Version21.csv,"Version 21","List 21",sunflower,,615,5.333333333,2587,616,BOI,-,-,"Please name all of the ways you could use this object. Keep in mind that one object can have many uses. Separate your responses with a comma.",,y,73392,,,70813,71752,,,,eat,1
J00717711_ACG,3asagjy4xo,"Affordance Norms_South Alabama",1,26,2022-12-01T18:34:12+00:00,8.797590970993,21,"updated stim.csv",Version21.csv,"Version 21","List 21",toiletry,,602,5.222222222,2720,603,BOI,-,-,"Please name all of the ways you could use this object. Keep in mind that one object can have many uses. Separate your responses with a comma.",,y,8585,,,2346,8159,,,,"wipe, clean",1
J00717711_ACG,3asagjy4xo,"Affordance Norms_South Alabama",1,27,2022-12-01T18:34:22+00:00,9.9425678253174,21,"updated stim.csv",Version21.csv,"Version 21","List 21",can,,619,4.88,408,620,BOI,-,-,"Please name all of the ways you could use this object. Keep in mind that one object can have many uses. Separate your responses with a comma.",,y,9684,,,1971,8789,,,,"throw, dispose",1
J00717711_ACG,3asagjy4xo,"Affordance Norms_South Alabama",1,28,2022-12-01T18:34:37+00:00,15.802669048309,21,"updated stim.csv",Version21.csv,"Version 21","List 21",washroom,,625,5.037037037,2901,626,BOI,-,-,"Please name all of the ways you could use this object. Keep in mind that one object can have many uses. Separate your responses with a comma.",,y,15548,,,1755,14834,,,,"wash, dry, fold, store",1
J00717711_ACG,3asagjy4xo,"Affordance Norms_South Alabama",1,29,2022-12-01T18:34:48+00:00,10.015712022781,21,"updated stim.csv",Version21.csv,"Version 21","List 21",checkerboard,,609,5.391304348,500,610,BOI,-,-,"Please name all of the ways you could use this object. Keep in mind that one object can have many uses. Separate your responses with a comma.",,y,9703,,,3913,9076,,,,gaming,1
J00717711_ACG,3asagjy4xo,"Affordance Norms_South Alabama",1,30,2022-12-01T18:34:56+00:00,8.3736691474915,21,"updated stim.csv",Version21.csv,"Version 21","List 21",splint,,618,4.958333333,2477,619,BOI,-,-,"Please name all of the ways you could use this object. Keep in mind that one object can have many uses. Separate your responses with a comma.",,y,8137,,,5434,7459,,,,N/A,1
J00717711_ACG,3asagjy4xo,"Affordance Norms_South Alabama",1,31,2022-12-01T18:35:10+00:00,13.884235858917,21,"updated stim.csv",Version21.csv,"Version 21","List 21",cutlery,,607,5.913043478,738,608,BOI,-,-,"Please name all of the ways you could use this object. Keep in mind that one object can have many uses. Separate your responses with a comma.",,y,13623,,,3241,12548,,,,"cut, eat",1
J00717711_ACG,3asagjy4xo,"Affordance Norms_South Alabama",1,32,2022-12-01T18:35:14+00:00,4.2932131290436,21,"updated stim.csv",Version21.csv,"Version 21","List 21",gumdrop,,628,5.875,1197,629,BOI,-,-,"Please name all of the ways you could use this object. Keep in mind that one object can have many uses. Separate your responses with a comma.",,y,4091,,,2764,3562,,,,eat,1
J00717711_ACG,3asagjy4xo,"Affordance Norms_South Alabama",1,33,2022-12-01T18:35:28+00:00,13.491253852844,21,"updated stim.csv",Version21.csv,"Version 21","List 21",organ,,611,5.185185185,1820,612,BOI,-,-,"Please name all of the ways you could use this object. Keep in mind that one object can have many uses. Separate your responses with a comma.",,y,13299,,,6696,12067,,,,?,1
J00717711_ACG,3asagjy4xo,"Affordance Norms_South Alabama",1,34,2022-12-01T18:35:32+00:00,4.795686006546,21,"updated stim.csv",Version21.csv,"Version 21","List 21",ring,,624,6.130434783,2170,625,BOI,-,-,"Please name all of the ways you could use this object. Keep in mind that one object can have many uses. Separate your responses with a comma.",,y,4622,,,2246,3266,,,,wear,1
J00717711_ACG,3asagjy4xo,"Affordance Norms_South Alabama",1,35,2022-12-01T18:35:38+00:00,5.7369539737701,21,"updated stim.csv",Version21.csv,"Version 21","List 21",iguana,,617,5.166666667,1350,618,BOI,-,-,"Please name all of the ways you could use this object. Keep in mind that one object can have many uses. Separate your responses with a comma.",,y,5502,,,2929,4464,,,,pet,1
J00717711_ACG,3asagjy4xo,"Affordance Norms_South Alabama",1,36,2022-12-01T18:35:41+00:00,2.8691639900208,21,"updated stim.csv",Version21.csv,"Version 21","List 21",frog,,604,5.125,1058,605,BOI,-,-,"Please name all of the ways you could use this object. Keep in mind that one object can have many uses. Separate your responses with a comma.",,y,2750,,,1351,2281,,,,pet,1
J00717711_ACG,3asagjy4xo,"Affordance Norms_South Alabama",1,37,2022-12-01T18:35:44+00:00,3.0843250751495,21,"updated stim.csv",Version21.csv,"Version 21","List 21",seaweed,,610,4.458333333,2304,611,BOI,-,-,"Please name all of the ways you could use this object. Keep in mind that one object can have many uses. Separate your responses with a comma.",,y,2930,,,1419,2248,,,,eat,1
J00717711_ACG,3asagjy4xo,"Affordance Norms_South Alabama",1,38,2022-12-01T18:35:49+00:00,5.4042069911957,21,"updated stim.csv",Version21.csv,"Version 21","List 21",muffler,,616,4.75,1712,617,BOI,-,-,"Please name all of the ways you could use this object. Keep in mind that one object can have many uses. Separate your responses with a comma.",,y,5293,,,4526,4526,,,,?,1
J00717711_ACG,3asagjy4xo,"Affordance Norms_South Alabama",1,39,2022-12-01T18:35:53+00:00,3.5651159286499,21,"updated stim.csv",Version21.csv,"Version 21","List 21",whore,,608,4.782608696,2933,609,BOI,-,-,"Please name all of the ways you could use this object. Keep in mind that one object can have many uses. Separate your responses with a comma.",,y,3427,,,2813,2813,,,,?,1
J00717711_ACG,3asagjy4xo,"Affordance Norms_South Alabama",1,40,2022-12-01T18:35:56+00:00,2.7295951843262,21,"updated stim.csv",Version21.csv,"Version 21","List 21",condominium,,620,4.678571429,623,621,BOI,-,-,"Please name all of the ways you could use this object. Keep in mind that one object can have many uses. Separate your responses with a comma.",,y,2611,,,2303,2303,,,,?,1
J00717711_ACG,3asagjy4xo,"Affordance Norms_South Alabama",1,41,2022-12-01T18:35:58+00:00,2.0604720115662,21,"updated stim.csv",Version21.csv,"Version 21","List 21",,,,,,0,Instruct,,,"You will now be asked a few questions about your experience today.",,"Instruct 4",1942,,,-1,-1,,,,,1
