Username,ID,ExperimentName,Session,Trial,Date,TimeDif,"Condition Number","Stimuli File","Order File","Condition Description","Condition Notes",Stimuli*Cue,Stimuli*Answer,Stimuli*Shuffle,"Stimuli*Stimuli Notes",Stimuli*Value,Procedure*Item,"Procedure*Trial Type","Procedure*Max Time","Procedure*Min Time",Procedure*Text,"Procedure*Procedure Notes",Procedure*Shuffle,Response*RT,Response*Response,Response*Accuracy,Response*RTfirst,Response*RTlast,Response*strictAcc,Response*lenientAcc,Response*focus,Response*JOL,Response*Focus
J00654313_cme,hll08xqe08,"Affordance Norms_South Alabama",1,1,2023-04-08T20:28:38+00:00,11.245472192764,58,"updated stim.csv",Version58.csv,"Version 58","List 58",,,,,,0,Instruct,-,10,"In this section, you will be presented with a series of objects. Please name as many possible uses for this object as you can think of by typing them in the box below each object.",,Instruct1,11110,,,-1,-1,,,,,1
J00654313_cme,hll08xqe08,"Affordance Norms_South Alabama",1,2,2023-04-08T20:28:50+00:00,11.126816987991,58,"updated stim.csv",Version58.csv,"Version 58","List 58",,,,,,0,Instruct,-,10,"Please keep in mind that a single object will have more than one use. For example, a ball can be thrown or can be bounced or even stepped on. When listing multiple uses for one object, please separate each use with a comma (i.e., thrown, bounced, stepped on)",,Instruct2,10955,,,-1,-1,,,,,1
J00654313_cme,hll08xqe08,"Affordance Norms_South Alabama",1,3,2023-04-08T20:28:52+00:00,2.0510628223419,58,"updated stim.csv",Version58.csv,"Version 58","List 58",,,,,,0,Instruct,-,-,"Before starting the experiment, you will complete a short practice sesstion. Press ENTER when you are ready to begin.",,Instruct3,1912,,,-1,-1,,,,,1
J00654313_cme,hll08xqe08,"Affordance Norms_South Alabama",1,4,2023-04-08T20:29:14+00:00,22.556821107864,58,"updated stim.csv",Version58.csv,"Version 58","List 58",spaghetti,,3003,6,2461,3004,BOI,-,-,"Please name all of the ways you could use this object. Keep in mind that one object can have many uses. Separate your responses with a comma.",,n,22381,,,1914,5838,,,,eaten,1
J00654313_cme,hll08xqe08,"Affordance Norms_South Alabama",1,5,2023-04-08T20:29:40+00:00,26.125819921494,58,"updated stim.csv",Version58.csv,"Version 58","List 58",paperwork,,3001,5.625,1866,3002,BOI,-,-,"Please name all of the ways you could use this object. Keep in mind that one object can have many uses. Separate your responses with a comma.",,n,25958,,,2621,25389,,,,"thrown away, filed, origami folded",1
J00654313_cme,hll08xqe08,"Affordance Norms_South Alabama",1,6,2023-04-08T20:30:14+00:00,33.413078069687,58,"updated stim.csv",Version58.csv,"Version 58","List 58",shortening,,3002,4.92,2358,3003,BOI,-,-,"Please name all of the ways you could use this object. Keep in mind that one object can have many uses. Separate your responses with a comma.",,n,33237,,,11715,13107,,,,baked,0.718
J00654313_cme,hll08xqe08,"Affordance Norms_South Alabama",1,7,2023-04-08T20:30:32+00:00,18.698948860168,58,"updated stim.csv",Version58.csv,"Version 58","List 58",saucer,,3005,5.777777778,2249,3006,BOI,-,-,"Please name all of the ways you could use this object. Keep in mind that one object can have many uses. Separate your responses with a comma.",,n,18551,,,7732,15860,,,,"smashed, plated, washed",0.932
J00654313_cme,hll08xqe08,"Affordance Norms_South Alabama",1,8,2023-04-08T20:30:53+00:00,20.742906093597,58,"updated stim.csv",Version58.csv,"Version 58","List 58",grain,,3004,5.217391304,1143,3005,BOI,-,-,"Please name all of the ways you could use this object. Keep in mind that one object can have many uses. Separate your responses with a comma.",,n,20580,,,11110,13904,,,,"processed, fed",0.94
J00654313_cme,hll08xqe08,"Affordance Norms_South Alabama",1,9,2023-04-08T20:30:55+00:00,1.9418079853058,58,"updated stim.csv",Version58.csv,"Version 58","List 58",,,,,,0,Instruct,-,-,"You have completed this section. Press ENTER to continue",,"Instruct 5",1811,,,-1,-1,,,,,1
J00654313_cme,hll08xqe08,"Affordance Norms_South Alabama",1,10,2023-04-08T20:30:56+00:00,0.97215414047241,58,"updated stim.csv",Version58.csv,"Version 58","List 58",,,,,,0,Instruct,-,-,"You will now start the full experiment. Press ENTER when you are ready to begin.",,,860,,,-1,-1,,,,,1
J00654313_cme,hll08xqe08,"Affordance Norms_South Alabama",1,11,2023-04-08T20:31:06+00:00,10.269693851471,58,"updated stim.csv",Version58.csv,"Version 58","List 58",sideburns,,1719,5.166666667,2375,1720,BOI,-,-,"Please name all of the ways you could use this object. Keep in mind that one object can have many uses. Separate your responses with a comma.",,y,10123,,,2316,7155,,,,"shaved, brushed, grown",1
J00654313_cme,hll08xqe08,"Affordance Norms_South Alabama",1,12,2023-04-08T20:31:53+00:00,46.886872053146,58,"updated stim.csv",Version58.csv,"Version 58","List 58",newsboy,,1729,4.869565217,1756,1730,BOI,-,-,"Please name all of the ways you could use this object. Keep in mind that one object can have many uses. Separate your responses with a comma.",,y,46750,,,7962,43551,,,,"speak to, listen, pay, insult",0.982
J00654313_cme,hll08xqe08,"Affordance Norms_South Alabama",1,13,2023-04-08T20:32:24+00:00,30.973426103592,58,"updated stim.csv",Version58.csv,"Version 58","List 58",lozenge,,1714,5.4,1553,1715,BOI,-,-,"Please name all of the ways you could use this object. Keep in mind that one object can have many uses. Separate your responses with a comma.",,y,30809,,,26408,29806,,,,"swallowed, melted, thrown away",0.623
J00654313_cme,hll08xqe08,"Affordance Norms_South Alabama",1,14,2023-04-08T20:32:48+00:00,24.200227975845,58,"updated stim.csv",Version58.csv,"Version 58","List 58",crouton,,1716,5.724137931,709,1717,BOI,-,-,"Please name all of the ways you could use this object. Keep in mind that one object can have many uses. Separate your responses with a comma.",,y,24057,,,2457,18098,,,,"eaten, salad topping, crushed",1
J00654313_cme,hll08xqe08,"Affordance Norms_South Alabama",1,15,2023-04-08T20:33:27+00:00,38.83474779129,58,"updated stim.csv",Version58.csv,"Version 58","List 58",jersey,,1711,5.8,1382,1712,BOI,-,-,"Please name all of the ways you could use this object. Keep in mind that one object can have many uses. Separate your responses with a comma.",,y,38704,,,6981,37755,,,,"worn, cut, burnt, waved as a flag",0.965
J00654313_cme,hll08xqe08,"Affordance Norms_South Alabama",1,16,2023-04-08T20:34:02+00:00,35.279407024384,58,"updated stim.csv",Version58.csv,"Version 58","List 58",door,,1731,6.217391304,821,1732,BOI,-,-,"Please name all of the ways you could use this object. Keep in mind that one object can have many uses. Separate your responses with a comma.",,y,35117,,,3136,33744,,,,"open, shut, listened through",1
J00654313_cme,hll08xqe08,"Affordance Norms_South Alabama",1,17,2023-04-08T20:34:17+00:00,14.657783031464,58,"updated stim.csv",Version58.csv,"Version 58","List 58",mullet,,1727,4.518518519,1717,1728,BOI,-,-,"Please name all of the ways you could use this object. Keep in mind that one object can have many uses. Separate your responses with a comma.",,y,14485,,,2013,10387,,,,"shaved, pulled, worn",1
J00654313_cme,hll08xqe08,"Affordance Norms_South Alabama",1,18,2023-04-08T20:34:46+00:00,29.062026977539,58,"updated stim.csv",Version58.csv,"Version 58","List 58",tickler,,1738,4.76,2693,1739,BOI,-,-,"Please name all of the ways you could use this object. Keep in mind that one object can have many uses. Separate your responses with a comma.",,y,28907,,,12630,24806,,,,"dusting, sneeze coaxing, tickling",0.882
J00654313_cme,hll08xqe08,"Affordance Norms_South Alabama",1,19,2023-04-08T20:35:34+00:00,47.505663156509,58,"updated stim.csv",Version58.csv,"Version 58","List 58",whisker,,1722,4.863636364,2928,1723,BOI,-,-,"Please name all of the ways you could use this object. Keep in mind that one object can have many uses. Separate your responses with a comma.",,y,47379,,,12921,34259,,,,stirring,0.967
J00654313_cme,hll08xqe08,"Affordance Norms_South Alabama",1,20,2023-04-08T20:36:12+00:00,37.834050893784,58,"updated stim.csv",Version58.csv,"Version 58","List 58",squeegee,,1713,5.875,2493,1714,BOI,-,-,"Please name all of the ways you could use this object. Keep in mind that one object can have many uses. Separate your responses with a comma.",,y,37665,,,10866,36674,,,,"cleaning, water removal",0.781
J00654313_cme,hll08xqe08,"Affordance Norms_South Alabama",1,21,2023-04-08T20:37:20+00:00,68.97411108017,58,"updated stim.csv",Version58.csv,"Version 58","List 58",ground,,1725,5.875,1182,1726,BOI,-,-,"Please name all of the ways you could use this object. Keep in mind that one object can have many uses. Separate your responses with a comma.",,y,68797,,,8569,60839,,,,"step on, dig through, run on, play on, growing plants",0.981
J00654313_cme,hll08xqe08,"Affordance Norms_South Alabama",1,22,2023-04-08T20:38:22+00:00,61.189944982529,58,"updated stim.csv",Version58.csv,"Version 58","List 58",tampon,,1730,6.208333333,2629,1731,BOI,-,-,"Please name all of the ways you could use this object. Keep in mind that one object can have many uses. Separate your responses with a comma.",,y,61041,,,5604,18451,,,,"hygiene, liquid absorption",0.78
J00654313_cme,hll08xqe08,"Affordance Norms_South Alabama",1,23,2023-04-08T20:39:00+00:00,38.326402902603,58,"updated stim.csv",Version58.csv,"Version 58","List 58",tailor,,1717,5.130434783,2626,1718,BOI,-,-,"Please name all of the ways you could use this object. Keep in mind that one object can have many uses. Separate your responses with a comma.",,y,38164,,,13847,33265,,,,"purchasing clothes, suit fitting, conversation",0.942
J00654313_cme,hll08xqe08,"Affordance Norms_South Alabama",1,24,2023-04-08T20:39:58+00:00,58.116955041885,58,"updated stim.csv",Version58.csv,"Version 58","List 58",postcard,,1718,5.76,2042,1719,BOI,-,-,"Please name all of the ways you could use this object. Keep in mind that one object can have many uses. Separate your responses with a comma.",,y,57945,,,10209,20922,,,,"sending, reading, burning",0.833
J00654313_cme,hll08xqe08,"Affordance Norms_South Alabama",1,25,2023-04-08T20:40:36+00:00,38.366245985031,58,"updated stim.csv",Version58.csv,"Version 58","List 58",supervisor,,1715,4.269230769,2591,1716,BOI,-,-,"Please name all of the ways you could use this object. Keep in mind that one object can have many uses. Separate your responses with a comma.",,y,38220,,,7250,37889,,,,"work assessment, conversation, complaint filing, pay raises",0.977
J00654313_cme,hll08xqe08,"Affordance Norms_South Alabama",1,26,2023-04-08T20:41:53+00:00,76.441559076309,58,"updated stim.csv",Version58.csv,"Version 58","List 58",cleavage,,1712,4.625,553,1713,BOI,-,-,"Please name all of the ways you could use this object. Keep in mind that one object can have many uses. Separate your responses with a comma.",,y,76305,,,59878,75245,,,,feeling?,0.389
J00654313_cme,hll08xqe08,"Affordance Norms_South Alabama",1,27,2023-04-08T20:42:33+00:00,40.350180864334,58,"updated stim.csv",Version58.csv,"Version 58","List 58",Wheelchair,,1726,6.132791328,2923,1727,BOI,-,-,"Please name all of the ways you could use this object. Keep in mind that one object can have many uses. Separate your responses with a comma.",,y,40154,,,7731,39282,,,,"travel, pushing, racing",0.995
J00654313_cme,hll08xqe08,"Affordance Norms_South Alabama",1,28,2023-04-08T20:43:14+00:00,40.229781150818,58,"updated stim.csv",Version58.csv,"Version 58","List 58",examiner,,1740,4.565217391,924,1741,BOI,-,-,"Please name all of the ways you could use this object. Keep in mind that one object can have many uses. Separate your responses with a comma.",,y,40079,,,17938,39119,,,,"improvement, blame",0.973
J00654313_cme,hll08xqe08,"Affordance Norms_South Alabama",1,29,2023-04-08T20:43:51+00:00,37.374135017395,58,"updated stim.csv",Version58.csv,"Version 58","List 58",tabloid,,1739,4.52173913,2621,1740,BOI,-,-,"Please name all of the ways you could use this object. Keep in mind that one object can have many uses. Separate your responses with a comma.",,y,37205,,,2496,36113,,,,"read, gossip, burn, origami, dispose, republish",1
J00654313_cme,hll08xqe08,"Affordance Norms_South Alabama",1,30,2023-04-08T20:44:30+00:00,39.024602890015,58,"updated stim.csv",Version58.csv,"Version 58","List 58",bulldozer,,1723,4.565217391,352,1724,BOI,-,-,"Please name all of the ways you could use this object. Keep in mind that one object can have many uses. Separate your responses with a comma.",,y,38844,,,10603,32707,,,,"demolish, ride, move",0.951
J00654313_cme,hll08xqe08,"Affordance Norms_South Alabama",1,31,2023-04-08T20:47:01+00:00,151.50970697403,58,"updated stim.csv",Version58.csv,"Version 58","List 58",robber,,1734,4.464285714,2180,1735,BOI,-,-,"Please name all of the ways you could use this object. Keep in mind that one object can have many uses. Separate your responses with a comma.",,y,151365,,,100074,147285,,,,"report, attack",0.723
J00654313_cme,hll08xqe08,"Affordance Norms_South Alabama",1,32,2023-04-08T20:47:36+00:00,34.148699998856,58,"updated stim.csv",Version58.csv,"Version 58","List 58",tulip,,1724,5.217391304,2794,1725,BOI,-,-,"Please name all of the ways you could use this object. Keep in mind that one object can have many uses. Separate your responses with a comma.",,y,33967,,,2311,31216,,,,"smell, gift, press, decoration, appreciate",1
J00654313_cme,hll08xqe08,"Affordance Norms_South Alabama",1,33,2023-04-08T20:48:09+00:00,32.979770183563,58,"updated stim.csv",Version58.csv,"Version 58","List 58",shoe,,1721,6.458333333,2349,1722,BOI,-,-,"Please name all of the ways you could use this object. Keep in mind that one object can have many uses. Separate your responses with a comma.",,y,32832,,,1362,32271,,,,"wear, run, walk, stomp, kick",1
J00654313_cme,hll08xqe08,"Affordance Norms_South Alabama",1,34,2023-04-08T20:48:55+00:00,46.739647865295,58,"updated stim.csv",Version58.csv,"Version 58","List 58",hen,,1728,4.652173913,1279,1729,BOI,-,-,"Please name all of the ways you could use this object. Keep in mind that one object can have many uses. Separate your responses with a comma.",,y,46595,,,5788,45490,,,,"raise, feed, pet, slaughter, egg production",1
J00654313_cme,hll08xqe08,"Affordance Norms_South Alabama",1,35,2023-04-08T20:49:19+00:00,23.489845991135,58,"updated stim.csv",Version58.csv,"Version 58","List 58",guitarist,,1732,4.75,1194,1733,BOI,-,-,"Please name all of the ways you could use this object. Keep in mind that one object can have many uses. Separate your responses with a comma.",,y,23312,,,2910,21814,,,,"listen, pay, conversation, jam",1
J00654313_cme,hll08xqe08,"Affordance Norms_South Alabama",1,36,2023-04-08T20:50:01+00:00,42.552268028259,58,"updated stim.csv",Version58.csv,"Version 58","List 58",sketch,,1720,4.88,2393,1721,BOI,-,-,"Please name all of the ways you could use this object. Keep in mind that one object can have many uses. Separate your responses with a comma.",,y,42385,,,3106,37434,,,,"frame, redraw, dispose, burn, sell, purchase, appreciate",1
J00654313_cme,hll08xqe08,"Affordance Norms_South Alabama",1,37,2023-04-08T20:50:34+00:00,33.054588079453,58,"updated stim.csv",Version58.csv,"Version 58","List 58",starch,,1735,4.416666667,2509,1736,BOI,-,-,"Please name all of the ways you could use this object. Keep in mind that one object can have many uses. Separate your responses with a comma.",,y,32889,,,24234,32113,,,,"thicken, bake, eat",0.565
J00654313_cme,hll08xqe08,"Affordance Norms_South Alabama",1,38,2023-04-08T20:51:01+00:00,26.828756809235,58,"updated stim.csv",Version58.csv,"Version 58","List 58",spices,,1737,5.391304348,2471,1738,BOI,-,-,"Please name all of the ways you could use this object. Keep in mind that one object can have many uses. Separate your responses with a comma.",,y,26647,,,11993,25377,,,,"enhance food, eat, bake, prank",1
J00654313_cme,hll08xqe08,"Affordance Norms_South Alabama",1,39,2023-04-08T20:51:33+00:00,31.521164178848,58,"updated stim.csv",Version58.csv,"Version 58","List 58",receptionist,,1733,4.68,2146,1734,BOI,-,-,"Please name all of the ways you could use this object. Keep in mind that one object can have many uses. Separate your responses with a comma.",,y,31348,,,14885,29868,,,,"book, conversation, help",0.906
J00654313_cme,hll08xqe08,"Affordance Norms_South Alabama",1,40,2023-04-08T20:52:06+00:00,33.750949859619,58,"updated stim.csv",Version58.csv,"Version 58","List 58",shutter,,1736,4.541666667,2371,1737,BOI,-,-,"Please name all of the ways you could use this object. Keep in mind that one object can have many uses. Separate your responses with a comma.",,y,33607,,,18626,30161,,,,"obscure, open, close",0.874
J00654313_cme,hll08xqe08,"Affordance Norms_South Alabama",1,41,2023-04-08T20:52:08+00:00,1.3337790966034,58,"updated stim.csv",Version58.csv,"Version 58","List 58",,,,,,0,Instruct,,,"You will now be asked a few questions about your experience today.",,"Instruct 4",1234,,,-1,-1,,,,,1
