Username,ID,ExperimentName,Session,Trial,Date,TimeDif,"Condition Number","Stimuli File","Order File","Condition Description","Condition Notes",Stimuli*Cue,Stimuli*Answer,Stimuli*Shuffle,"Stimuli*Stimuli Notes",Stimuli*Value,Procedure*Item,"Procedure*Trial Type","Procedure*Max Time","Procedure*Min Time",Procedure*Text,"Procedure*Procedure Notes",Procedure*Shuffle,Response*RT,Response*Response,Response*Accuracy,Response*RTfirst,Response*RTlast,Response*strictAcc,Response*lenientAcc,Response*focus,Response*JOL,Response*Focus
arsha.tone@uconn.edu,4lvften5wx,"Affordance Norms_UCONN",1,1,2022-11-14T16:48:27+00:00,14.190284967422,5,"updated stim.csv",Version55.csv,"Version 55","List 55",,,,,,0,Instruct,-,10,"In this section, you will be presented with a series of objects. Please name as many possible uses for this object as you can think of by typing them in the box below each object.",,Instruct1,13979,,,-1,-1,,,,,1
arsha.tone@uconn.edu,4lvften5wx,"Affordance Norms_UCONN",1,2,2022-11-14T16:48:39+00:00,11.873920917511,5,"updated stim.csv",Version55.csv,"Version 55","List 55",,,,,,0,Instruct,-,10,"Please keep in mind that a single object will have more than one use. For example, a ball can be thrown or can be bounced or even stepped on. When listing multiple uses for one object, please separate each use with a comma (i.e., thrown, bounced, stepped on)",,Instruct2,11578,,,-1,-1,,,,,1
arsha.tone@uconn.edu,4lvften5wx,"Affordance Norms_UCONN",1,3,2022-11-14T16:48:44+00:00,5.2672209739685,5,"updated stim.csv",Version55.csv,"Version 55","List 55",,,,,,0,Instruct,-,-,"Before starting the experiment, you will complete a short practice sesstion. Press ENTER when you are ready to begin.",,Instruct3,4986,,,-1,-1,,,,,1
arsha.tone@uconn.edu,4lvften5wx,"Affordance Norms_UCONN",1,4,2022-11-14T16:49:09+00:00,25.694289922714,5,"updated stim.csv",Version55.csv,"Version 55","List 55",paperwork,,3001,5.625,1866,3002,BOI,-,-,"Please name all of the ways you could use this object. Keep in mind that one object can have many uses. Separate your responses with a comma.",,n,25401,,,9164,24311,,,,"write, read, sign, confirm, consent",1
arsha.tone@uconn.edu,4lvften5wx,"Affordance Norms_UCONN",1,5,2022-11-14T16:49:22+00:00,12.012545108795,5,"updated stim.csv",Version55.csv,"Version 55","List 55",grain,,3004,5.217391304,1143,3005,BOI,-,-,"Please name all of the ways you could use this object. Keep in mind that one object can have many uses. Separate your responses with a comma.",,n,11724,,,1906,10677,,,,"eat, cook, grow",1
arsha.tone@uconn.edu,4lvften5wx,"Affordance Norms_UCONN",1,6,2022-11-14T16:49:33+00:00,11.3818359375,5,"updated stim.csv",Version55.csv,"Version 55","List 55",spaghetti,,3003,6,2461,3004,BOI,-,-,"Please name all of the ways you could use this object. Keep in mind that one object can have many uses. Separate your responses with a comma.",,n,11076,,,1325,9518,,,,"eat, cook, throw on wall",1
arsha.tone@uconn.edu,4lvften5wx,"Affordance Norms_UCONN",1,7,2022-11-14T16:49:50+00:00,16.760776042938,5,"updated stim.csv",Version55.csv,"Version 55","List 55",shortening,,3002,4.92,2358,3003,BOI,-,-,"Please name all of the ways you could use this object. Keep in mind that one object can have many uses. Separate your responses with a comma.",,n,16458,,,7043,15377,,,,"not an object",1
arsha.tone@uconn.edu,4lvften5wx,"Affordance Norms_UCONN",1,8,2022-11-14T16:50:09+00:00,18.977783918381,5,"updated stim.csv",Version55.csv,"Version 55","List 55",saucer,,3005,5.777777778,2249,3006,BOI,-,-,"Please name all of the ways you could use this object. Keep in mind that one object can have many uses. Separate your responses with a comma.",,n,18689,,,2559,16731,,,,"eat, give to pet to eat, store food, cook",1
arsha.tone@uconn.edu,4lvften5wx,"Affordance Norms_UCONN",1,9,2022-11-14T16:50:11+00:00,1.9228241443634,5,"updated stim.csv",Version55.csv,"Version 55","List 55",,,,,,0,Instruct,-,-,"You have completed this section. Press ENTER to continue",,"Instruct 5",1763,,,-1,-1,,,,,1
arsha.tone@uconn.edu,4lvften5wx,"Affordance Norms_UCONN",1,10,2022-11-14T16:50:12+00:00,1.6922419071198,5,"updated stim.csv",Version55.csv,"Version 55","List 55",,,,,,0,Instruct,-,-,"You will now start the full experiment. Press ENTER when you are ready to begin.",,,1524,,,-1,-1,,,,,1
arsha.tone@uconn.edu,4lvften5wx,"Affordance Norms_UCONN",1,11,2022-11-14T16:50:32+00:00,19.559376955032,5,"updated stim.csv",Version55.csv,"Version 55","List 55",ship,,1635,5.2,2343,1636,BOI,-,-,"Please name all of the ways you could use this object. Keep in mind that one object can have many uses. Separate your responses with a comma.",,y,19260,,,3143,17980,,,,"sail, live, go for a ride",1
arsha.tone@uconn.edu,4lvften5wx,"Affordance Norms_UCONN",1,12,2022-11-14T16:50:42+00:00,10.252258062363,5,"updated stim.csv",Version55.csv,"Version 55","List 55",shrimp,,1625,4.909090909,2366,1626,BOI,-,-,"Please name all of the ways you could use this object. Keep in mind that one object can have many uses. Separate your responses with a comma.",,y,9963,,,1378,8526,,,,"eat, cook, watch it swim",1
arsha.tone@uconn.edu,4lvften5wx,"Affordance Norms_UCONN",1,13,2022-11-14T16:50:56+00:00,14.148824930191,5,"updated stim.csv",Version55.csv,"Version 55","List 55",brandy,,1632,5.64,304,1633,BOI,-,-,"Please name all of the ways you could use this object. Keep in mind that one object can have many uses. Separate your responses with a comma.",,y,13862,,,1710,6925,,,,"drink, keep as decor",1
arsha.tone@uconn.edu,4lvften5wx,"Affordance Norms_UCONN",1,14,2022-11-14T16:51:06+00:00,9.5539522171021,5,"updated stim.csv",Version55.csv,"Version 55","List 55",stationery,,1644,4.608695652,2511,1645,BOI,-,-,"Please name all of the ways you could use this object. Keep in mind that one object can have many uses. Separate your responses with a comma.",,y,9266,,,1833,6990,,,,"draw, paint, write",1
arsha.tone@uconn.edu,4lvften5wx,"Affordance Norms_UCONN",1,15,2022-11-14T16:51:15+00:00,9.0958847999573,5,"updated stim.csv",Version55.csv,"Version 55","List 55",entertainer,,1623,4.964285714,910,1624,BOI,-,-,"Please name all of the ways you could use this object. Keep in mind that one object can have many uses. Separate your responses with a comma.",,y,8809,,,2787,7001,,,,"entertain, talk",1
arsha.tone@uconn.edu,4lvften5wx,"Affordance Norms_UCONN",1,16,2022-11-14T16:51:48+00:00,33.304079055786,5,"updated stim.csv",Version55.csv,"Version 55","List 55",rook,,1636,4.772727273,2188,1637,BOI,-,-,"Please name all of the ways you could use this object. Keep in mind that one object can have many uses. Separate your responses with a comma.",,y,33013,,,17961,31336,,,,"not an object",0.933
arsha.tone@uconn.edu,4lvften5wx,"Affordance Norms_UCONN",1,17,2022-11-14T16:52:01+00:00,12.374140977859,5,"updated stim.csv",Version55.csv,"Version 55","List 55",library,,1629,4.391304348,1499,1630,BOI,-,-,"Please name all of the ways you could use this object. Keep in mind that one object can have many uses. Separate your responses with a comma.",,y,12064,,,1415,8922,,,,"read, study, browse around",1
arsha.tone@uconn.edu,4lvften5wx,"Affordance Norms_UCONN",1,18,2022-11-14T16:52:18+00:00,17.10893201828,5,"updated stim.csv",Version55.csv,"Version 55","List 55",stairs,,1643,5.88,2501,1644,BOI,-,-,"Please name all of the ways you could use this object. Keep in mind that one object can have many uses. Separate your responses with a comma.",,y,16819,,,1714,15669,,,,"walk, run, skip, sit, stand",1
arsha.tone@uconn.edu,4lvften5wx,"Affordance Norms_UCONN",1,19,2022-11-14T16:52:27+00:00,9.5241839885712,5,"updated stim.csv",Version55.csv,"Version 55","List 55",chowder,,1633,4.96,537,1634,BOI,-,-,"Please name all of the ways you could use this object. Keep in mind that one object can have many uses. Separate your responses with a comma.",,y,9244,,,2233,8087,,,,"eat, drink, slurp",1
arsha.tone@uconn.edu,4lvften5wx,"Affordance Norms_UCONN",1,20,2022-11-14T16:52:39+00:00,11.974425077438,5,"updated stim.csv",Version55.csv,"Version 55","List 55",pearl,,1621,5.555555556,1896,1622,BOI,-,-,"Please name all of the ways you could use this object. Keep in mind that one object can have many uses. Separate your responses with a comma.",,y,11689,,,1510,7754,,,,"wear, keep as decor",1
arsha.tone@uconn.edu,4lvften5wx,"Affordance Norms_UCONN",1,21,2022-11-14T16:53:01+00:00,21.803273916245,5,"updated stim.csv",Version55.csv,"Version 55","List 55",pouch,,1648,5.178571429,2052,1649,BOI,-,-,"Please name all of the ways you could use this object. Keep in mind that one object can have many uses. Separate your responses with a comma.",,y,21511,,,2281,18078,,,,"store money, accessorize",1
arsha.tone@uconn.edu,4lvften5wx,"Affordance Norms_UCONN",1,22,2022-11-14T16:53:05+00:00,4.0175731182098,5,"updated stim.csv",Version55.csv,"Version 55","List 55",altar,,1639,4.782608696,30,1640,BOI,-,-,"Please name all of the ways you could use this object. Keep in mind that one object can have many uses. Separate your responses with a comma.",,y,3859,,,1881,2466,,,,walk,1
arsha.tone@uconn.edu,4lvften5wx,"Affordance Norms_UCONN",1,23,2022-11-14T16:53:19+00:00,14.33335185051,5,"updated stim.csv",Version55.csv,"Version 55","List 55",teammate,,1624,5.074074074,2648,1625,BOI,-,-,"Please name all of the ways you could use this object. Keep in mind that one object can have many uses. Separate your responses with a comma.",,y,14037,,,6853,10282,,,,"talk, hangout",1
arsha.tone@uconn.edu,4lvften5wx,"Affordance Norms_UCONN",1,24,2022-11-14T16:53:43+00:00,23.967187166214,5,"updated stim.csv",Version55.csv,"Version 55","List 55",frankfurter,,1626,5.708333333,1054,1627,BOI,-,-,"Please name all of the ways you could use this object. Keep in mind that one object can have many uses. Separate your responses with a comma.",,y,23676,,,20913,21782,,,,eat,0.829
arsha.tone@uconn.edu,4lvften5wx,"Affordance Norms_UCONN",1,25,2022-11-14T16:53:59+00:00,15.37016582489,5,"updated stim.csv",Version55.csv,"Version 55","List 55",customer,,1642,5.541666667,736,1643,BOI,-,-,"Please name all of the ways you could use this object. Keep in mind that one object can have many uses. Separate your responses with a comma.",,y,15063,,,4915,14146,,,,"give service",1
arsha.tone@uconn.edu,4lvften5wx,"Affordance Norms_UCONN",1,26,2022-11-14T16:54:11+00:00,12.837476015091,5,"updated stim.csv",Version55.csv,"Version 55","List 55",bunion,,1641,4.36,359,1642,BOI,-,-,"Please name all of the ways you could use this object. Keep in mind that one object can have many uses. Separate your responses with a comma.",,y,12542,,,-1,-1,,,,,0.793
arsha.tone@uconn.edu,4lvften5wx,"Affordance Norms_UCONN",1,27,2022-11-14T16:54:28+00:00,16.955433130264,5,"updated stim.csv",Version55.csv,"Version 55","List 55",valve,,1628,4.869565217,2835,1629,BOI,-,-,"Please name all of the ways you could use this object. Keep in mind that one object can have many uses. Separate your responses with a comma.",,y,16652,,,6600,15519,,,,"transport blood and other fluids",1
arsha.tone@uconn.edu,4lvften5wx,"Affordance Norms_UCONN",1,28,2022-11-14T16:54:35+00:00,6.0793979167938,5,"updated stim.csv",Version55.csv,"Version 55","List 55",scab,,1631,4.958333333,2258,1632,BOI,-,-,"Please name all of the ways you could use this object. Keep in mind that one object can have many uses. Separate your responses with a comma.",,y,5751,,,2019,4396,,,,"pick at it",1
arsha.tone@uconn.edu,4lvften5wx,"Affordance Norms_UCONN",1,29,2022-11-14T16:54:36+00:00,1.3964040279388,5,"updated stim.csv",Version55.csv,"Version 55","List 55",soy,,1647,4.785714286,2457,1648,BOI,-,-,"Please name all of the ways you could use this object. Keep in mind that one object can have many uses. Separate your responses with a comma.",,y,1230,,,-1,-1,,,,,1
arsha.tone@uconn.edu,4lvften5wx,"Affordance Norms_UCONN",1,30,2022-11-14T16:54:38+00:00,1.7594659328461,5,"updated stim.csv",Version55.csv,"Version 55","List 55",colt,,1650,4.916666667,605,1651,BOI,-,-,"Please name all of the ways you could use this object. Keep in mind that one object can have many uses. Separate your responses with a comma.",,y,1600,,,-1,-1,,,,,1
arsha.tone@uconn.edu,4lvften5wx,"Affordance Norms_UCONN",1,31,2022-11-14T16:54:41+00:00,3.5620541572571,5,"updated stim.csv",Version55.csv,"Version 55","List 55",fawn,,1634,4.535714286,954,1635,BOI,-,-,"Please name all of the ways you could use this object. Keep in mind that one object can have many uses. Separate your responses with a comma.",,y,3398,,,-1,-1,,,,,1
arsha.tone@uconn.edu,4lvften5wx,"Affordance Norms_UCONN",1,32,2022-11-14T16:54:42+00:00,1.0434629917145,5,"updated stim.csv",Version55.csv,"Version 55","List 55",breeches,,1622,4.666666667,316,1623,BOI,-,-,"Please name all of the ways you could use this object. Keep in mind that one object can have many uses. Separate your responses with a comma.",,y,881,,,-1,-1,,,,,1
arsha.tone@uconn.edu,4lvften5wx,"Affordance Norms_UCONN",1,33,2022-11-14T16:54:57+00:00,15.158288955688,5,"updated stim.csv",Version55.csv,"Version 55","List 55",chicken,,1630,5.5,517,1631,BOI,-,-,"Please name all of the ways you could use this object. Keep in mind that one object can have many uses. Separate your responses with a comma.",,y,14873,,,1332,13805,,,,"eat, have as pet, use for eggs",1
arsha.tone@uconn.edu,4lvften5wx,"Affordance Norms_UCONN",1,34,2022-11-14T16:55:15+00:00,17.486145019531,5,"updated stim.csv",Version55.csv,"Version 55","List 55",computer,,1627,6.714285714,616,1628,BOI,-,-,"Please name all of the ways you could use this object. Keep in mind that one object can have many uses. Separate your responses with a comma.",,y,17196,,,2342,15343,,,,"read, write, learn, entertainment",1
arsha.tone@uconn.edu,4lvften5wx,"Affordance Norms_UCONN",1,35,2022-11-14T16:55:16+00:00,1.1256039142609,5,"updated stim.csv",Version55.csv,"Version 55","List 55",shuffleboard,,1646,5.130434783,2370,1647,BOI,-,-,"Please name all of the ways you could use this object. Keep in mind that one object can have many uses. Separate your responses with a comma.",,y,959,,,-1,-1,,,,,1
arsha.tone@uconn.edu,4lvften5wx,"Affordance Norms_UCONN",1,36,2022-11-14T16:55:21+00:00,4.4690139293671,5,"updated stim.csv",Version55.csv,"Version 55","List 55",basement,,1637,4.6,159,1638,BOI,-,-,"Please name all of the ways you could use this object. Keep in mind that one object can have many uses. Separate your responses with a comma.",,y,4131,,,1852,2745,,,,live,1
arsha.tone@uconn.edu,4lvften5wx,"Affordance Norms_UCONN",1,37,2022-11-14T16:55:22+00:00,1.1139760017395,5,"updated stim.csv",Version55.csv,"Version 55","List 55",appendage,,1640,5,59,1641,BOI,-,-,"Please name all of the ways you could use this object. Keep in mind that one object can have many uses. Separate your responses with a comma.",,y,931,,,-1,-1,,,,,1
arsha.tone@uconn.edu,4lvften5wx,"Affordance Norms_UCONN",1,38,2022-11-14T16:55:23+00:00,1.2987570762634,5,"updated stim.csv",Version55.csv,"Version 55","List 55",steel,,1649,4.884615385,2517,1650,BOI,-,-,"Please name all of the ways you could use this object. Keep in mind that one object can have many uses. Separate your responses with a comma.",,y,1137,,,-1,-1,,,,,1
arsha.tone@uconn.edu,4lvften5wx,"Affordance Norms_UCONN",1,39,2022-11-14T16:55:27+00:00,4.0775051116943,5,"updated stim.csv",Version55.csv,"Version 55","List 55",leash,,1645,5.708333333,1479,1646,BOI,-,-,"Please name all of the ways you could use this object. Keep in mind that one object can have many uses. Separate your responses with a comma.",,y,3922,,,-1,-1,,,,,1
arsha.tone@uconn.edu,4lvften5wx,"Affordance Norms_UCONN",1,40,2022-11-14T16:55:34+00:00,7.2428858280182,5,"updated stim.csv",Version55.csv,"Version 55","List 55",dishwater,,1638,5.2,804,1639,BOI,-,-,"Please name all of the ways you could use this object. Keep in mind that one object can have many uses. Separate your responses with a comma.",,y,6936,,,3235,5465,,,,"water plants",1
arsha.tone@uconn.edu,4lvften5wx,"Affordance Norms_UCONN",1,41,2022-11-14T16:55:37+00:00,2.7576069831848,5,"updated stim.csv",Version55.csv,"Version 55","List 55",,,,,,0,Instruct,,,"You will now be asked a few questions about your experience today.",,"Instruct 4",2591,,,-1,-1,,,,,1
