"Username","ID","ExperimentName","Session","Trial","Date","TimeDif","Condition.Number","Stimuli.File","Order.File","Condition.Description","Condition.Notes","Stimuli.Cue","Stimuli.Answer","Stimuli.Shuffle","Stimuli.Stimuli.Notes","Stimuli.Value","Procedure.Item","Procedure.Trial.Type","Procedure.Max.Time","Procedure.Min.Time","Procedure.Text","Procedure.Procedure.Notes","Procedure.Shuffle","Response.RT","Response.Response","Response.Accuracy","Response.RTfirst","Response.RTlast","Response.strictAcc","Response.lenientAcc","Response.focus","Response.JOL","Response.Focus"
"100013899sf","fuugbyu11t","BOI Norms",1,11,"2021-12-01T21:14:45+00:00",9.4773421287537,6,"updated stim.csv","Version6.csv","Version 6","List 6","footballer",NA,"165",5.041666667,1031,166,"BOI","-","-","Please name all of the ways you could use this object. Keep in mind that one object can have many uses. Separate your responses with a comma.",NA,"y",9213,NA,NA,2843,4165,NA,NA,NA,"player",1
"100013899sf","fuugbyu11t","BOI Norms",1,12,"2021-12-01T21:15:06+00:00",21.185081005096,6,"updated stim.csv","Version6.csv","Version 6","List 6","snowfall",NA,"166",4.347826087,2433,167,"BOI","-","-","Please name all of the ways you could use this object. Keep in mind that one object can have many uses. Separate your responses with a comma.",NA,"y",20811,NA,NA,1875,17303,NA,NA,NA,"snow, winter, cold, air, low tempature ",0.99
"100013899sf","fuugbyu11t","BOI Norms",1,13,"2021-12-01T21:15:12+00:00",5.460483789444,6,"updated stim.csv","Version6.csv","Version 6","List 6","tabasco",NA,"173",5.260869565,2615,174,"BOI","-","-","Please name all of the ways you could use this object. Keep in mind that one object can have many uses. Separate your responses with a comma.",NA,"y",5144,NA,NA,4437,4886,NA,NA,NA,"n/a",1
"100013899sf","fuugbyu11t","BOI Norms",1,14,"2021-12-01T21:16:11+00:00",59.682605028152,6,"updated stim.csv","Version6.csv","Version 6","List 6","negligee",NA,"172",4.75,1749,173,"BOI","-","-","Please name all of the ways you could use this object. Keep in mind that one object can have many uses. Separate your responses with a comma.",NA,"y",59478,NA,NA,25679,56317,NA,NA,NA,"pajamas, sets, red, black, pink, lace,women,lingerie ",0.993
"100013899sf","fuugbyu11t","BOI Norms",1,15,"2021-12-01T21:16:31+00:00",20.121059179306,6,"updated stim.csv","Version6.csv","Version 6","List 6","bird",NA,"171",4.896551724,220,172,"BOI","-","-","Please name all of the ways you could use this object. Keep in mind that one object can have many uses. Separate your responses with a comma.",NA,"y",19846,NA,NA,2441,11822,NA,NA,NA,"animal, noise, chirping , flying",0.99
"100013899sf","fuugbyu11t","BOI Norms",1,16,"2021-12-01T21:16:40+00:00",8.2284200191498,6,"updated stim.csv","Version6.csv","Version 6","List 6","bathe",NA,"156",5.214285714,168,157,"BOI","-","-","Please name all of the ways you could use this object. Keep in mind that one object can have many uses. Separate your responses with a comma.",NA,"y",7976,NA,NA,1519,6920,NA,NA,NA,"water, soap, tub, shower, ",1
"100013899sf","fuugbyu11t","BOI Norms",1,17,"2021-12-01T21:16:52+00:00",12.776339769363,6,"updated stim.csv","Version6.csv","Version 6","List 6","van",NA,"163",6.28,2836,164,"BOI","-","-","Please name all of the ways you could use this object. Keep in mind that one object can have many uses. Separate your responses with a comma.",NA,"y",12448,NA,NA,1694,11955,NA,NA,NA,"wheels, seats, people , driver",1
"100013899sf","fuugbyu11t","BOI Norms",1,18,"2021-12-01T21:48:13+00:00",1880.7952001095,6,"updated stim.csv","Version6.csv","Version 6","List 6","crystal",NA,"170",4.37037037,720,171,"BOI","-","-","Please name all of the ways you could use this object. Keep in mind that one object can have many uses. Separate your responses with a comma.",NA,"y",1860061,NA,NA,1859052,1859853,NA,NA,NA,"rocks",0.998
"100013899sf","fuugbyu11t","BOI Norms",1,19,"2021-12-01T21:48:24+00:00",10.481756925583,6,"updated stim.csv","Version6.csv","Version 6","List 6","ginger",NA,"178",5.32,1104,179,"BOI","-","-","Please name all of the ways you could use this object. Keep in mind that one object can have many uses. Separate your responses with a comma.",NA,"y",10093,NA,NA,4518,9409,NA,NA,NA,"brown, spice, orange,",1
"100013899sf","fuugbyu11t","BOI Norms",1,20,"2021-12-01T21:48:32+00:00",8.6531991958618,6,"updated stim.csv","Version6.csv","Version 6","List 6","bicep",NA,"151",5.666666667,209,152,"BOI","-","-","Please name all of the ways you could use this object. Keep in mind that one object can have many uses. Separate your responses with a comma.",NA,"y",8482,NA,NA,1776,8042,NA,NA,NA,"arms, muscles, chest",1
"100013899sf","fuugbyu11t","BOI Norms",1,21,"2021-12-01T21:48:41+00:00",8.9435298442841,6,"updated stim.csv","Version6.csv","Version 6","List 6","scale",NA,"175",5.652173913,2259,176,"BOI","-","-","Please name all of the ways you could use this object. Keep in mind that one object can have many uses. Separate your responses with a comma.",NA,"y",8707,NA,NA,1402,6348,NA,NA,NA,"weight, machine",1
"100013899sf","fuugbyu11t","BOI Norms",1,22,"2021-12-01T21:48:44+00:00",3.1809930801392,6,"updated stim.csv","Version6.csv","Version 6","List 6","tofu",NA,"180",5.555555556,2717,181,"BOI","-","-","Please name all of the ways you could use this object. Keep in mind that one object can have many uses. Separate your responses with a comma.",NA,"y",3018,NA,NA,2108,2612,NA,NA,NA,"food",1
"100013899sf","fuugbyu11t","BOI Norms",1,23,"2021-12-01T21:48:50+00:00",5.7817490100861,6,"updated stim.csv","Version6.csv","Version 6","List 6","chinaware",NA,"158",5.913043478,527,159,"BOI","-","-","Please name all of the ways you could use this object. Keep in mind that one object can have many uses. Separate your responses with a comma.",NA,"y",5008,NA,NA,1586,3785,NA,NA,NA,"dishes",1
"100013899sf","fuugbyu11t","BOI Norms",1,24,"2021-12-01T21:49:01+00:00",11.040542840958,6,"updated stim.csv","Version6.csv","Version 6","List 6","harvest",NA,"168",4.464285714,1256,169,"BOI","-","-","Please name all of the ways you could use this object. Keep in mind that one object can have many uses. Separate your responses with a comma.",NA,"y",10857,NA,NA,1485,10572,NA,NA,NA,"fall, autumn, pumpkin",1
"100013899sf","fuugbyu11t","BOI Norms",1,25,"2021-12-01T21:49:10+00:00",9.1394050121307,6,"updated stim.csv","Version6.csv","Version 6","List 6","ticket",NA,"164",5.333333333,2692,165,"BOI","-","-","Please name all of the ways you could use this object. Keep in mind that one object can have many uses. Separate your responses with a comma.",NA,"y",8789,NA,NA,2356,8381,NA,NA,NA,"admissions, event, money",1
"100013899sf","fuugbyu11t","BOI Norms",1,26,"2021-12-01T21:49:15+00:00",4.1647350788116,6,"updated stim.csv","Version6.csv","Version 6","List 6","chronograph",NA,"154",4.684210526,538,155,"BOI","-","-","Please name all of the ways you could use this object. Keep in mind that one object can have many uses. Separate your responses with a comma.",NA,"y",3971,NA,NA,2319,3769,NA,NA,NA,"n/a",1
"100013899sf","fuugbyu11t","BOI Norms",1,27,"2021-12-01T21:49:22+00:00",7.65207695961,6,"updated stim.csv","Version6.csv","Version 6","List 6","berry",NA,"179",5.523809524,205,180,"BOI","-","-","Please name all of the ways you could use this object. Keep in mind that one object can have many uses. Separate your responses with a comma.",NA,"y",7433,NA,NA,1290,7053,NA,NA,NA,"fruit, purple ,sweet",1
"100013899sf","fuugbyu11t","BOI Norms",1,28,"2021-12-01T21:49:25+00:00",2.8569791316986,6,"updated stim.csv","Version6.csv","Version 6","List 6","myself",NA,"162",5.038461538,1731,163,"BOI","-","-","Please name all of the ways you could use this object. Keep in mind that one object can have many uses. Separate your responses with a comma.",NA,"y",2672,NA,NA,1374,1923,NA,NA,NA,"i ",1
"100013899sf","fuugbyu11t","BOI Norms",1,29,"2021-12-01T21:49:37+00:00",11.755955934525,6,"updated stim.csv","Version6.csv","Version 6","List 6","canvass",NA,"177",4.347826087,421,178,"BOI","-","-","Please name all of the ways you could use this object. Keep in mind that one object can have many uses. Separate your responses with a comma.",NA,"y",11580,NA,NA,1619,10828,NA,NA,NA,"drawings, blank",1
"100013899sf","fuugbyu11t","BOI Norms",1,30,"2021-12-01T21:49:47+00:00",10.540031909943,6,"updated stim.csv","Version6.csv","Version 6","List 6","screw",NA,"152",5.708333333,2286,153,"BOI","-","-","Please name all of the ways you could use this object. Keep in mind that one object can have many uses. Separate your responses with a comma.",NA,"y",10362,NA,NA,9627,10163,NA,NA,NA,"n/a",1
"100013899sf","fuugbyu11t","BOI Norms",1,31,"2021-12-01T21:49:50+00:00",2.3867521286011,6,"updated stim.csv","Version6.csv","Version 6","List 6","pilaf",NA,"157",4.7,1959,158,"BOI","-","-","Please name all of the ways you could use this object. Keep in mind that one object can have many uses. Separate your responses with a comma.",NA,"y",2213,NA,NA,1259,2023,NA,NA,NA,"n/a",1
"100013899sf","fuugbyu11t","BOI Norms",1,32,"2021-12-01T21:49:59+00:00",8.834459066391,6,"updated stim.csv","Version6.csv","Version 6","List 6","physician",NA,"161",5.12,1945,162,"BOI","-","-","Please name all of the ways you could use this object. Keep in mind that one object can have many uses. Separate your responses with a comma.",NA,"y",8563,NA,NA,1776,8362,NA,NA,NA,"doctor, man, woman, medical ",1
"100013899sf","fuugbyu11t","BOI Norms",1,33,"2021-12-01T21:50:04+00:00",5.0483658313751,6,"updated stim.csv","Version6.csv","Version 6","List 6","wand",NA,"169",5.08,2892,170,"BOI","-","-","Please name all of the ways you could use this object. Keep in mind that one object can have many uses. Separate your responses with a comma.",NA,"y",4745,NA,NA,2901,4472,NA,NA,NA,"tool",1
"100013899sf","fuugbyu11t","BOI Norms",1,34,"2021-12-01T21:50:16+00:00",12.052924156189,6,"updated stim.csv","Version6.csv","Version 6","List 6","whisky",NA,"174",5.857142857,2931,175,"BOI","-","-","Please name all of the ways you could use this object. Keep in mind that one object can have many uses. Separate your responses with a comma.",NA,"y",11794,NA,NA,1747,3115,NA,NA,NA,"acholic ",0.966
"100013899sf","fuugbyu11t","BOI Norms",1,35,"2021-12-01T21:50:22+00:00",6.352175951004,6,"updated stim.csv","Version6.csv","Version 6","List 6","family",NA,"153",5.291666667,944,154,"BOI","-","-","Please name all of the ways you could use this object. Keep in mind that one object can have many uses. Separate your responses with a comma.",NA,"y",6070,NA,NA,2418,5156,NA,NA,NA,"love, bonds",1
"100013899sf","fuugbyu11t","BOI Norms",1,36,"2021-12-01T21:50:30+00:00",8.4343328475952,6,"updated stim.csv","Version6.csv","Version 6","List 6","desert",NA,"160",4.291666667,779,161,"BOI","-","-","Please name all of the ways you could use this object. Keep in mind that one object can have many uses. Separate your responses with a comma.",NA,"y",7813,NA,NA,1621,6840,NA,NA,NA,"dry, land, hot",1
"100013899sf","fuugbyu11t","BOI Norms",1,37,"2021-12-01T21:50:39+00:00",9.0203230381012,6,"updated stim.csv","Version6.csv","Version 6","List 6","tinfoil",NA,"155",5.458333333,2703,156,"BOI","-","-","Please name all of the ways you could use this object. Keep in mind that one object can have many uses. Separate your responses with a comma.",NA,"y",8772,NA,NA,2027,7517,NA,NA,NA,"gray, silver, ",1
"100013899sf","fuugbyu11t","BOI Norms",1,38,"2021-12-01T21:50:54+00:00",14.369301080704,6,"updated stim.csv","Version6.csv","Version 6","List 6","blindfold",NA,"167",5.125,237,168,"BOI","-","-","Please name all of the ways you could use this object. Keep in mind that one object can have many uses. Separate your responses with a comma.",NA,"y",14113,NA,NA,10768,13836,NA,NA,NA,"black , can't see",1
"100013899sf","fuugbyu11t","BOI Norms",1,39,"2021-12-01T21:51:10+00:00",16.274283885956,6,"updated stim.csv","Version6.csv","Version 6","List 6","balcony",NA,"176",4.739130435,127,177,"BOI","-","-","Please name all of the ways you could use this object. Keep in mind that one object can have many uses. Separate your responses with a comma.",NA,"y",16090,NA,NA,11768,15025,NA,NA,NA,"outside, air ",1
"100013899sf","fuugbyu11t","BOI Norms",1,40,"2021-12-01T21:51:14+00:00",4.2397530078888,6,"updated stim.csv","Version6.csv","Version 6","List 6","parsnip",NA,"159",5.666666667,1878,160,"BOI","-","-","Please name all of the ways you could use this object. Keep in mind that one object can have many uses. Separate your responses with a comma.",NA,"y",3903,NA,NA,1477,3767,NA,NA,NA,"working together",1
"10020796EGM","w04z1npd27","BOI Norms",1,11,"2021-12-01T19:02:00+00:00",6.825756072998,24,"updated stim.csv","Version24.csv","Version 24","List 24","sugar",NA,"713",6.173913043,2580,714,"BOI","-","-","Please name all of the ways you could use this object. Keep in mind that one object can have many uses. Separate your responses with a comma.",NA,"y",6748,NA,NA,1720,5308,NA,NA,NA,"coffee, sweetener",1
"10020796EGM","w04z1npd27","BOI Norms",1,12,"2021-12-01T19:02:09+00:00",9.5399959087372,24,"updated stim.csv","Version24.csv","Version 24","List 24","wildlife",NA,"700",4.44,2939,701,"BOI","-","-","Please name all of the ways you could use this object. Keep in mind that one object can have many uses. Separate your responses with a comma.",NA,"y",9473,NA,NA,2175,8505,NA,NA,NA,"hunting, food, preservation",1
"10020796EGM","w04z1npd27","BOI Norms",1,13,"2021-12-01T19:02:19+00:00",9.5061509609222,24,"updated stim.csv","Version24.csv","Version 24","List 24","woodpecker",NA,"714",4.833333333,2961,715,"BOI","-","-","Please name all of the ways you could use this object. Keep in mind that one object can have many uses. Separate your responses with a comma.",NA,"y",9443,NA,NA,1677,7880,NA,NA,NA,"wood, keeps bugs away",1
"10020796EGM","w04z1npd27","BOI Norms",1,14,"2021-12-01T19:02:27+00:00",7.9921021461487,24,"updated stim.csv","Version24.csv","Version 24","List 24","lampshade",NA,"701",5.296296296,1458,702,"BOI","-","-","Please name all of the ways you could use this object. Keep in mind that one object can have many uses. Separate your responses with a comma.",NA,"y",7923,NA,NA,2435,5429,NA,NA,NA,"covers light bulb",1
"10020796EGM","w04z1npd27","BOI Norms",1,15,"2021-12-01T19:02:36+00:00",9.0549159049988,24,"updated stim.csv","Version24.csv","Version 24","List 24","cricket",NA,"699",4.653846154,695,700,"BOI","-","-","Please name all of the ways you could use this object. Keep in mind that one object can have many uses. Separate your responses with a comma.",NA,"y",8987,NA,NA,2757,7902,NA,NA,NA,"lizard food, nuisance",1
"10020796EGM","w04z1npd27","BOI Norms",1,16,"2021-12-01T19:02:41+00:00",4.8814060688019,24,"updated stim.csv","Version24.csv","Version 24","List 24","hibiscus",NA,"712",4.952380952,1285,713,"BOI","-","-","Please name all of the ways you could use this object. Keep in mind that one object can have many uses. Separate your responses with a comma.",NA,"y",4818,NA,NA,1428,3256,NA,NA,NA,"flower, scent",1
"10020796EGM","w04z1npd27","BOI Norms",1,17,"2021-12-01T19:02:50+00:00",9.3313648700714,24,"updated stim.csv","Version24.csv","Version 24","List 24","floor",NA,"696",5.666666667,1008,697,"BOI","-","-","Please name all of the ways you could use this object. Keep in mind that one object can have many uses. Separate your responses with a comma.",NA,"y",9266,NA,NA,3706,8104,NA,NA,NA,"walk on, run on, jump on",1
"10020796EGM","w04z1npd27","BOI Norms",1,18,"2021-12-01T19:02:57+00:00",7.0598161220551,24,"updated stim.csv","Version24.csv","Version 24","List 24","breast",NA,"708",5.4,312,709,"BOI","-","-","Please name all of the ways you could use this object. Keep in mind that one object can have many uses. Separate your responses with a comma.",NA,"y",6994,NA,NA,1472,6082,NA,NA,NA,"breastfeed, sex",1
"10020796EGM","w04z1npd27","BOI Norms",1,19,"2021-12-01T19:03:05+00:00",8.138888835907,24,"updated stim.csv","Version24.csv","Version 24","List 24","countrywoman",NA,"711",4.44,666,712,"BOI","-","-","Please name all of the ways you could use this object. Keep in mind that one object can have many uses. Separate your responses with a comma.",NA,"y",8078,NA,NA,3808,6671,NA,NA,NA,"wife, mother, child",1
"10020796EGM","w04z1npd27","BOI Norms",1,20,"2021-12-01T19:03:12+00:00",6.6171691417694,24,"updated stim.csv","Version24.csv","Version 24","List 24","bong",NA,"715",5.6,268,716,"BOI","-","-","Please name all of the ways you could use this object. Keep in mind that one object can have many uses. Separate your responses with a comma.",NA,"y",6550,NA,NA,2248,5406,NA,NA,NA,"smoking weed, tobacco",1
"10020796EGM","w04z1npd27","BOI Norms",1,21,"2021-12-01T19:03:17+00:00",5.4880759716034,24,"updated stim.csv","Version24.csv","Version 24","List 24","blueberry",NA,"710",6,249,711,"BOI","-","-","Please name all of the ways you could use this object. Keep in mind that one object can have many uses. Separate your responses with a comma.",NA,"y",5425,NA,NA,2013,4469,NA,NA,NA,"snack, ingredient",1
"10020796EGM","w04z1npd27","BOI Norms",1,22,"2021-12-01T19:03:31+00:00",13.934927940369,24,"updated stim.csv","Version24.csv","Version 24","List 24","gymnasium",NA,"698",4.464285714,1204,699,"BOI","-","-","Please name all of the ways you could use this object. Keep in mind that one object can have many uses. Separate your responses with a comma.",NA,"y",13851,NA,NA,2167,12900,NA,NA,NA,"gymnastics, basketball, volleyball",1
"10020796EGM","w04z1npd27","BOI Norms",1,23,"2021-12-01T19:03:36+00:00",4.9129359722137,24,"updated stim.csv","Version24.csv","Version 24","List 24","giblets",NA,"719",4.714285714,1101,720,"BOI","-","-","Please name all of the ways you could use this object. Keep in mind that one object can have many uses. Separate your responses with a comma.",NA,"y",4841,NA,NA,2312,3861,NA,NA,NA,"ingredients",1
"10020796EGM","w04z1npd27","BOI Norms",1,24,"2021-12-01T19:03:43+00:00",7.0089511871338,24,"updated stim.csv","Version24.csv","Version 24","List 24","smuggler",NA,"695",4.481481481,2424,696,"BOI","-","-","Please name all of the ways you could use this object. Keep in mind that one object can have many uses. Separate your responses with a comma.",NA,"y",6942,NA,NA,2299,5907,NA,NA,NA,"smuggling things, jail",1
"10020796EGM","w04z1npd27","BOI Norms",1,25,"2021-12-01T19:03:51+00:00",8.3663809299469,24,"updated stim.csv","Version24.csv","Version 24","List 24","enemy",NA,"694",4.375,907,695,"BOI","-","-","Please name all of the ways you could use this object. Keep in mind that one object can have many uses. Separate your responses with a comma.",NA,"y",8296,NA,NA,2416,7334,NA,NA,NA,"fight them, kill them",1
"10020796EGM","w04z1npd27","BOI Norms",1,26,"2021-12-01T19:03:58+00:00",6.7520339488983,24,"updated stim.csv","Version24.csv","Version 24","List 24","leotard",NA,"720",5.363636364,1493,721,"BOI","-","-","Please name all of the ways you could use this object. Keep in mind that one object can have many uses. Separate your responses with a comma.",NA,"y",6682,NA,NA,1350,5281,NA,NA,NA,"wear them, stretch them",1
"10020796EGM","w04z1npd27","BOI Norms",1,27,"2021-12-01T19:04:04+00:00",6.2101330757141,24,"updated stim.csv","Version24.csv","Version 24","List 24","shin",NA,"704",5.592592593,2339,705,"BOI","-","-","Please name all of the ways you could use this object. Keep in mind that one object can have many uses. Separate your responses with a comma.",NA,"y",6145,NA,NA,1441,5094,NA,NA,NA,"hit shin, bruise shin, ",1
"10020796EGM","w04z1npd27","BOI Norms",1,28,"2021-12-01T19:04:14+00:00",9.9229438304901,24,"updated stim.csv","Version24.csv","Version 24","List 24","quarters",NA,"716",5.909090909,2112,717,"BOI","-","-","Please name all of the ways you could use this object. Keep in mind that one object can have many uses. Separate your responses with a comma.",NA,"y",9860,NA,NA,2351,8218,NA,NA,NA,"coin machine, change",1
"10020796EGM","w04z1npd27","BOI Norms",1,29,"2021-12-01T19:04:21+00:00",6.5888071060181,24,"updated stim.csv","Version24.csv","Version 24","List 24","herb",NA,"709",5.826086957,1280,710,"BOI","-","-","Please name all of the ways you could use this object. Keep in mind that one object can have many uses. Separate your responses with a comma.",NA,"y",6519,NA,NA,1386,5433,NA,NA,NA,"ingredient, medicine",1
"10020796EGM","w04z1npd27","BOI Norms",1,30,"2021-12-01T19:04:27+00:00",6.2614738941193,24,"updated stim.csv","Version24.csv","Version 24","List 24","charcoal",NA,"702",4.740740741,496,703,"BOI","-","-","Please name all of the ways you could use this object. Keep in mind that one object can have many uses. Separate your responses with a comma.",NA,"y",6195,NA,NA,1548,5199,NA,NA,NA,"fire, make coal",1
"10020796EGM","w04z1npd27","BOI Norms",1,31,"2021-12-01T19:04:35+00:00",7.5663740634918,24,"updated stim.csv","Version24.csv","Version 24","List 24","puck",NA,"705",4.608695652,2087,706,"BOI","-","-","Please name all of the ways you could use this object. Keep in mind that one object can have many uses. Separate your responses with a comma.",NA,"y",7500,NA,NA,1374,6392,NA,NA,NA,"hockey, overcooked food",1
"10020796EGM","w04z1npd27","BOI Norms",1,32,"2021-12-01T19:04:42+00:00",7.3320510387421,24,"updated stim.csv","Version24.csv","Version 24","List 24","harp",NA,"697",5.8,1253,698,"BOI","-","-","Please name all of the ways you could use this object. Keep in mind that one object can have many uses. Separate your responses with a comma.",NA,"y",7261,NA,NA,1497,6179,NA,NA,NA,"music, relaxation",1
"10020796EGM","w04z1npd27","BOI Norms",1,33,"2021-12-01T19:04:47+00:00",4.9910740852356,24,"updated stim.csv","Version24.csv","Version 24","List 24","bosom",NA,"718",5.52,286,719,"BOI","-","-","Please name all of the ways you could use this object. Keep in mind that one object can have many uses. Separate your responses with a comma.",NA,"y",4928,NA,NA,2860,3832,NA,NA,NA,"pillow, ",1
"10020796EGM","w04z1npd27","BOI Norms",1,34,"2021-12-01T19:04:57+00:00",10.115451812744,24,"updated stim.csv","Version24.csv","Version 24","List 24","rock",NA,"703",5.48,2183,704,"BOI","-","-","Please name all of the ways you could use this object. Keep in mind that one object can have many uses. Separate your responses with a comma.",NA,"y",10051,NA,NA,2238,8928,NA,NA,NA,"throw it, hit someone",1
"10020796EGM","w04z1npd27","BOI Norms",1,35,"2021-12-01T19:05:01+00:00",3.4686460494995,24,"updated stim.csv","Version24.csv","Version 24","List 24","placard",NA,"693",4.458333333,1983,694,"BOI","-","-","Please name all of the ways you could use this object. Keep in mind that one object can have many uses. Separate your responses with a comma.",NA,"y",3402,NA,NA,2205,2379,NA,NA,NA,"idk",1
"10020796EGM","w04z1npd27","BOI Norms",1,36,"2021-12-01T19:05:06+00:00",5.242870092392,24,"updated stim.csv","Version24.csv","Version 24","List 24","fir",NA,"691",4.272727273,982,692,"BOI","-","-","Please name all of the ways you could use this object. Keep in mind that one object can have many uses. Separate your responses with a comma.",NA,"y",5172,NA,NA,1931,4204,NA,NA,NA,"plant, seeds",1
"10020796EGM","w04z1npd27","BOI Norms",1,37,"2021-12-01T19:05:12+00:00",6.1856138706207,24,"updated stim.csv","Version24.csv","Version 24","List 24","cactus",NA,"707",4.5,392,708,"BOI","-","-","Please name all of the ways you could use this object. Keep in mind that one object can have many uses. Separate your responses with a comma.",NA,"y",6118,NA,NA,2487,4459,NA,NA,NA,"flowers, water, ",1
"10020796EGM","w04z1npd27","BOI Norms",1,38,"2021-12-01T19:05:18+00:00",6.4751851558685,24,"updated stim.csv","Version24.csv","Version 24","List 24","parcel",NA,"692",5.583333333,1873,693,"BOI","-","-","Please name all of the ways you could use this object. Keep in mind that one object can have many uses. Separate your responses with a comma.",NA,"y",6411,NA,NA,3012,5355,NA,NA,NA,"mail man uses it",1
"10020796EGM","w04z1npd27","BOI Norms",1,39,"2021-12-01T19:05:23+00:00",4.1378388404846,24,"updated stim.csv","Version24.csv","Version 24","List 24","nightlight",NA,"706",4.821428571,1772,707,"BOI","-","-","Please name all of the ways you could use this object. Keep in mind that one object can have many uses. Separate your responses with a comma.",NA,"y",4066,NA,NA,1636,3005,NA,NA,NA,"kids use it",1
"10020796EGM","w04z1npd27","BOI Norms",1,40,"2021-12-01T19:05:30+00:00",7.288321018219,24,"updated stim.csv","Version24.csv","Version 24","List 24","artichoke",NA,"717",5.708333333,78,718,"BOI","-","-","Please name all of the ways you could use this object. Keep in mind that one object can have many uses. Separate your responses with a comma.",NA,"y",7223,NA,NA,1589,6164,NA,NA,NA,"ingredient, meal",1
"10030668KK","08lcp95s4k","BOI Norms",1,11,"2022-01-06T04:55:58+00:00",24.293864965439,1,"updated stim.csv","Version1.csv","Version 1","List 1","sandbox",NA,"12",5.777777778,2235,13,"BOI","-","-","Please name all of the ways you could use this object. Keep in mind that one object can have many uses. Separate your responses with a comma.",NA,"y",23966,NA,NA,1686,21436,NA,NA,NA,"playing, building, burying, tossing, eating, digging",1
"10030668KK","08lcp95s4k","BOI Norms",1,12,"2022-01-06T04:56:27+00:00",28.69470500946,1,"updated stim.csv","Version1.csv","Version 1","List 1","map",NA,"17",5.481481481,1600,18,"BOI","-","-","Please name all of the ways you could use this object. Keep in mind that one object can have many uses. Separate your responses with a comma.",NA,"y",28353,NA,NA,1875,27487,NA,NA,NA,"reading, navigating, drawing, touching, crumpling, ripping, hiding, finding, sharing",1
"10030668KK","08lcp95s4k","BOI Norms",1,13,"2022-01-06T04:57:07+00:00",40.308614969254,1,"updated stim.csv","Version1.csv","Version 1","List 1","ladle",NA,"23",4.84,1448,24,"BOI","-","-","Please name all of the ways you could use this object. Keep in mind that one object can have many uses. Separate your responses with a comma.",NA,"y",39897,NA,NA,1508,39361,NA,NA,NA,"scooping, stirring, sipping, hitting, smacking, licking, tasting, serving, pointing, measuring",1
"10030668KK","08lcp95s4k","BOI Norms",1,14,"2022-01-06T04:57:59+00:00",52.172492027283,1,"updated stim.csv","Version1.csv","Version 1","List 1","bread",NA,"7",6.230769231,308,8,"BOI","-","-","Please name all of the ways you could use this object. Keep in mind that one object can have many uses. Separate your responses with a comma.",NA,"y",51830,NA,NA,1313,51284,NA,NA,NA,"eating, sandwich, toasting, tossing, stepping on, chewing, squishing, shaping, molding, feeding, serving, baking, buying, selling",1
"10030668KK","08lcp95s4k","BOI Norms",1,15,"2022-01-06T04:58:24+00:00",24.969545125961,1,"updated stim.csv","Version1.csv","Version 1","List 1","petticoat",NA,"8",5.454545455,1935,9,"BOI","-","-","Please name all of the ways you could use this object. Keep in mind that one object can have many uses. Separate your responses with a comma.",NA,"y",24587,NA,NA,1747,24073,NA,NA,NA,"wearing, storing, washing, cleaning, steaming, ripping, losing, burning",1
"10030668KK","08lcp95s4k","BOI Norms",1,16,"2022-01-06T04:59:03+00:00",38.249531984329,1,"updated stim.csv","Version1.csv","Version 1","List 1","cayenne",NA,"24",5.347826087,469,25,"BOI","-","-","Please name all of the ways you could use this object. Keep in mind that one object can have many uses. Separate your responses with a comma.",NA,"y",37855,NA,NA,2594,36337,NA,NA,NA,"seasoning, eating, decorating, teaching, baking, sprinkling, throwing, tossing, shattering",1
"10030668KK","08lcp95s4k","BOI Norms",1,17,"2022-01-06T04:59:58+00:00",54.998177051544,1,"updated stim.csv","Version1.csv","Version 1","List 1","handrail",NA,"19",5.227272727,1241,20,"BOI","-","-","Please name all of the ways you could use this object. Keep in mind that one object can have many uses. Separate your responses with a comma.",NA,"y",54614,NA,NA,2196,53933,NA,NA,NA,"holding, gripping, stabilizing, balancing, squeezing, punching, rocking, scooting, sliding, skateboarding, tracing, feeling, rubbing",1
"10030668KK","08lcp95s4k","BOI Norms",1,18,"2022-01-06T05:00:26+00:00",28.731338977814,1,"updated stim.csv","Version1.csv","Version 1","List 1","orangutan",NA,"18",4.666666667,1815,19,"BOI","-","-","Please name all of the ways you could use this object. Keep in mind that one object can have many uses. Separate your responses with a comma.",NA,"y",28325,NA,NA,2703,27252,NA,NA,NA,"petting, speaking to, holding, laughing, feeding, befriending",1
"10030668KK","08lcp95s4k","BOI Norms",1,19,"2022-01-06T05:01:47+00:00",80.388257026672,1,"updated stim.csv","Version1.csv","Version 1","List 1","tit",NA,"11",5.92,2708,12,"BOI","-","-","Please name all of the ways you could use this object. Keep in mind that one object can have many uses. Separate your responses with a comma.",NA,"y",79892,NA,NA,38451,70984,NA,NA,NA,"holding, poking, squishing, shaking, shimmying, licking, breastfeeding, milking",1
"10030668KK","08lcp95s4k","BOI Norms",1,20,"2022-01-06T05:02:13+00:00",26.548855781555,1,"updated stim.csv","Version1.csv","Version 1","List 1","mint",NA,"3",5.76,1666,4,"BOI","-","-","Please name all of the ways you could use this object. Keep in mind that one object can have many uses. Separate your responses with a comma.",NA,"y",26153,NA,NA,1313,25453,NA,NA,NA,"eating, freshening, throwing, offering, crushing, smelling, cooking, garnishing",1
"10030668KK","08lcp95s4k","BOI Norms",1,21,"2022-01-06T05:02:43+00:00",29.670216083527,1,"updated stim.csv","Version1.csv","Version 1","List 1","seat",NA,"2",6.416666667,2301,3,"BOI","-","-","Please name all of the ways you could use this object. Keep in mind that one object can have many uses. Separate your responses with a comma.",NA,"y",29275,NA,NA,1273,26591,NA,NA,NA,"sitting, standing on, laying, pushing, sleeping, resting, relaxing",1
"10030668KK","08lcp95s4k","BOI Norms",1,22,"2022-01-06T05:03:31+00:00",48.083997011185,1,"updated stim.csv","Version1.csv","Version 1","List 1","joint",NA,"6",4.375,1389,7,"BOI","-","-","Please name all of the ways you could use this object. Keep in mind that one object can have many uses. Separate your responses with a comma.",NA,"y",47708,NA,NA,1443,46356,NA,NA,NA,"bending, cracking, stretching, extending, moving, forcing, breaking, spraining",1
"10030668KK","08lcp95s4k","BOI Norms",1,23,"2022-01-06T05:04:21+00:00",49.77801990509,1,"updated stim.csv","Version1.csv","Version 1","List 1","wishbone",NA,"20",5.458333333,2953,21,"BOI","-","-","Please name all of the ways you could use this object. Keep in mind that one object can have many uses. Separate your responses with a comma.",NA,"y",49324,NA,NA,1531,45838,NA,NA,NA,"breaking, wishing, boiling, touching, preserving, decorating, stepping on, throwing, throwing away, giving away, catching",1
"10030668KK","08lcp95s4k","BOI Norms",1,24,"2022-01-06T05:04:48+00:00",27.673652172089,1,"updated stim.csv","Version1.csv","Version 1","List 1","tomahawk",NA,"14",4.958333333,2722,15,"BOI","-","-","Please name all of the ways you could use this object. Keep in mind that one object can have many uses. Separate your responses with a comma.",NA,"y",27265,NA,NA,3642,26764,NA,NA,NA,"slashing, hitting, throwing, chopping",1
"10030668KK","08lcp95s4k","BOI Norms",1,25,"2022-01-06T05:05:31+00:00",42.939013957977,1,"updated stim.csv","Version1.csv","Version 1","List 1","boa",NA,"25",4.333333333,252,26,"BOI","-","-","Please name all of the ways you could use this object. Keep in mind that one object can have many uses. Separate your responses with a comma.",NA,"y",42563,NA,NA,3004,34678,NA,NA,NA,"wearing, selling, making, giving, receiving, hiding, storing, cleaning, shaking, dancing, stepping on, laying on",1
"10030668KK","08lcp95s4k","BOI Norms",1,26,"2022-01-06T05:06:24+00:00",52.892476081848,1,"updated stim.csv","Version1.csv","Version 1","List 1","tablespoon",NA,"28",5.142857143,2618,29,"BOI","-","-","Please name all of the ways you could use this object. Keep in mind that one object can have many uses. Separate your responses with a comma.",NA,"y",52488,NA,NA,1666,51583,NA,NA,NA,"measuring, eating, tapping, bending, sticking to nose, licking, scooping, mixing, stirring, sprinkling, cleaning, washing, melting",1
"10030668KK","08lcp95s4k","BOI Norms",1,27,"2022-01-06T05:07:24+00:00",59.457612991333,1,"updated stim.csv","Version1.csv","Version 1","List 1","lanyard",NA,"4",5.416666667,1464,5,"BOI","-","-","Please name all of the ways you could use this object. Keep in mind that one object can have many uses. Separate your responses with a comma.",NA,"y",59078,NA,NA,2280,52378,NA,NA,NA,"wearing, as keychain, tying, throwing away, losing, finding, giving away, buying, selling, throwing",1
"10030668KK","08lcp95s4k","BOI Norms",1,28,"2022-01-06T05:08:05+00:00",41.496795892715,1,"updated stim.csv","Version1.csv","Version 1","List 1","stationary",NA,"26",4.727272727,2510,27,"BOI","-","-","Please name all of the ways you could use this object. Keep in mind that one object can have many uses. Separate your responses with a comma.",NA,"y",41102,NA,NA,1741,40492,NA,NA,NA,"writing, crafting, enclosing, reading, enjoying, breaking, burning, throwing away, gifting, receiving, buying, selling, inviting",1
"10030668KK","08lcp95s4k","BOI Norms",1,29,"2022-01-06T05:09:13+00:00",68.063657045364,1,"updated stim.csv","Version1.csv","Version 1","List 1","masturbate",NA,"22",4.826086957,1618,23,"BOI","-","-","Please name all of the ways you could use this object. Keep in mind that one object can have many uses. Separate your responses with a comma.",NA,"y",67566,NA,NA,25116,63889,NA,NA,NA,"pleasing, entertaining, learning, educating, embarrassment",1
"10030668KK","08lcp95s4k","BOI Norms",1,30,"2022-01-06T05:10:13+00:00",59.207357883453,1,"updated stim.csv","Version1.csv","Version 1","List 1","bloomers",NA,"21",4.4,243,22,"BOI","-","-","Please name all of the ways you could use this object. Keep in mind that one object can have many uses. Separate your responses with a comma.",NA,"y",58821,NA,NA,17199,56355,NA,NA,NA,"wearing, showing, ripping, undressing, touching, buying, selling, sewing, repairing, burning",1
"10030668KK","08lcp95s4k","BOI Norms",1,31,"2022-01-06T05:10:58+00:00",45.666396141052,1,"updated stim.csv","Version1.csv","Version 1","List 1","merchandise",NA,"5",5.833333333,1647,6,"BOI","-","-","Please name all of the ways you could use this object. Keep in mind that one object can have many uses. Separate your responses with a comma.",NA,"y",45263,NA,NA,1440,44415,NA,NA,NA,"stealing, buying, selling, wearing, using, creating, breaking, throwing, hiding, creating",1
"10030668KK","08lcp95s4k","BOI Norms",1,32,"2022-01-06T05:11:39+00:00",40.606432914734,1,"updated stim.csv","Version1.csv","Version 1","List 1","solicitor",NA,"9",4.875,2448,10,"BOI","-","-","Please name all of the ways you could use this object. Keep in mind that one object can have many uses. Separate your responses with a comma.",NA,"y",40231,NA,NA,21708,37283,NA,NA,NA,"education, service, legal processing, occupation seeking",1
"10030668KK","08lcp95s4k","BOI Norms",1,33,"2022-01-06T05:12:23+00:00",44.212435007095,1,"updated stim.csv","Version1.csv","Version 1","List 1","briefcase",NA,"10",6.25,323,11,"BOI","-","-","Please name all of the ways you could use this object. Keep in mind that one object can have many uses. Separate your responses with a comma.",NA,"y",43837,NA,NA,3143,42750,NA,NA,NA,"stuff, spill, open, close, hide, hit someone with, lose, leave behind, find, carry, grip, drop, fill, purchase",1
"10030668KK","08lcp95s4k","BOI Norms",1,34,"2022-01-06T05:13:05+00:00",42.154390096664,1,"updated stim.csv","Version1.csv","Version 1","List 1","pin",NA,"29",5.88,1967,30,"BOI","-","-","Please name all of the ways you could use this object. Keep in mind that one object can have many uses. Separate your responses with a comma.",NA,"y",41780,NA,NA,1273,39686,NA,NA,NA,"drop, stab, hold, lose, step on, look at, hang poster, collect",1
"10030668KK","08lcp95s4k","BOI Norms",1,35,"2022-01-06T05:13:33+00:00",28.244387865067,1,"updated stim.csv","Version1.csv","Version 1","List 1","decor",NA,"1",4.538461538,764,2,"BOI","-","-","Please name all of the ways you could use this object. Keep in mind that one object can have many uses. Separate your responses with a comma.",NA,"y",27825,NA,NA,3872,23732,NA,NA,NA,"view, destroy, enjoy, burning, ripping apart, buying, selling",1
"10030668KK","08lcp95s4k","BOI Norms",1,36,"2022-01-06T05:14:10+00:00",37.070129156113,1,"updated stim.csv","Version1.csv","Version 1","List 1","parsley",NA,"27",5.434782609,1877,28,"BOI","-","-","Please name all of the ways you could use this object. Keep in mind that one object can have many uses. Separate your responses with a comma.",NA,"y",36692,NA,NA,1323,36149,NA,NA,NA,"eating, garnishing, cooking, smelling, growing, squeezing, ripping, cutting, boiling, blending, throwing away",1
"10030668KK","08lcp95s4k","BOI Norms",1,37,"2022-01-06T05:15:09+00:00",59.039282798767,1,"updated stim.csv","Version1.csv","Version 1","List 1","hosiery",NA,"16",5.565217391,1319,17,"BOI","-","-","Please name all of the ways you could use this object. Keep in mind that one object can have many uses. Separate your responses with a comma.",NA,"y",58639,NA,NA,2724,58073,NA,NA,NA,"wearing, ripping, burning, grabbing, pinching, pulling, undressing, dressing, throwing away, tossing, buying, selling, seducing",1
"10030668KK","08lcp95s4k","BOI Norms",1,38,"2022-01-06T05:15:36+00:00",26.181572198868,1,"updated stim.csv","Version1.csv","Version 1","List 1","florist",NA,"13",4.444444444,1011,14,"BOI","-","-","Please name all of the ways you could use this object. Keep in mind that one object can have many uses. Separate your responses with a comma.",NA,"y",25772,NA,NA,6809,25058,NA,NA,NA,"purchasing bouquet, booking a wedding, buying, selling, speaking to, befriending",1
"10030668KK","08lcp95s4k","BOI Norms",1,39,"2022-01-06T05:16:09+00:00",33.325313806534,1,"updated stim.csv","Version1.csv","Version 1","List 1","spyglass",NA,"30",5.64,2491,31,"BOI","-","-","Please name all of the ways you could use this object. Keep in mind that one object can have many uses. Separate your responses with a comma.",NA,"y",32948,NA,NA,4224,31755,NA,NA,NA,"magnifying, searching, thinking, joking, breaking, shattering, hitting someone with, licking, burning ants, seeing",1
"10030668KK","08lcp95s4k","BOI Norms",1,40,"2022-01-06T05:16:33+00:00",24.199132204056,1,"updated stim.csv","Version1.csv","Version 1","List 1","grease",NA,"15",4.666666667,1168,16,"BOI","-","-","Please name all of the ways you could use this object. Keep in mind that one object can have many uses. Separate your responses with a comma.",NA,"y",23814,NA,NA,1756,23102,NA,NA,NA,"slipping, falling, washing out of hair, lubricating, cooking",1
"10066011BB","ntpnqkczha","BOI Norms",1,11,"2021-11-27T04:31:47+00:00",11.369675159454,14,"updated stim.csv","Version89.csv","Version 89","List 89","journalist",NA,"ON",4.5,1391,2649,"BOI","-","-","Please name all of the ways you could use this object. Keep in mind that one object can have many uses. Separate your responses with a comma.",NA,"y",11230,NA,NA,3167,10083,NA,NA,NA,"hired, talked to",1
"10066011BB","ntpnqkczha","BOI Norms",1,12,"2021-11-27T04:32:05+00:00",17.586853027344,14,"updated stim.csv","Version89.csv","Version 89","List 89","appendage",NA,"ON",5,59,2650,"BOI","-","-","Please name all of the ways you could use this object. Keep in mind that one object can have many uses. Separate your responses with a comma.",NA,"y",17436,NA,NA,7317,15232,NA,NA,NA,"looked at",0.886
"10066011BB","ntpnqkczha","BOI Norms",1,13,"2021-11-27T04:32:22+00:00",17.330922842026,14,"updated stim.csv","Version89.csv","Version 89","List 89","plate",NA,"ON",5.590909091,1996,2647,"BOI","-","-","Please name all of the ways you could use this object. Keep in mind that one object can have many uses. Separate your responses with a comma.",NA,"y",17174,NA,NA,2441,15830,NA,NA,NA,"broke, hold food, placed",1
"10066011BB","ntpnqkczha","BOI Norms",1,14,"2021-11-27T04:32:30+00:00",7.6868109703064,14,"updated stim.csv","Version89.csv","Version 89","List 89","bangle",NA,"ON",5.115384615,139,2669,"BOI","-","-","Please name all of the ways you could use this object. Keep in mind that one object can have many uses. Separate your responses with a comma.",NA,"y",7247,NA,NA,3458,5838,NA,NA,NA,"looked at",1
"10066011BB","ntpnqkczha","BOI Norms",1,15,"2021-11-27T04:32:37+00:00",7.5040950775146,14,"updated stim.csv","Version89.csv","Version 89","List 89","bubble",NA,"ON",4.64,339,2654,"BOI","-","-","Please name all of the ways you could use this object. Keep in mind that one object can have many uses. Separate your responses with a comma.",NA,"y",7360,NA,NA,2433,6622,NA,NA,NA,"blown, popped",1
"10066011BB","ntpnqkczha","BOI Norms",1,16,"2021-11-27T04:32:44+00:00",6.4903030395508,14,"updated stim.csv","Version89.csv","Version 89","List 89","lollipop",NA,"ON",6.48,1545,2643,"BOI","-","-","Please name all of the ways you could use this object. Keep in mind that one object can have many uses. Separate your responses with a comma.",NA,"y",6343,NA,NA,1540,4827,NA,NA,NA,"ate, held",1
"10066011BB","ntpnqkczha","BOI Norms",1,17,"2021-11-27T04:32:55+00:00",10.725986003876,14,"updated stim.csv","Version89.csv","Version 89","List 89","placard",NA,"ON",4.458333333,1983,2651,"BOI","-","-","Please name all of the ways you could use this object. Keep in mind that one object can have many uses. Separate your responses with a comma.",NA,"y",10587,NA,NA,2555,9192,NA,NA,NA,"looked at, touched",1
"10066011BB","ntpnqkczha","BOI Norms",1,18,"2021-11-27T04:33:00+00:00",5.8014888763428,14,"updated stim.csv","Version89.csv","Version 89","List 89","apricot",NA,"ON",6.291666667,66,2645,"BOI","-","-","Please name all of the ways you could use this object. Keep in mind that one object can have many uses. Separate your responses with a comma.",NA,"y",5662,NA,NA,1434,4457,NA,NA,NA,"ate, held",1
"10066011BB","ntpnqkczha","BOI Norms",1,19,"2021-11-27T04:33:25+00:00",24.398652076721,14,"updated stim.csv","Version89.csv","Version 89","List 89","mansion",NA,"ON",4.52173913,1593,2646,"BOI","-","-","Please name all of the ways you could use this object. Keep in mind that one object can have many uses. Separate your responses with a comma.",NA,"y",24216,NA,NA,1820,22946,NA,NA,NA,"lived in, rented, looked at, visited",1
"10066011BB","ntpnqkczha","BOI Norms",1,20,"2021-11-27T04:34:02+00:00",37.545346021652,14,"updated stim.csv","Version89.csv","Version 89","List 89","fruitcake",NA,"ON",6,1061,2657,"BOI","-","-","Please name all of the ways you could use this object. Keep in mind that one object can have many uses. Separate your responses with a comma.",NA,"y",37385,NA,NA,33191,36251,NA,NA,NA,"ate, made",1
"10066011BB","ntpnqkczha","BOI Norms",1,21,"2021-11-27T04:34:09+00:00",6.4631969928741,14,"updated stim.csv","Version89.csv","Version 89","List 89","democrat",NA,"ON",4.416666667,771,2668,"BOI","-","-","Please name all of the ways you could use this object. Keep in mind that one object can have many uses. Separate your responses with a comma.",NA,"y",6174,NA,NA,2023,5216,NA,NA,NA,"talked to",1
"10066011BB","ntpnqkczha","BOI Norms",1,22,"2021-11-27T04:35:24+00:00",74.643165111542,14,"updated stim.csv","Version89.csv","Version 89","List 89","mouthwash",NA,"ON",6.230769231,1707,2642,"BOI","-","-","Please name all of the ways you could use this object. Keep in mind that one object can have many uses. Separate your responses with a comma.",NA,"y",74397,NA,NA,1929,72631,NA,NA,NA,"swallowed, spit, tasted",1
"10066011BB","ntpnqkczha","BOI Norms",1,23,"2021-11-27T04:35:35+00:00",11.264307975769,14,"updated stim.csv","Version89.csv","Version 89","List 89","gingerbread",NA,"ON",5.48,1105,2648,"BOI","-","-","Please name all of the ways you could use this object. Keep in mind that one object can have many uses. Separate your responses with a comma.",NA,"y",11099,NA,NA,1403,10416,NA,NA,NA,"ate, formed to house, broke",1
"10066011BB","ntpnqkczha","BOI Norms",1,24,"2021-11-27T04:36:03+00:00",27.973503828049,14,"updated stim.csv","Version89.csv","Version 89","List 89","portrait",NA,"ON",4.272727273,2040,2665,"BOI","-","-","Please name all of the ways you could use this object. Keep in mind that one object can have many uses. Separate your responses with a comma.",NA,"y",27814,NA,NA,1720,26258,NA,NA,NA,"painted, taken of, drawn, gave to someone",1
"10066011BB","ntpnqkczha","BOI Norms",1,25,"2021-11-27T04:36:12+00:00",9.2152180671692,14,"updated stim.csv","Version89.csv","Version 89","List 89","raisin",NA,"ON",5.64,2134,2658,"BOI","-","-","Please name all of the ways you could use this object. Keep in mind that one object can have many uses. Separate your responses with a comma.",NA,"y",9062,NA,NA,1654,8416,NA,NA,NA,"ate, thrown away",1
"10066011BB","ntpnqkczha","BOI Norms",1,26,"2021-11-27T04:36:19+00:00",7.2991991043091,14,"updated stim.csv","Version89.csv","Version 89","List 89","quadriceps",NA,"ON",4.5,2109,2661,"BOI","-","-","Please name all of the ways you could use this object. Keep in mind that one object can have many uses. Separate your responses with a comma.",NA,"y",7150,NA,NA,2963,6589,NA,NA,NA,"formed, hurt",1
"10066011BB","ntpnqkczha","BOI Norms",1,27,"2021-11-27T04:36:25+00:00",5.6315948963165,14,"updated stim.csv","Version89.csv","Version 89","List 89","pupil",NA,"ON",4.8,2102,2671,"BOI","-","-","Please name all of the ways you could use this object. Keep in mind that one object can have many uses. Separate your responses with a comma.",NA,"y",5486,NA,NA,1936,4629,NA,NA,NA,"dialated",1
"10066011BB","ntpnqkczha","BOI Norms",1,28,"2021-11-27T04:36:29+00:00",4.4775359630585,14,"updated stim.csv","Version89.csv","Version 89","List 89","pacemaker",NA,"ON",4.363636364,1835,2653,"BOI","-","-","Please name all of the ways you could use this object. Keep in mind that one object can have many uses. Separate your responses with a comma.",NA,"y",4331,NA,NA,2425,3750,NA,NA,NA,"injured",1
"10066011BB","ntpnqkczha","BOI Norms",1,29,"2021-11-27T04:36:35+00:00",5.7824621200562,14,"updated stim.csv","Version89.csv","Version 89","List 89","rum",NA,"ON",5.64,2206,2652,"BOI","-","-","Please name all of the ways you could use this object. Keep in mind that one object can have many uses. Separate your responses with a comma.",NA,"y",5637,NA,NA,3940,5153,NA,NA,NA,"drank",1
"10066011BB","ntpnqkczha","BOI Norms",1,30,"2021-11-27T04:36:49+00:00",13.530520915985,14,"updated stim.csv","Version89.csv","Version 89","List 89","sheepdog",NA,"ON",5.375,2329,2667,"BOI","-","-","Please name all of the ways you could use this object. Keep in mind that one object can have many uses. Separate your responses with a comma.",NA,"y",13381,NA,NA,8081,12117,NA,NA,NA,"pet,owned",1
"10066011BB","ntpnqkczha","BOI Norms",1,31,"2021-11-27T04:36:56+00:00",7.3496589660645,14,"updated stim.csv","Version89.csv","Version 89","List 89","applicator",NA,"ON",5.185185185,63,2664,"BOI","-","-","Please name all of the ways you could use this object. Keep in mind that one object can have many uses. Separate your responses with a comma.",NA,"y",7206,NA,NA,2371,6587,NA,NA,NA,"used to apply",1
"10066011BB","ntpnqkczha","BOI Norms",1,32,"2021-11-27T04:37:05+00:00",9.4111471176147,14,"updated stim.csv","Version89.csv","Version 89","List 89","crystal",NA,"ON",4.37037037,720,2656,"BOI","-","-","Please name all of the ways you could use this object. Keep in mind that one object can have many uses. Separate your responses with a comma.",NA,"y",9266,NA,NA,3159,8592,NA,NA,NA,"looked at, collected",1
"10066011BB","ntpnqkczha","BOI Norms",1,33,"2021-11-27T04:37:27+00:00",21.071957826614,14,"updated stim.csv","Version89.csv","Version 89","List 89","viewfinder",NA,"ON",4.916666667,2857,2659,"BOI","-","-","Please name all of the ways you could use this object. Keep in mind that one object can have many uses. Separate your responses with a comma.",NA,"y",20918,NA,NA,18216,20325,NA,NA,NA,"locator",1
"10066011BB","ntpnqkczha","BOI Norms",1,34,"2021-11-27T04:37:41+00:00",14.501385211945,14,"updated stim.csv","Version89.csv","Version 89","List 89","pet",NA,"ON",6.214285714,1932,2655,"BOI","-","-","Please name all of the ways you could use this object. Keep in mind that one object can have many uses. Separate your responses with a comma.",NA,"y",14346,NA,NA,1730,6341,NA,NA,NA,"owned, pet, ",1
"10066011BB","ntpnqkczha","BOI Norms",1,35,"2021-11-27T04:37:50+00:00",8.58256483078,14,"updated stim.csv","Version89.csv","Version 89","List 89","tailcoat",NA,"ON",5.47826087,2624,2670,"BOI","-","-","Please name all of the ways you could use this object. Keep in mind that one object can have many uses. Separate your responses with a comma.",NA,"y",8435,NA,NA,4671,7851,NA,NA,NA,"worn",1
"10066011BB","ntpnqkczha","BOI Norms",1,36,"2021-11-27T04:38:06+00:00",16.306020975113,14,"updated stim.csv","Version89.csv","Version 89","List 89","file",NA,"ON",5.041666667,974,2660,"BOI","-","-","Please name all of the ways you could use this object. Keep in mind that one object can have many uses. Separate your responses with a comma.",NA,"y",16149,NA,NA,2312,9158,NA,NA,NA,"looked at, made",1
"10066011BB","ntpnqkczha","BOI Norms",1,37,"2021-11-27T04:38:15+00:00",8.7511560916901,14,"updated stim.csv","Version89.csv","Version 89","List 89","sleigh",NA,"ON",4.84,2410,2666,"BOI","-","-","Please name all of the ways you could use this object. Keep in mind that one object can have many uses. Separate your responses with a comma.",NA,"y",8342,NA,NA,1968,7653,NA,NA,NA,"rode, bought",1
"10066011BB","ntpnqkczha","BOI Norms",1,38,"2021-11-27T04:38:19+00:00",4.1368389129639,14,"updated stim.csv","Version89.csv","Version 89","List 89","rosary",NA,"ON",5.791666667,2193,2644,"BOI","-","-","Please name all of the ways you could use this object. Keep in mind that one object can have many uses. Separate your responses with a comma.",NA,"y",3996,NA,NA,2081,3466,NA,NA,NA,"worn",1
"10066011BB","ntpnqkczha","BOI Norms",1,39,"2021-11-27T04:38:51+00:00",32.448080062866,14,"updated stim.csv","Version89.csv","Version 89","List 89","pullover",NA,"ON",4.56,2093,2663,"BOI","-","-","Please name all of the ways you could use this object. Keep in mind that one object can have many uses. Separate your responses with a comma.",NA,"y",32299,NA,NA,2687,11698,NA,NA,NA,"worn, bought",1
"10066011BB","ntpnqkczha","BOI Norms",1,40,"2021-11-27T04:39:04+00:00",12.376915931702,14,"updated stim.csv","Version89.csv","Version 89","List 89","woodpecker",NA,"ON",4.833333333,2961,2662,"BOI","-","-","Please name all of the ways you could use this object. Keep in mind that one object can have many uses. Separate your responses with a comma.",NA,"y",12148,NA,NA,3159,10917,NA,NA,NA,"looked at, peck wood",1
"10079569MO","551ddcjelw","BOI Norms",1,11,"2021-11-30T04:09:38+00:00",16.980058908463,17,"updated stim.csv","Version92.csv","Version 92","List 92","townsfolk",NA,"ON",4.583333333,2748,2757,"BOI","-","-","Please name all of the ways you could use this object. Keep in mind that one object can have many uses. Separate your responses with a comma.",NA,"y",16887,NA,NA,7117,16576,NA,NA,NA,"run, sell, greet, hit",1
"10079569MO","551ddcjelw","BOI Norms",1,12,"2021-11-30T04:09:58+00:00",19.740597963333,17,"updated stim.csv","Version92.csv","Version 92","List 92","shower",NA,"ON",5.391304348,2364,2733,"BOI","-","-","Please name all of the ways you could use this object. Keep in mind that one object can have many uses. Separate your responses with a comma.",NA,"y",19645,NA,NA,4694,19113,NA,NA,NA,"bathe, wash, clean, drink",1
"10079569MO","551ddcjelw","BOI Norms",1,13,"2021-11-30T04:10:12+00:00",13.836595058441,17,"updated stim.csv","Version92.csv","Version 92","List 92","nurse",NA,"ON",5.130434783,1786,2751,"BOI","-","-","Please name all of the ways you could use this object. Keep in mind that one object can have many uses. Separate your responses with a comma.",NA,"y",13738,NA,NA,4777,13546,NA,NA,NA,"needle, aid, bandage, diagnose",1
"10079569MO","551ddcjelw","BOI Norms",1,14,"2021-11-30T04:10:21+00:00",9.3886890411377,17,"updated stim.csv","Version92.csv","Version 92","List 92","potboiler",NA,"ON",4.84,2048,2756,"BOI","-","-","Please name all of the ways you could use this object. Keep in mind that one object can have many uses. Separate your responses with a comma.",NA,"y",9266,NA,NA,3884,8993,NA,NA,NA,"boil, smoke",1
"10079569MO","551ddcjelw","BOI Norms",1,15,"2021-11-30T04:10:27+00:00",6.2148268222809,17,"updated stim.csv","Version92.csv","Version 92","List 92","flannels",NA,"ON",5.681818182,999,2749,"BOI","-","-","Please name all of the ways you could use this object. Keep in mind that one object can have many uses. Separate your responses with a comma.",NA,"y",6106,NA,NA,1695,5844,NA,NA,NA,"wear, tear, throw",1
"10079569MO","551ddcjelw","BOI Norms",1,16,"2021-11-30T04:10:38+00:00",10.99954199791,17,"updated stim.csv","Version92.csv","Version 92","List 92","mixer",NA,"ON",5,1672,2748,"BOI","-","-","Please name all of the ways you could use this object. Keep in mind that one object can have many uses. Separate your responses with a comma.",NA,"y",10900,NA,NA,2330,9639,NA,NA,NA,"crush, mix, smash",1
"10079569MO","551ddcjelw","BOI Norms",1,17,"2021-11-30T04:10:45+00:00",6.2109680175781,17,"updated stim.csv","Version92.csv","Version 92","List 92","shell",NA,"ON",5.291666667,2333,2755,"BOI","-","-","Please name all of the ways you could use this object. Keep in mind that one object can have many uses. Separate your responses with a comma.",NA,"y",6109,NA,NA,2188,5827,NA,NA,NA,"listen, throw, collect",1
"10079569MO","551ddcjelw","BOI Norms",1,18,"2021-11-30T04:10:57+00:00",12.351425170898,17,"updated stim.csv","Version92.csv","Version 92","List 92","bassinet",NA,"ON",5.375,165,2744,"BOI","-","-","Please name all of the ways you could use this object. Keep in mind that one object can have many uses. Separate your responses with a comma.",NA,"y",12236,NA,NA,4476,11775,NA,NA,NA,"play, throw, blow into",1
"10079569MO","551ddcjelw","BOI Norms",1,19,"2021-11-30T04:11:11+00:00",13.528003931046,17,"updated stim.csv","Version92.csv","Version 92","List 92","sprinter",NA,"ON",4.565217391,2490,2758,"BOI","-","-","Please name all of the ways you could use this object. Keep in mind that one object can have many uses. Separate your responses with a comma.",NA,"y",13438,NA,NA,4887,13026,NA,NA,NA,"run, win, walk, sprint",1
"10079569MO","551ddcjelw","BOI Norms",1,20,"2021-11-30T04:11:33+00:00",22.293272972107,17,"updated stim.csv","Version92.csv","Version 92","List 92","cousin",NA,"ON",5.375,669,2761,"BOI","-","-","Please name all of the ways you could use this object. Keep in mind that one object can have many uses. Separate your responses with a comma.",NA,"y",22195,NA,NA,17715,21853,NA,NA,NA,"play, explore, talk",1
"10079569MO","551ddcjelw","BOI Norms",1,21,"2021-11-30T04:11:42+00:00",9.2575058937073,17,"updated stim.csv","Version92.csv","Version 92","List 92","lad",NA,"ON",4.36,1446,2753,"BOI","-","-","Please name all of the ways you could use this object. Keep in mind that one object can have many uses. Separate your responses with a comma.",NA,"y",9158,NA,NA,2757,8666,NA,NA,NA,"dance, chat, play",1
"10079569MO","551ddcjelw","BOI Norms",1,22,"2021-11-30T04:12:02+00:00",19.911861181259,17,"updated stim.csv","Version92.csv","Version 92","List 92","golf",NA,"ON",4.76,1135,2736,"BOI","-","-","Please name all of the ways you could use this object. Keep in mind that one object can have many uses. Separate your responses with a comma.",NA,"y",19805,NA,NA,10336,19273,NA,NA,NA,"hit, chat, swing, throw",1
"10079569MO","551ddcjelw","BOI Norms",1,23,"2021-11-30T04:12:05+00:00",2.9962928295135,17,"updated stim.csv","Version92.csv","Version 92","List 92","chronometer",NA,"ON",4.5,539,2735,"BOI","-","-","Please name all of the ways you could use this object. Keep in mind that one object can have many uses. Separate your responses with a comma.",NA,"y",2904,NA,NA,2293,2632,NA,NA,NA,"what",1
"10079569MO","551ddcjelw","BOI Norms",1,24,"2021-11-30T04:12:07+00:00",2.4137930870056,17,"updated stim.csv","Version92.csv","Version 92","List 92","podiatrist",NA,"ON",4.791666667,2016,2747,"BOI","-","-","Please name all of the ways you could use this object. Keep in mind that one object can have many uses. Separate your responses with a comma.",NA,"y",2317,NA,NA,1696,2046,NA,NA,NA,"what",1
"10079569MO","551ddcjelw","BOI Norms",1,25,"2021-11-30T04:12:19+00:00",11.589355945587,17,"updated stim.csv","Version92.csv","Version 92","List 92","artichoke",NA,"ON",5.708333333,78,2742,"BOI","-","-","Please name all of the ways you could use this object. Keep in mind that one object can have many uses. Separate your responses with a comma.",NA,"y",11489,NA,NA,1877,11287,NA,NA,NA,"eat, peel, chew",1
"10079569MO","551ddcjelw","BOI Norms",1,26,"2021-11-30T04:12:29+00:00",10.454050064087,17,"updated stim.csv","Version92.csv","Version 92","List 92","cauldron",NA,"ON",4.8,465,2743,"BOI","-","-","Please name all of the ways you could use this object. Keep in mind that one object can have many uses. Separate your responses with a comma.",NA,"y",10351,NA,NA,1880,10119,NA,NA,NA,"fill, pour, capture",1
"10079569MO","551ddcjelw","BOI Norms",1,27,"2021-11-30T04:12:37+00:00",7.7604939937592,17,"updated stim.csv","Version92.csv","Version 92","List 92","wishbone",NA,"ON",5.458333333,2953,2734,"BOI","-","-","Please name all of the ways you could use this object. Keep in mind that one object can have many uses. Separate your responses with a comma.",NA,"y",7636,NA,NA,1465,7234,NA,NA,NA,"break, make, pull",1
"10079569MO","551ddcjelw","BOI Norms",1,28,"2021-11-30T04:12:51+00:00",13.39395403862,17,"updated stim.csv","Version92.csv","Version 92","List 92","shortening",NA,"ON",4.92,2358,2739,"BOI","-","-","Please name all of the ways you could use this object. Keep in mind that one object can have many uses. Separate your responses with a comma.",NA,"y",13292,NA,NA,2292,12530,NA,NA,NA,"shorten, cut, rip",1
"10079569MO","551ddcjelw","BOI Norms",1,29,"2021-11-30T04:13:02+00:00",11.731627941132,17,"updated stim.csv","Version92.csv","Version 92","List 92","tractor",NA,"ON",5.590909091,2753,2737,"BOI","-","-","Please name all of the ways you could use this object. Keep in mind that one object can have many uses. Separate your responses with a comma.",NA,"y",11629,NA,NA,1608,11357,NA,NA,NA,"drive, back up, park",1
"10079569MO","551ddcjelw","BOI Norms",1,30,"2021-11-30T04:13:09+00:00",6.3483030796051,17,"updated stim.csv","Version92.csv","Version 92","List 92","hamster",NA,"ON",5.583333333,1226,2738,"BOI","-","-","Please name all of the ways you could use this object. Keep in mind that one object can have many uses. Separate your responses with a comma.",NA,"y",6243,NA,NA,1882,6031,NA,NA,NA,"pet, feed, water",1
"10079569MO","551ddcjelw","BOI Norms",1,31,"2021-11-30T04:13:19+00:00",10.407392024994,17,"updated stim.csv","Version92.csv","Version 92","List 92","toffee",NA,"ON",5.608695652,2716,2750,"BOI","-","-","Please name all of the ways you could use this object. Keep in mind that one object can have many uses. Separate your responses with a comma.",NA,"y",10296,NA,NA,1865,9924,NA,NA,NA,"chew, eat, mix, enjoy",1
"10079569MO","551ddcjelw","BOI Norms",1,32,"2021-11-30T04:14:36+00:00",76.613060951233,17,"updated stim.csv","Version92.csv","Version 92","List 92","vibrator",NA,"ON",6.464285714,2855,2740,"BOI","-","-","Please name all of the ways you could use this object. Keep in mind that one object can have many uses. Separate your responses with a comma.",NA,"y",76456,NA,NA,18812,68442,NA,NA,NA,"masturbate",1
"10079569MO","551ddcjelw","BOI Norms",1,33,"2021-11-30T04:14:41+00:00",5.1895999908447,17,"updated stim.csv","Version92.csv","Version 92","List 92","atlas",NA,"ON",5.166666667,93,2746,"BOI","-","-","Please name all of the ways you could use this object. Keep in mind that one object can have many uses. Separate your responses with a comma.",NA,"y",5085,NA,NA,4065,4634,NA,NA,NA,"world",1
"10079569MO","551ddcjelw","BOI Norms",1,34,"2021-11-30T04:14:45+00:00",4.4128620624542,17,"updated stim.csv","Version92.csv","Version 92","List 92","dumbwaiter",NA,"ON",4.44,866,2741,"BOI","-","-","Please name all of the ways you could use this object. Keep in mind that one object can have many uses. Separate your responses with a comma.",NA,"y",4306,NA,NA,1674,2885,NA,NA,NA,"lift",1
"10079569MO","551ddcjelw","BOI Norms",1,35,"2021-11-30T04:14:50+00:00",4.6325368881226,17,"updated stim.csv","Version92.csv","Version 92","List 92","outfielder",NA,"ON",4.6,1827,2752,"BOI","-","-","Please name all of the ways you could use this object. Keep in mind that one object can have many uses. Separate your responses with a comma.",NA,"y",4508,NA,NA,1857,4136,NA,NA,NA,"throw, catch",1
"10079569MO","551ddcjelw","BOI Norms",1,36,"2021-11-30T04:15:01+00:00",10.611726045609,17,"updated stim.csv","Version92.csv","Version 92","List 92","head",NA,"ON",5.48,1263,2759,"BOI","-","-","Please name all of the ways you could use this object. Keep in mind that one object can have many uses. Separate your responses with a comma.",NA,"y",10496,NA,NA,4616,10274,NA,NA,NA,"sex, thinking",1
"10079569MO","551ddcjelw","BOI Norms",1,37,"2021-11-30T04:15:06+00:00",5.5912539958954,17,"updated stim.csv","Version92.csv","Version 92","List 92","nightie",NA,"ON",5.62962963,1771,2732,"BOI","-","-","Please name all of the ways you could use this object. Keep in mind that one object can have many uses. Separate your responses with a comma.",NA,"y",5419,NA,NA,3199,3958,NA,NA,NA,"sleep",1
"10079569MO","551ddcjelw","BOI Norms",1,38,"2021-11-30T04:15:14+00:00",8.005254983902,17,"updated stim.csv","Version92.csv","Version 92","List 92","tombstone",NA,"ON",5.043478261,2725,2754,"BOI","-","-","Please name all of the ways you could use this object. Keep in mind that one object can have many uses. Separate your responses with a comma.",NA,"y",7901,NA,NA,3381,7580,NA,NA,NA,"cover, shovel",1
"10079569MO","551ddcjelw","BOI Norms",1,39,"2021-11-30T04:15:21+00:00",6.7548530101776,17,"updated stim.csv","Version92.csv","Version 92","List 92","towel",NA,"ON",6.04,2746,2760,"BOI","-","-","Please name all of the ways you could use this object. Keep in mind that one object can have many uses. Separate your responses with a comma.",NA,"y",6648,NA,NA,1877,6306,NA,NA,NA,"dry, hang, wash",1
"10079569MO","551ddcjelw","BOI Norms",1,40,"2021-11-30T04:15:28+00:00",7.2094140052795,17,"updated stim.csv","Version92.csv","Version 92","List 92","daggers",NA,"ON",4.75,748,2745,"BOI","-","-","Please name all of the ways you could use this object. Keep in mind that one object can have many uses. Separate your responses with a comma.",NA,"y",7094,NA,NA,1726,6195,NA,NA,NA,"stab, clean",1
"1008018JM","a42uy97fh1","BOI Norms",1,11,"2021-12-01T03:15:01+00:00",39.401607990265,14,"updated stim.csv","Version89.csv","Version 89","List 89","peel",NA,"ON",4.458333333,1905,2663,"BOI","-","-","Please name all of the ways you could use this object. Keep in mind that one object can have many uses. Separate your responses with a comma.",NA,"y",39171,NA,NA,7425,38714,NA,NA,NA,"cleaning, cooking, aromatherapy",1
"1008018JM","a42uy97fh1","BOI Norms",1,12,"2021-12-01T03:15:46+00:00",44.131888866425,14,"updated stim.csv","Version89.csv","Version 89","List 89","fedora",NA,"ON",6.291666667,958,2657,"BOI","-","-","Please name all of the ways you could use this object. Keep in mind that one object can have many uses. Separate your responses with a comma.",NA,"y",43886,NA,NA,4692,18883,NA,NA,NA,"wearing, fashion, designing",1
"1008018JM","a42uy97fh1","BOI Norms",1,13,"2021-12-01T03:15:56+00:00",9.997554063797,14,"updated stim.csv","Version89.csv","Version 89","List 89","dwelling",NA,"ON",4.857142857,872,2642,"BOI","-","-","Please name all of the ways you could use this object. Keep in mind that one object can have many uses. Separate your responses with a comma.",NA,"y",9747,NA,NA,8602,9083,NA,NA,NA,"sad",1
"1008018JM","a42uy97fh1","BOI Norms",1,14,"2021-12-01T03:17:03+00:00",67.839547872543,14,"updated stim.csv","Version89.csv","Version 89","List 89","sex",NA,"ON",5.16,2316,2652,"BOI","-","-","Please name all of the ways you could use this object. Keep in mind that one object can have many uses. Separate your responses with a comma.",NA,"y",67599,NA,NA,7562,67119,NA,NA,NA,"pleasure, procreation, reward, happiness",1
"1008018JM","a42uy97fh1","BOI Norms",1,15,"2021-12-01T03:17:15+00:00",12.081690073013,14,"updated stim.csv","Version89.csv","Version 89","List 89","broiler",NA,"ON",5.25,329,2667,"BOI","-","-","Please name all of the ways you could use this object. Keep in mind that one object can have many uses. Separate your responses with a comma.",NA,"y",11825,NA,NA,2164,11452,NA,NA,NA,"cooking, baking, toast",1
"1008018JM","a42uy97fh1","BOI Norms",1,16,"2021-12-01T03:17:32+00:00",16.208526134491,14,"updated stim.csv","Version89.csv","Version 89","List 89","eyewash",NA,"ON",5.4,938,2650,"BOI","-","-","Please name all of the ways you could use this object. Keep in mind that one object can have many uses. Separate your responses with a comma.",NA,"y",15956,NA,NA,4246,15564,NA,NA,NA,"chemicals, pepper spray, eye",1
"1008018JM","a42uy97fh1","BOI Norms",1,17,"2021-12-01T03:17:41+00:00",9.7222747802734,14,"updated stim.csv","Version89.csv","Version 89","List 89","woodwind",NA,"ON",4.96,2965,2666,"BOI","-","-","Please name all of the ways you could use this object. Keep in mind that one object can have many uses. Separate your responses with a comma.",NA,"y",9471,NA,NA,7750,9134,NA,NA,NA,"music",1
"1008018JM","a42uy97fh1","BOI Norms",1,18,"2021-12-01T03:18:12+00:00",31.002049207687,14,"updated stim.csv","Version89.csv","Version 89","List 89","television",NA,"ON",5.6,2660,2649,"BOI","-","-","Please name all of the ways you could use this object. Keep in mind that one object can have many uses. Separate your responses with a comma.",NA,"y",30771,NA,NA,2389,29954,NA,NA,NA,"entertainment, gaming, films, distraction",1
"1008018JM","a42uy97fh1","BOI Norms",1,19,"2021-12-01T03:18:43+00:00",31.070799827576,14,"updated stim.csv","Version89.csv","Version 89","List 89","bill",NA,"ON",5.111111111,214,2670,"BOI","-","-","Please name all of the ways you could use this object. Keep in mind that one object can have many uses. Separate your responses with a comma.",NA,"y",30791,NA,NA,4915,30374,NA,NA,NA,"food, services, paying, goods",1
"1008018JM","a42uy97fh1","BOI Norms",1,20,"2021-12-01T03:19:02+00:00",18.684098958969,14,"updated stim.csv","Version89.csv","Version 89","List 89","nutmeg",NA,"ON",4.608695652,1792,2669,"BOI","-","-","Please name all of the ways you could use this object. Keep in mind that one object can have many uses. Separate your responses with a comma.",NA,"y",18438,NA,NA,1523,17382,NA,NA,NA,"cooking, eggnog, cookies, baking",1
"1008018JM","a42uy97fh1","BOI Norms",1,21,"2021-12-01T03:19:23+00:00",21.282869100571,14,"updated stim.csv","Version89.csv","Version 89","List 89","teahouse",NA,"ON",4.347826087,2645,2647,"BOI","-","-","Please name all of the ways you could use this object. Keep in mind that one object can have many uses. Separate your responses with a comma.",NA,"y",21061,NA,NA,13131,20688,NA,NA,NA,"tea, drinking",1
"1008018JM","a42uy97fh1","BOI Norms",1,22,"2021-12-01T03:19:48+00:00",24.053826093674,14,"updated stim.csv","Version89.csv","Version 89","List 89","magazine",NA,"ON",6.166666667,1569,2671,"BOI","-","-","Please name all of the ways you could use this object. Keep in mind that one object can have many uses. Separate your responses with a comma.",NA,"y",23787,NA,NA,1383,23365,NA,NA,NA,"reading, entertainment, toilet paper, inspiration",1
"1008018JM","a42uy97fh1","BOI Norms",1,23,"2021-12-01T03:20:13+00:00",25.039677858353,14,"updated stim.csv","Version89.csv","Version 89","List 89","boots",NA,"ON",6.434782609,284,2660,"BOI","-","-","Please name all of the ways you could use this object. Keep in mind that one object can have many uses. Separate your responses with a comma.",NA,"y",24788,NA,NA,5039,24407,NA,NA,NA,"wearing, walking, fashion",1
"1008018JM","a42uy97fh1","BOI Norms",1,24,"2021-12-01T03:20:36+00:00",23.101850986481,14,"updated stim.csv","Version89.csv","Version 89","List 89","vermicelli",NA,"ON",5.571428571,2850,2643,"BOI","-","-","Please name all of the ways you could use this object. Keep in mind that one object can have many uses. Separate your responses with a comma.",NA,"y",22855,NA,NA,13132,22556,NA,NA,NA,"cooking, pasta, eating",0.948
"1008018JM","a42uy97fh1","BOI Norms",1,25,"2021-12-01T03:21:00+00:00",24.359907150269,14,"updated stim.csv","Version89.csv","Version 89","List 89","llama",NA,"ON",4.75,1530,2665,"BOI","-","-","Please name all of the ways you could use this object. Keep in mind that one object can have many uses. Separate your responses with a comma.",NA,"y",24112,NA,NA,2158,22934,NA,NA,NA,"petting, riding, wool",1
"1008018JM","a42uy97fh1","BOI Norms",1,26,"2021-12-01T03:21:13+00:00",13.027315855026,14,"updated stim.csv","Version89.csv","Version 89","List 89","tailor",NA,"ON",5.130434783,2626,2658,"BOI","-","-","Please name all of the ways you could use this object. Keep in mind that one object can have many uses. Separate your responses with a comma.",NA,"y",12791,NA,NA,3299,12381,NA,NA,NA,"suit, dress, clothing, altering",1
"1008018JM","a42uy97fh1","BOI Norms",1,27,"2021-12-01T03:21:26+00:00",12.882344961166,14,"updated stim.csv","Version89.csv","Version 89","List 89","mitten",NA,"ON",6.041666667,1671,2656,"BOI","-","-","Please name all of the ways you could use this object. Keep in mind that one object can have many uses. Separate your responses with a comma.",NA,"y",12623,NA,NA,2097,12483,NA,NA,NA,"warmth, snowball fighting",1
"1008018JM","a42uy97fh1","BOI Norms",1,28,"2021-12-01T03:21:31+00:00",5.0726881027222,14,"updated stim.csv","Version89.csv","Version 89","List 89","wafer",NA,"ON",5.909090909,2877,2645,"BOI","-","-","Please name all of the ways you could use this object. Keep in mind that one object can have many uses. Separate your responses with a comma.",NA,"y",4808,NA,NA,1729,4166,NA,NA,NA,"eating, cooking",1
"1008018JM","a42uy97fh1","BOI Norms",1,29,"2021-12-01T03:21:44+00:00",12.688117980957,14,"updated stim.csv","Version89.csv","Version 89","List 89","awning",NA,"ON",4.565217391,104,2644,"BOI","-","-","Please name all of the ways you could use this object. Keep in mind that one object can have many uses. Separate your responses with a comma.",NA,"y",12430,NA,NA,3836,11497,NA,NA,NA,"sitting, chilling, relaxing, laying",1
"1008018JM","a42uy97fh1","BOI Norms",1,30,"2021-12-01T03:22:08+00:00",24.47425198555,14,"updated stim.csv","Version89.csv","Version 89","List 89","cuff",NA,"ON",5.333333333,724,2651,"BOI","-","-","Please name all of the ways you could use this object. Keep in mind that one object can have many uses. Separate your responses with a comma.",NA,"y",24239,NA,NA,15235,19405,NA,NA,NA,"wearing, fashion",1
"1008018JM","a42uy97fh1","BOI Norms",1,31,"2021-12-01T03:23:15+00:00",66.689548015594,14,"updated stim.csv","Version89.csv","Version 89","List 89","slut",NA,"ON",4.652173913,2420,2655,"BOI","-","-","Please name all of the ways you could use this object. Keep in mind that one object can have many uses. Separate your responses with a comma.",NA,"y",66435,NA,NA,32117,66035,NA,NA,NA,"pleasure, sex, shaming",0.911
"1008018JM","a42uy97fh1","BOI Norms",1,32,"2021-12-01T03:23:36+00:00",21.500625133514,14,"updated stim.csv","Version89.csv","Version 89","List 89","kebab",NA,"ON",5.916666667,1402,2654,"BOI","-","-","Please name all of the ways you could use this object. Keep in mind that one object can have many uses. Separate your responses with a comma.",NA,"y",21234,NA,NA,1883,20921,NA,NA,NA,"eating, cooking, grilling, baking",1
"1008018JM","a42uy97fh1","BOI Norms",1,33,"2021-12-01T03:23:48+00:00",11.653337955475,14,"updated stim.csv","Version89.csv","Version 89","List 89","potty",NA,"ON",5.037037037,2051,2662,"BOI","-","-","Please name all of the ways you could use this object. Keep in mind that one object can have many uses. Separate your responses with a comma.",NA,"y",11408,NA,NA,2402,10493,NA,NA,NA,"peeing, pooping, throwing up",1
"1008018JM","a42uy97fh1","BOI Norms",1,34,"2021-12-01T03:24:26+00:00",37.914670944214,14,"updated stim.csv","Version89.csv","Version 89","List 89","jersey",NA,"ON",5.8,1382,2648,"BOI","-","-","Please name all of the ways you could use this object. Keep in mind that one object can have many uses. Separate your responses with a comma.",NA,"y",37652,NA,NA,3801,37292,NA,NA,NA,"wearing, sports, uniform",1
"1008018JM","a42uy97fh1","BOI Norms",1,35,"2021-12-01T03:25:12+00:00",45.894568920135,14,"updated stim.csv","Version89.csv","Version 89","List 89","crystal",NA,"ON",4.37037037,720,2653,"BOI","-","-","Please name all of the ways you could use this object. Keep in mind that one object can have many uses. Separate your responses with a comma.",NA,"y",45684,NA,NA,20271,45111,NA,NA,NA,"healing, spells, energizing, superstition",1
"1008018JM","a42uy97fh1","BOI Norms",1,36,"2021-12-01T03:26:10+00:00",57.970883131027,14,"updated stim.csv","Version89.csv","Version 89","List 89","eggbeater",NA,"ON",5.96,893,2664,"BOI","-","-","Please name all of the ways you could use this object. Keep in mind that one object can have many uses. Separate your responses with a comma.",NA,"y",57740,NA,NA,27480,39726,NA,NA,NA,"cooking, baking, eggs, meringue",1
"1008018JM","a42uy97fh1","BOI Norms",1,37,"2021-12-01T03:26:31+00:00",20.964728832245,14,"updated stim.csv","Version89.csv","Version 89","List 89","houseboy",NA,"ON",4.583333333,1328,2646,"BOI","-","-","Please name all of the ways you could use this object. Keep in mind that one object can have many uses. Separate your responses with a comma.",NA,"y",20709,NA,NA,11759,20415,NA,NA,NA,"cleaning, cooking, services",1
"1008018JM","a42uy97fh1","BOI Norms",1,38,"2021-12-01T03:26:49+00:00",18.011771202087,14,"updated stim.csv","Version89.csv","Version 89","List 89","raft",NA,"ON",5.36,2125,2668,"BOI","-","-","Please name all of the ways you could use this object. Keep in mind that one object can have many uses. Separate your responses with a comma.",NA,"y",17742,NA,NA,7144,17479,NA,NA,NA,"surviving, rafting, river",1
"1008018JM","a42uy97fh1","BOI Norms",1,39,"2021-12-01T03:27:34+00:00",45.707458972931,14,"updated stim.csv","Version89.csv","Version 89","List 89","bleach",NA,"ON",5.32,234,2661,"BOI","-","-","Please name all of the ways you could use this object. Keep in mind that one object can have many uses. Separate your responses with a comma.",NA,"y",45452,NA,NA,8958,38256,NA,NA,NA,"drinking, cleaning, stain removal, laundry, dying",1
"1008018JM","a42uy97fh1","BOI Norms",1,40,"2021-12-01T03:27:47+00:00",12.654410839081,14,"updated stim.csv","Version89.csv","Version 89","List 89","watchband",NA,"ON",5.923076923,2906,2659,"BOI","-","-","Please name all of the ways you could use this object. Keep in mind that one object can have many uses. Separate your responses with a comma.",NA,"y",12234,NA,NA,7524,11858,NA,NA,NA,"telling time, fashion",1
"10085338JL","jkm6a870pu","BOI Norms",1,11,"2022-02-12T20:42:39+00:00",3.4372298717499,24,"updated stim.csv","Version74.csv","Version 74","List 74","bonnet",NA,"ON",6.043478261,269,2211,"BOI","-","-","Please name all of the ways you could use this object. Keep in mind that one object can have many uses. Separate your responses with a comma.",NA,"y",3212,NA,NA,1739,2791,NA,NA,NA,"white",1
"10085338JL","jkm6a870pu","BOI Norms",1,12,"2022-02-12T20:42:48+00:00",8.2627940177917,24,"updated stim.csv","Version74.csv","Version 74","List 74","flamethrower",NA,"ON",4.740740741,997,2206,"BOI","-","-","Please name all of the ways you could use this object. Keep in mind that one object can have many uses. Separate your responses with a comma.",NA,"y",8081,NA,NA,5364,7935,NA,NA,NA,"olympics",1
"10085338JL","jkm6a870pu","BOI Norms",1,13,"2022-02-12T20:42:51+00:00",3.4241180419922,24,"updated stim.csv","Version74.csv","Version 74","List 74","pamphlet",NA,"ON",5.565217391,1855,2194,"BOI","-","-","Please name all of the ways you could use this object. Keep in mind that one object can have many uses. Separate your responses with a comma.",NA,"y",3275,NA,NA,1990,2708,NA,NA,NA,"office",1
"10085338JL","jkm6a870pu","BOI Norms",1,14,"2022-02-12T20:42:55+00:00",4.3554699420929,24,"updated stim.csv","Version74.csv","Version 74","List 74","tuba",NA,"ON",5.130434783,2790,2216,"BOI","-","-","Please name all of the ways you could use this object. Keep in mind that one object can have many uses. Separate your responses with a comma.",NA,"y",4155,NA,NA,2196,3938,NA,NA,NA,"scuba",1
"10085338JL","jkm6a870pu","BOI Norms",1,15,"2022-02-12T20:42:58+00:00",3.011491060257,24,"updated stim.csv","Version74.csv","Version 74","List 74","monk",NA,"ON",5.173913043,1680,2195,"BOI","-","-","Please name all of the ways you could use this object. Keep in mind that one object can have many uses. Separate your responses with a comma.",NA,"y",2843,NA,NA,1894,2732,NA,NA,NA,"honk ",1
"10085338JL","jkm6a870pu","BOI Norms",1,16,"2022-02-12T20:43:05+00:00",6.1762320995331,24,"updated stim.csv","Version74.csv","Version 74","List 74","upholstery",NA,"ON",5.461538462,2827,2199,"BOI","-","-","Please name all of the ways you could use this object. Keep in mind that one object can have many uses. Separate your responses with a comma.",NA,"y",6025,NA,NA,5353,5903,NA,NA,NA,"down ",1
"10085338JL","jkm6a870pu","BOI Norms",1,17,"2022-02-12T20:43:07+00:00",2.2925209999084,24,"updated stim.csv","Version74.csv","Version 74","List 74","clam",NA,"ON",4.375,545,2210,"BOI","-","-","Please name all of the ways you could use this object. Keep in mind that one object can have many uses. Separate your responses with a comma.",NA,"y",2110,NA,NA,1177,1941,NA,NA,NA,"water ",1
"10085338JL","jkm6a870pu","BOI Norms",1,18,"2022-02-12T20:43:11+00:00",4.3913428783417,24,"updated stim.csv","Version74.csv","Version 74","List 74","car",NA,"ON",6.035714286,428,2219,"BOI","-","-","Please name all of the ways you could use this object. Keep in mind that one object can have many uses. Separate your responses with a comma.",NA,"y",3876,NA,NA,1976,3693,NA,NA,NA,"SUV, van ",1
"10085338JL","jkm6a870pu","BOI Norms",1,19,"2022-02-12T20:43:21+00:00",10.123986005783,24,"updated stim.csv","Version74.csv","Version 74","List 74","vanilla",NA,"ON",4.518518519,2837,2202,"BOI","-","-","Please name all of the ways you could use this object. Keep in mind that one object can have many uses. Separate your responses with a comma.",NA,"y",8731,NA,NA,1257,8499,NA,NA,NA,"chocolate, strawberry ",1
"10085338JL","jkm6a870pu","BOI Norms",1,20,"2022-02-12T20:43:24+00:00",2.238893032074,24,"updated stim.csv","Version74.csv","Version 74","List 74","automotive",NA,"ON",4.454545455,102,2204,"BOI","-","-","Please name all of the ways you could use this object. Keep in mind that one object can have many uses. Separate your responses with a comma.",NA,"y",2071,NA,NA,1479,1886,NA,NA,NA,"car",1
"10085338JL","jkm6a870pu","BOI Norms",1,21,"2022-02-12T20:43:27+00:00",2.9358630180359,24,"updated stim.csv","Version74.csv","Version 74","List 74","quarterback",NA,"ON",4.346153846,2111,2217,"BOI","-","-","Please name all of the ways you could use this object. Keep in mind that one object can have many uses. Separate your responses with a comma.",NA,"y",2781,NA,NA,1477,2615,NA,NA,NA,"football",1
"10085338JL","jkm6a870pu","BOI Norms",1,22,"2022-02-12T20:43:32+00:00",5.698343038559,24,"updated stim.csv","Version74.csv","Version 74","List 74","ruby",NA,"ON",4.76,2202,2198,"BOI","-","-","Please name all of the ways you could use this object. Keep in mind that one object can have many uses. Separate your responses with a comma.",NA,"y",5553,NA,NA,1185,5434,NA,NA,NA,"red slippers",1
"10085338JL","jkm6a870pu","BOI Norms",1,23,"2022-02-12T20:43:36+00:00",3.6821949481964,24,"updated stim.csv","Version74.csv","Version 74","List 74","terrycloth",NA,"ON",4.692307692,2669,2203,"BOI","-","-","Please name all of the ways you could use this object. Keep in mind that one object can have many uses. Separate your responses with a comma.",NA,"y",3526,NA,NA,1912,3317,NA,NA,NA,"clothes ",1
"10085338JL","jkm6a870pu","BOI Norms",1,24,"2022-02-12T20:43:45+00:00",8.642893075943,24,"updated stim.csv","Version74.csv","Version 74","List 74","case",NA,"ON",4.272727273,445,2193,"BOI","-","-","Please name all of the ways you could use this object. Keep in mind that one object can have many uses. Separate your responses with a comma.",NA,"y",8440,NA,NA,1171,8295,NA,NA,NA,"phone, ipad, computer ",1
"10085338JL","jkm6a870pu","BOI Norms",1,25,"2022-02-12T20:43:47+00:00",2.6630940437317,24,"updated stim.csv","Version74.csv","Version 74","List 74","ashcan",NA,"ON",4.571428571,82,2192,"BOI","-","-","Please name all of the ways you could use this object. Keep in mind that one object can have many uses. Separate your responses with a comma.",NA,"y",2479,NA,NA,1564,2321,NA,NA,NA,"trash ",1
"10085338JL","jkm6a870pu","BOI Norms",1,26,"2022-02-12T20:43:50+00:00",2.7441718578339,24,"updated stim.csv","Version74.csv","Version 74","List 74","parka",NA,"ON",5.875,1876,2196,"BOI","-","-","Please name all of the ways you could use this object. Keep in mind that one object can have many uses. Separate your responses with a comma.",NA,"y",2564,NA,NA,1350,2414,NA,NA,NA,"clothes ",1
"10085338JL","jkm6a870pu","BOI Norms",1,27,"2022-02-12T20:43:55+00:00",5.2601590156555,24,"updated stim.csv","Version74.csv","Version 74","List 74","driver",NA,"ON",4.565217391,850,2197,"BOI","-","-","Please name all of the ways you could use this object. Keep in mind that one object can have many uses. Separate your responses with a comma.",NA,"y",5098,NA,NA,2441,4934,NA,NA,NA,"16, car",1
"10085338JL","jkm6a870pu","BOI Norms",1,28,"2022-02-12T20:43:59+00:00",3.8955919742584,24,"updated stim.csv","Version74.csv","Version 74","List 74","coverall",NA,"ON",4.739130435,670,2220,"BOI","-","-","Please name all of the ways you could use this object. Keep in mind that one object can have many uses. Separate your responses with a comma.",NA,"y",3725,NA,NA,2010,3552,NA,NA,NA,"overall",1
"10085338JL","jkm6a870pu","BOI Norms",1,29,"2022-02-12T20:44:05+00:00",6.3068039417267,24,"updated stim.csv","Version74.csv","Version 74","List 74","underclothing",NA,"ON",6.36,2820,2205,"BOI","-","-","Please name all of the ways you could use this object. Keep in mind that one object can have many uses. Separate your responses with a comma.",NA,"y",6131,NA,NA,2170,5925,NA,NA,NA,"bra, underwear",1
"10085338JL","jkm6a870pu","BOI Norms",1,30,"2022-02-12T20:44:09+00:00",3.6789031028748,24,"updated stim.csv","Version74.csv","Version 74","List 74","salad",NA,"ON",6.111111111,2218,2221,"BOI","-","-","Please name all of the ways you could use this object. Keep in mind that one object can have many uses. Separate your responses with a comma.",NA,"y",3513,NA,NA,1893,3301,NA,NA,NA,"dressing ",1
"10085338JL","jkm6a870pu","BOI Norms",1,31,"2022-02-12T20:44:12+00:00",3.2628200054169,24,"updated stim.csv","Version74.csv","Version 74","List 74","grandparent",NA,"ON",5.56,1152,2215,"BOI","-","-","Please name all of the ways you could use this object. Keep in mind that one object can have many uses. Separate your responses with a comma.",NA,"y",3098,NA,NA,1654,2966,NA,NA,NA,"parents ",1
"10085338JL","jkm6a870pu","BOI Norms",1,32,"2022-02-12T20:44:15+00:00",2.9301700592041,24,"updated stim.csv","Version74.csv","Version 74","List 74","taxi",NA,"ON",5.464285714,2639,2213,"BOI","-","-","Please name all of the ways you could use this object. Keep in mind that one object can have many uses. Separate your responses with a comma.",NA,"y",2760,NA,NA,2156,2632,NA,NA,NA,"tax",1
"10085338JL","jkm6a870pu","BOI Norms",1,33,"2022-02-12T20:44:18+00:00",3.0581028461456,24,"updated stim.csv","Version74.csv","Version 74","List 74","newt",NA,"ON",4.391304348,1765,2201,"BOI","-","-","Please name all of the ways you could use this object. Keep in mind that one object can have many uses. Separate your responses with a comma.",NA,"y",2874,NA,NA,994,2740,NA,NA,NA,"newspaper",1
"10085338JL","jkm6a870pu","BOI Norms",1,34,"2022-02-12T20:44:22+00:00",4.025276184082,24,"updated stim.csv","Version74.csv","Version 74","List 74","holding",NA,"ON",4.428571429,1297,2209,"BOI","-","-","Please name all of the ways you could use this object. Keep in mind that one object can have many uses. Separate your responses with a comma.",NA,"y",3865,NA,NA,1874,3739,NA,NA,NA,"let go ",1
"10085338JL","jkm6a870pu","BOI Norms",1,35,"2022-02-12T20:44:26+00:00",3.2441518306732,24,"updated stim.csv","Version74.csv","Version 74","List 74","washer",NA,"ON",5.518518519,2899,2212,"BOI","-","-","Please name all of the ways you could use this object. Keep in mind that one object can have many uses. Separate your responses with a comma.",NA,"y",3100,NA,NA,1329,2969,NA,NA,NA,"dish washer ",1
"10085338JL","jkm6a870pu","BOI Norms",1,36,"2022-02-12T20:44:28+00:00",2.7871830463409,24,"updated stim.csv","Version74.csv","Version 74","List 74","conductor",NA,"ON",4.75,624,2214,"BOI","-","-","Please name all of the ways you could use this object. Keep in mind that one object can have many uses. Separate your responses with a comma.",NA,"y",2620,NA,NA,1552,2452,NA,NA,NA,"leader ",1
"10085338JL","jkm6a870pu","BOI Norms",1,37,"2022-02-12T20:44:31+00:00",2.5153150558472,24,"updated stim.csv","Version74.csv","Version 74","List 74","bootlace",NA,"ON",5.64,283,2207,"BOI","-","-","Please name all of the ways you could use this object. Keep in mind that one object can have many uses. Separate your responses with a comma.",NA,"y",2346,NA,NA,1474,2201,NA,NA,NA,"laces",1
"10085338JL","jkm6a870pu","BOI Norms",1,38,"2022-02-12T20:44:34+00:00",3.1784908771515,24,"updated stim.csv","Version74.csv","Version 74","List 74","jeweler",NA,"ON",4.695652174,1385,2208,"BOI","-","-","Please name all of the ways you could use this object. Keep in mind that one object can have many uses. Separate your responses with a comma.",NA,"y",3018,NA,NA,1355,2843,NA,NA,NA,"store",1
"10085338JL","jkm6a870pu","BOI Norms",1,39,"2022-02-12T20:44:37+00:00",2.5196549892426,24,"updated stim.csv","Version74.csv","Version 74","List 74","spaghetti",NA,"ON",6,2461,2200,"BOI","-","-","Please name all of the ways you could use this object. Keep in mind that one object can have many uses. Separate your responses with a comma.",NA,"y",2352,NA,NA,1343,2207,NA,NA,NA,"sauce ",1
"10085338JL","jkm6a870pu","BOI Norms",1,40,"2022-02-12T20:44:40+00:00",3.5449650287628,24,"updated stim.csv","Version74.csv","Version 74","List 74","sofa",NA,"ON",6.608695652,2443,2218,"BOI","-","-","Please name all of the ways you could use this object. Keep in mind that one object can have many uses. Separate your responses with a comma.",NA,"y",3382,NA,NA,1779,3223,NA,NA,NA,"love seat ",1
"10101196KS","0lmucodpu7","BOI Norms",1,11,"2021-11-19T02:16:30+00:00",20.804325819016,15,"updated stim.csv","Version65.csv","Version 65","List 65","firstborn",NA,"ON",4.518518519,988,1947,"BOI","-","-","Please name all of the ways you could use this object. Keep in mind that one object can have many uses. Separate your responses with a comma.",NA,"y",20662,NA,NA,9894,17204,NA,NA,NA,"Talk, hug, ",1
"10101196KS","0lmucodpu7","BOI Norms",1,12,"2021-11-19T02:16:51+00:00",21.241044998169,15,"updated stim.csv","Version65.csv","Version 65","List 65","matter",NA,"ON",4.4,1625,1922,"BOI","-","-","Please name all of the ways you could use this object. Keep in mind that one object can have many uses. Separate your responses with a comma.",NA,"y",21083,NA,NA,15156,20515,NA,NA,NA,"I dont know",1
"10101196KS","0lmucodpu7","BOI Norms",1,13,"2021-11-19T02:17:11+00:00",19.056186199188,15,"updated stim.csv","Version65.csv","Version 65","List 65","staple",NA,"ON",5.32,2507,1935,"BOI","-","-","Please name all of the ways you could use this object. Keep in mind that one object can have many uses. Separate your responses with a comma.",NA,"y",18896,NA,NA,2005,17407,NA,NA,NA,"staple papers, cut something,",1
"10101196KS","0lmucodpu7","BOI Norms",1,14,"2021-11-19T02:17:28+00:00",17.717251777649,15,"updated stim.csv","Version65.csv","Version 65","List 65","sledgehammer",NA,"ON",5.916666667,2408,1932,"BOI","-","-","Please name all of the ways you could use this object. Keep in mind that one object can have many uses. Separate your responses with a comma.",NA,"y",17563,NA,NA,1541,16904,NA,NA,NA,"hit something, break something",1
"10101196KS","0lmucodpu7","BOI Norms",1,15,"2021-11-19T02:17:48+00:00",19.494252204895,15,"updated stim.csv","Version65.csv","Version 65","List 65","spectacles",NA,"ON",5.28,2466,1928,"BOI","-","-","Please name all of the ways you could use this object. Keep in mind that one object can have many uses. Separate your responses with a comma.",NA,"y",19317,NA,NA,11372,18212,NA,NA,NA,"look through, break",1
"10101196KS","0lmucodpu7","BOI Norms",1,16,"2021-11-19T02:17:59+00:00",10.930042982101,15,"updated stim.csv","Version65.csv","Version 65","List 65","playground",NA,"ON",4.695652174,2000,1930,"BOI","-","-","Please name all of the ways you could use this object. Keep in mind that one object can have many uses. Separate your responses with a comma.",NA,"y",10774,NA,NA,1269,9989,NA,NA,NA,"play on, talk on",1
"10101196KS","0lmucodpu7","BOI Norms",1,17,"2021-11-19T02:18:12+00:00",12.866091012955,15,"updated stim.csv","Version65.csv","Version 65","List 65","sofa",NA,"ON",6.608695652,2443,1933,"BOI","-","-","Please name all of the ways you could use this object. Keep in mind that one object can have many uses. Separate your responses with a comma.",NA,"y",12711,NA,NA,1464,11913,NA,NA,NA,"sit, sleep, talk, jump",1
"10101196KS","0lmucodpu7","BOI Norms",1,18,"2021-11-19T02:18:30+00:00",18.942708969116,15,"updated stim.csv","Version65.csv","Version 65","List 65","picture",NA,"ON",5.32,1952,1939,"BOI","-","-","Please name all of the ways you could use this object. Keep in mind that one object can have many uses. Separate your responses with a comma.",NA,"y",18779,NA,NA,2103,18200,NA,NA,NA,"look at, take a picture, be in a picture",1
"10101196KS","0lmucodpu7","BOI Norms",1,19,"2021-11-19T02:19:24+00:00",54.013241052628,15,"updated stim.csv","Version65.csv","Version 65","List 65","carpenter",NA,"ON",5.464285714,436,1929,"BOI","-","-","Please name all of the ways you could use this object. Keep in mind that one object can have many uses. Separate your responses with a comma.",NA,"y",53854,NA,NA,49259,53133,NA,NA,NA,"fix carpet",0.981
"10101196KS","0lmucodpu7","BOI Norms",1,20,"2021-11-19T02:19:32+00:00",7.1622438430786,15,"updated stim.csv","Version65.csv","Version 65","List 65","boatman",NA,"ON",4.76,257,1945,"BOI","-","-","Please name all of the ways you could use this object. Keep in mind that one object can have many uses. Separate your responses with a comma.",NA,"y",7009,NA,NA,2267,6379,NA,NA,NA,"drive a boat",1
"10101196KS","0lmucodpu7","BOI Norms",1,21,"2021-11-19T02:19:39+00:00",7.530296087265,15,"updated stim.csv","Version65.csv","Version 65","List 65","motorboat",NA,"ON",5.304347826,1695,1946,"BOI","-","-","Please name all of the ways you could use this object. Keep in mind that one object can have many uses. Separate your responses with a comma.",NA,"y",7390,NA,NA,1778,5396,NA,NA,NA,"ride on",1
"10101196KS","0lmucodpu7","BOI Norms",1,22,"2021-11-19T02:19:48+00:00",8.5469770431519,15,"updated stim.csv","Version65.csv","Version 65","List 65","headlight",NA,"ON",4.538461538,1267,1942,"BOI","-","-","Please name all of the ways you could use this object. Keep in mind that one object can have many uses. Separate your responses with a comma.",NA,"y",8381,NA,NA,2337,7779,NA,NA,NA,"fix, use to see",1
"10101196KS","0lmucodpu7","BOI Norms",1,23,"2021-11-19T02:19:56+00:00",8.4377129077911,15,"updated stim.csv","Version65.csv","Version 65","List 65","wheelbarrow",NA,"ON",5.5,2922,1926,"BOI","-","-","Please name all of the ways you could use this object. Keep in mind that one object can have many uses. Separate your responses with a comma.",NA,"y",8294,NA,NA,2695,7745,NA,NA,NA,"wheel stuff",1
"10101196KS","0lmucodpu7","BOI Norms",1,24,"2021-11-19T02:20:05+00:00",9.0391631126404,15,"updated stim.csv","Version65.csv","Version 65","List 65","neckwear",NA,"ON",5.652173913,1743,1931,"BOI","-","-","Please name all of the ways you could use this object. Keep in mind that one object can have many uses. Separate your responses with a comma.",NA,"y",8901,NA,NA,2760,8361,NA,NA,NA,"wear, buy, sell",1
"10101196KS","0lmucodpu7","BOI Norms",1,25,"2021-11-19T02:20:13+00:00",8.0664639472961,15,"updated stim.csv","Version65.csv","Version 65","List 65","environment",NA,"ON",4.52173913,914,1934,"BOI","-","-","Please name all of the ways you could use this object. Keep in mind that one object can have many uses. Separate your responses with a comma.",NA,"y",7923,NA,NA,3640,6319,NA,NA,NA,"look at",1
"10101196KS","0lmucodpu7","BOI Norms",1,26,"2021-11-19T02:20:22+00:00",8.8722398281097,15,"updated stim.csv","Version65.csv","Version 65","List 65","seed",NA,"ON",5.185185185,2308,1927,"BOI","-","-","Please name all of the ways you could use this object. Keep in mind that one object can have many uses. Separate your responses with a comma.",NA,"y",8737,NA,NA,1412,7837,NA,NA,NA,"plant, eat, water",1
"10101196KS","0lmucodpu7","BOI Norms",1,27,"2021-11-19T02:20:28+00:00",6.2366280555725,15,"updated stim.csv","Version65.csv","Version 65","List 65","wingman",NA,"ON",4.391304348,2950,1940,"BOI","-","-","Please name all of the ways you could use this object. Keep in mind that one object can have many uses. Separate your responses with a comma.",NA,"y",6090,NA,NA,3856,5525,NA,NA,NA,"talk",1
"10101196KS","0lmucodpu7","BOI Norms",1,28,"2021-11-19T02:20:35+00:00",6.3580281734467,15,"updated stim.csv","Version65.csv","Version 65","List 65","pew",NA,"ON",4.666666667,1936,1949,"BOI","-","-","Please name all of the ways you could use this object. Keep in mind that one object can have many uses. Separate your responses with a comma.",NA,"y",6221,NA,NA,4095,5638,NA,NA,NA,"idk",1
"10101196KS","0lmucodpu7","BOI Norms",1,29,"2021-11-19T02:20:40+00:00",4.9668378829956,15,"updated stim.csv","Version65.csv","Version 65","List 65","washboard",NA,"ON",5.208333333,2896,1944,"BOI","-","-","Please name all of the ways you could use this object. Keep in mind that one object can have many uses. Separate your responses with a comma.",NA,"y",4837,NA,NA,1225,4353,NA,NA,NA,"wash clothes",1
"10101196KS","0lmucodpu7","BOI Norms",1,30,"2021-11-19T02:20:47+00:00",7.720664024353,15,"updated stim.csv","Version65.csv","Version 65","List 65","tomato",NA,"ON",6.125,2723,1938,"BOI","-","-","Please name all of the ways you could use this object. Keep in mind that one object can have many uses. Separate your responses with a comma.",NA,"y",7582,NA,NA,1369,6414,NA,NA,NA,"eat, cook, buy",1
"10101196KS","0lmucodpu7","BOI Norms",1,31,"2021-11-19T02:21:00+00:00",12.102289915085,15,"updated stim.csv","Version65.csv","Version 65","List 65","espresso",NA,"ON",5.24,921,1951,"BOI","-","-","Please name all of the ways you could use this object. Keep in mind that one object can have many uses. Separate your responses with a comma.",NA,"y",11957,NA,NA,1643,11393,NA,NA,NA,"drink, make, buy, sell",1
"10101196KS","0lmucodpu7","BOI Norms",1,32,"2021-11-19T02:21:11+00:00",10.97930598259,15,"updated stim.csv","Version65.csv","Version 65","List 65","boutique",NA,"ON",4.692307692,291,1925,"BOI","-","-","Please name all of the ways you could use this object. Keep in mind that one object can have many uses. Separate your responses with a comma.",NA,"y",10831,NA,NA,2669,9907,NA,NA,NA,"own, shop, buy clothes",1
"10101196KS","0lmucodpu7","BOI Norms",1,33,"2021-11-19T02:21:17+00:00",6.0459711551666,15,"updated stim.csv","Version65.csv","Version 65","List 65","scab",NA,"ON",4.958333333,2258,1923,"BOI","-","-","Please name all of the ways you could use this object. Keep in mind that one object can have many uses. Separate your responses with a comma.",NA,"y",5898,NA,NA,2000,3958,NA,NA,NA,"pick at",1
"10101196KS","0lmucodpu7","BOI Norms",1,34,"2021-11-19T02:21:36+00:00",19.510480880737,15,"updated stim.csv","Version65.csv","Version 65","List 65","fish",NA,"ON",5.592592593,989,1936,"BOI","-","-","Please name all of the ways you could use this object. Keep in mind that one object can have many uses. Separate your responses with a comma.",NA,"y",19369,NA,NA,2559,18519,NA,NA,NA,"fishing, eat, get as a pet, cook",1
"10101196KS","0lmucodpu7","BOI Norms",1,35,"2021-11-19T02:21:48+00:00",11.595103025436,15,"updated stim.csv","Version65.csv","Version 65","List 65","fiddle",NA,"ON",6.043478261,970,1943,"BOI","-","-","Please name all of the ways you could use this object. Keep in mind that one object can have many uses. Separate your responses with a comma.",NA,"y",11428,NA,NA,1667,10919,NA,NA,NA,"play, listen to someone play",1
"10101196KS","0lmucodpu7","BOI Norms",1,36,"2021-11-19T02:21:51+00:00",2.9390139579773,15,"updated stim.csv","Version65.csv","Version 65","List 65","foliage",NA,"ON",4.6,1025,1950,"BOI","-","-","Please name all of the ways you could use this object. Keep in mind that one object can have many uses. Separate your responses with a comma.",NA,"y",2787,NA,NA,1575,2299,NA,NA,NA,"idk",1
"10101196KS","0lmucodpu7","BOI Norms",1,37,"2021-11-19T02:21:56+00:00",5.2298991680145,15,"updated stim.csv","Version65.csv","Version 65","List 65","tights",NA,"ON",5.956521739,2696,1937,"BOI","-","-","Please name all of the ways you could use this object. Keep in mind that one object can have many uses. Separate your responses with a comma.",NA,"y",5090,NA,NA,1687,4649,NA,NA,NA,"wear, buy",1
"10101196KS","0lmucodpu7","BOI Norms",1,38,"2021-11-19T02:22:09+00:00",13.2791929245,15,"updated stim.csv","Version65.csv","Version 65","List 65","scientist",NA,"ON",4.47826087,2274,1948,"BOI","-","-","Please name all of the ways you could use this object. Keep in mind that one object can have many uses. Separate your responses with a comma.",NA,"y",13126,NA,NA,2892,12537,NA,NA,NA,"hire, be one",1
"10101196KS","0lmucodpu7","BOI Norms",1,39,"2021-11-19T02:22:15+00:00",5.9177160263062,15,"updated stim.csv","Version65.csv","Version 65","List 65","harpist",NA,"ON",4.304347826,1254,1924,"BOI","-","-","Please name all of the ways you could use this object. Keep in mind that one object can have many uses. Separate your responses with a comma.",NA,"y",5760,NA,NA,4343,5142,NA,NA,NA,"idk",1
"10101196KS","0lmucodpu7","BOI Norms",1,40,"2021-11-19T02:22:25+00:00",10.34668302536,15,"updated stim.csv","Version65.csv","Version 65","List 65","retriever",NA,"ON",4.96,2160,1941,"BOI","-","-","Please name all of the ways you could use this object. Keep in mind that one object can have many uses. Separate your responses with a comma.",NA,"y",10206,NA,NA,1891,8765,NA,NA,NA,"tell them to retrieve",1
"10109304sb","d2tj16hbui","BOI Norms",1,11,"2021-11-19T18:33:54+00:00",29.284446001053,17,"updated stim.csv","Version67.csv","Version 67","List 67","puppy",NA,"ON",6.25,2104,1983,"BOI","-","-","Please name all of the ways you could use this object. Keep in mind that one object can have many uses. Separate your responses with a comma.",NA,"y",28903,NA,NA,1552,28000,NA,NA,NA,"pet, kiss, love, buy, adopt, walk, play fetch, give treats, cuddle",1
"10109304sb","d2tj16hbui","BOI Norms",1,12,"2021-11-19T18:34:02+00:00",8.0721139907837,17,"updated stim.csv","Version67.csv","Version 67","List 67","buffalo",NA,"ON",4.692307692,345,1998,"BOI","-","-","Please name all of the ways you could use this object. Keep in mind that one object can have many uses. Separate your responses with a comma.",NA,"y",7603,NA,NA,2992,7432,NA,NA,NA,"see, view, feed",1
