Username,ID,ExperimentName,Session,Trial,Date,TimeDif,Condition.Number,Stimuli.File,Order.File,Condition.Description,Condition.Notes,Stimuli.Cue,Stimuli.Answer,Stimuli.Shuffle,Stimuli.Stimuli.Notes,Stimuli.Value,Stimuli.Rand,Procedure.Item,Procedure.Trial.Type,Procedure.Max.Time,Procedure.Min.Time,Procedure.Text,Procedure.Procedure.Notes,Procedure.Shuffle,Response.RT,Response.Response,Response.Accuracy,Response.RTfirst,Response.RTlast,Response.strictAcc,Response.lenientAcc,Response.focus,Response.JOL,Response.Focus
M20266953V.S,mf9wrnyxoq,Affordance Norms_MSU_TEX,1,11,2023-02-16T17:23:02+00:00,20.03349996,78,updated stim.csv,Version78.csv,Version 78,List 78,cigarette,NA,2326,6.272727273,543,0.024884146,2327,BOI,-,-,Please name all of the ways you could use this object. Keep in mind that one object can have many uses. Separate your responses with a comma.,NA,y,19814,NA,NA,16937,19553,NA,NA,NA,smoke,1
M20266953V.S,mf9wrnyxoq,Affordance Norms_MSU_TEX,1,12,2023-02-16T17:23:08+00:00,5.722303152,78,updated stim.csv,Version78.csv,Version 78,List 78,tavern,NA,2337,4.36,2638,0.476901058,2338,BOI,-,-,Please name all of the ways you could use this object. Keep in mind that one object can have many uses. Separate your responses with a comma.,NA,y,5500,NA,NA,3717,5253,NA,NA,NA,explore,1
M20266953V.S,mf9wrnyxoq,Affordance Norms_MSU_TEX,1,13,2023-02-16T17:23:12+00:00,4.605848789,78,updated stim.csv,Version78.csv,Version 78,List 78,sugarcane,NA,2335,5.043478261,2581,0.24502885,2336,BOI,-,-,Please name all of the ways you could use this object. Keep in mind that one object can have many uses. Separate your responses with a comma.,NA,y,4407,NA,NA,3625,4005,NA,NA,NA,pie,1
M20266953V.S,mf9wrnyxoq,Affordance Norms_MSU_TEX,1,14,2023-02-16T17:23:18+00:00,5.471716166,78,updated stim.csv,Version78.csv,Version 78,List 78,windsock,NA,2330,4.391304348,2946,0.038283571,2331,BOI,-,-,Please name all of the ways you could use this object. Keep in mind that one object can have many uses. Separate your responses with a comma.,NA,y,5250,NA,NA,4300,4894,NA,NA,NA,air,1
M20266953V.S,mf9wrnyxoq,Affordance Norms_MSU_TEX,1,15,2023-02-16T17:23:25+00:00,7.474101067,78,updated stim.csv,Version78.csv,Version 78,List 78,rug,NA,2318,6.173913043,2204,0.561473521,2319,BOI,-,-,Please name all of the ways you could use this object. Keep in mind that one object can have many uses. Separate your responses with a comma.,NA,y,7272,NA,NA,4790,7048,NA,NA,NA,decoration,1
M20266953V.S,mf9wrnyxoq,Affordance Norms_MSU_TEX,1,16,2023-02-16T17:23:29+00:00,4.301037788,78,updated stim.csv,Version78.csv,Version 78,List 78,mousse,NA,2334,5.260869565,1703,0.29265278,2335,BOI,-,-,Please name all of the ways you could use this object. Keep in mind that one object can have many uses. Separate your responses with a comma.,NA,y,4096,NA,NA,2571,3776,NA,NA,NA,rotten,1
M20266953V.S,mf9wrnyxoq,Affordance Norms_MSU_TEX,1,17,2023-02-16T17:23:33+00:00,3.478386164,78,updated stim.csv,Version78.csv,Version 78,List 78,silverware,NA,2315,6.24,2383,0.774426058,2316,BOI,-,-,Please name all of the ways you could use this object. Keep in mind that one object can have many uses. Separate your responses with a comma.,NA,y,2930,NA,NA,2037,2617,NA,NA,NA,eat,1
M20266953V.S,mf9wrnyxoq,Affordance Norms_MSU_TEX,1,18,2023-02-16T17:23:38+00:00,5.088651896,78,updated stim.csv,Version78.csv,Version 78,List 78,bully,NA,2324,4.857142857,356,0.503281238,2325,BOI,-,-,Please name all of the ways you could use this object. Keep in mind that one object can have many uses. Separate your responses with a comma.,NA,y,4890,NA,NA,2905,4597,NA,NA,NA,school,1
M20266953V.S,mf9wrnyxoq,Affordance Norms_MSU_TEX,1,19,2023-02-16T17:23:49+00:00,10.94456697,78,updated stim.csv,Version78.csv,Version 78,List 78,gymnast,NA,2320,5,1205,0.491360586,2321,BOI,-,-,Please name all of the ways you could use this object. Keep in mind that one object can have many uses. Separate your responses with a comma.,NA,y,10729,NA,NA,3021,10432,NA,NA,NA,excersies ,1
M20266953V.S,mf9wrnyxoq,Affordance Norms_MSU_TEX,1,20,2023-02-16T17:23:52+00:00,3.493267059,78,updated stim.csv,Version78.csv,Version 78,List 78,pretzel,NA,2321,6.04,2061,0.687271848,2322,BOI,-,-,Please name all of the ways you could use this object. Keep in mind that one object can have many uses. Separate your responses with a comma.,NA,y,3293,NA,NA,2350,2988,NA,NA,NA,eat,1
M20266953V.S,mf9wrnyxoq,Affordance Norms_MSU_TEX,1,21,2023-02-16T17:23:55+00:00,2.063043118,78,updated stim.csv,Version78.csv,Version 78,List 78,sphincter,NA,2322,4.88,2469,0.005777489,2323,BOI,-,-,Please name all of the ways you could use this object. Keep in mind that one object can have many uses. Separate your responses with a comma.,NA,y,1863,NA,NA,-1,-1,NA,NA,NA,,1
M20266953V.S,mf9wrnyxoq,Affordance Norms_MSU_TEX,1,22,2023-02-16T17:23:58+00:00,3.652289867,78,updated stim.csv,Version78.csv,Version 78,List 78,drawstring,NA,2314,5.28,842,0.923833407,2315,BOI,-,-,Please name all of the ways you could use this object. Keep in mind that one object can have many uses. Separate your responses with a comma.,NA,y,3452,NA,NA,2369,3188,NA,NA,NA,art,1
M20266953V.S,mf9wrnyxoq,Affordance Norms_MSU_TEX,1,23,2023-02-16T17:24:01+00:00,2.309422016,78,updated stim.csv,Version78.csv,Version 78,List 78,turnstile,NA,2323,4.818181818,2803,0.709723973,2324,BOI,-,-,Please name all of the ways you could use this object. Keep in mind that one object can have many uses. Separate your responses with a comma.,NA,y,2115,NA,NA,-1,-1,NA,NA,NA,,1
M20266953V.S,mf9wrnyxoq,Affordance Norms_MSU_TEX,1,24,2023-02-16T17:24:06+00:00,5.237306118,78,updated stim.csv,Version78.csv,Version 78,List 78,kiss,NA,2311,4.571428571,1422,0.943335028,2312,BOI,-,-,Please name all of the ways you could use this object. Keep in mind that one object can have many uses. Separate your responses with a comma.,NA,y,5041,NA,NA,2452,4822,NA,NA,NA,connectin,1
M20266953V.S,mf9wrnyxoq,Affordance Norms_MSU_TEX,1,25,2023-02-16T17:24:08+00:00,2.312369823,78,updated stim.csv,Version78.csv,Version 78,List 78,garter,NA,2327,4.904761905,1083,0.246258385,2328,BOI,-,-,Please name all of the ways you could use this object. Keep in mind that one object can have many uses. Separate your responses with a comma.,NA,y,2104,NA,NA,-1,-1,NA,NA,NA,,1
M20266953V.S,mf9wrnyxoq,Affordance Norms_MSU_TEX,1,26,2023-02-16T17:24:09+00:00,1.29052496,78,updated stim.csv,Version78.csv,Version 78,List 78,urn,NA,2338,4.791666667,2829,0.342669345,2339,BOI,-,-,Please name all of the ways you could use this object. Keep in mind that one object can have many uses. Separate your responses with a comma.,NA,y,1074,NA,NA,-1,-1,NA,NA,NA,,1
M20266953V.S,mf9wrnyxoq,Affordance Norms_MSU_TEX,1,27,2023-02-16T17:24:14+00:00,4.242856026,78,updated stim.csv,Version78.csv,Version 78,List 78,limeade,NA,2331,4.75,1513,0.129339551,2332,BOI,-,-,Please name all of the ways you could use this object. Keep in mind that one object can have many uses. Separate your responses with a comma.,NA,y,4048,NA,NA,2514,3670,NA,NA,NA,drink,1
M20266953V.S,mf9wrnyxoq,Affordance Norms_MSU_TEX,1,28,2023-02-16T17:24:18+00:00,4.719619989,78,updated stim.csv,Version78.csv,Version 78,List 78,colleague,NA,2325,5.724137931,602,0.146664058,2326,BOI,-,-,Please name all of the ways you could use this object. Keep in mind that one object can have many uses. Separate your responses with a comma.,NA,y,4488,NA,NA,1807,4244,NA,NA,NA,work place,1
M20266953V.S,mf9wrnyxoq,Affordance Norms_MSU_TEX,1,29,2023-02-16T17:24:23+00:00,4.886095047,78,updated stim.csv,Version78.csv,Version 78,List 78,bookbinder,NA,2312,4.75,271,0.461851371,2313,BOI,-,-,Please name all of the ways you could use this object. Keep in mind that one object can have many uses. Separate your responses with a comma.,NA,y,4683,NA,NA,3000,4285,NA,NA,NA,diver,1
M20266953V.S,mf9wrnyxoq,Affordance Norms_MSU_TEX,1,30,2023-02-16T17:24:28+00:00,4.72145915,78,updated stim.csv,Version78.csv,Version 78,List 78,ribbon,NA,2333,6.375,2165,0.050087732,2334,BOI,-,-,Please name all of the ways you could use this object. Keep in mind that one object can have many uses. Separate your responses with a comma.,NA,y,4522,NA,NA,1868,4245,NA,NA,NA,decoration,1
M20266953V.S,mf9wrnyxoq,Affordance Norms_MSU_TEX,1,31,2023-02-16T17:24:32+00:00,4.502510786,78,updated stim.csv,Version78.csv,Version 78,List 78,mirror,NA,2328,6.086956522,1667,0.226109729,2329,BOI,-,-,Please name all of the ways you could use this object. Keep in mind that one object can have many uses. Separate your responses with a comma.,NA,y,4266,NA,NA,1363,3978,NA,NA,NA,reflection,1
M20266953V.S,mf9wrnyxoq,Affordance Norms_MSU_TEX,1,32,2023-02-16T17:24:36+00:00,3.759244204,78,updated stim.csv,Version78.csv,Version 78,List 78,butcher,NA,2336,4.739130435,373,0.369005695,2337,BOI,-,-,Please name all of the ways you could use this object. Keep in mind that one object can have many uses. Separate your responses with a comma.,NA,y,3562,NA,NA,2661,3283,NA,NA,NA,meat,1
M20266953V.S,mf9wrnyxoq,Affordance Norms_MSU_TEX,1,33,2023-02-16T17:24:41+00:00,5.151355982,78,updated stim.csv,Version78.csv,Version 78,List 78,roadster,NA,2329,4.96,2177,0.847078991,2330,BOI,-,-,Please name all of the ways you could use this object. Keep in mind that one object can have many uses. Separate your responses with a comma.,NA,y,4947,NA,NA,3884,4634,NA,NA,NA,list,1
M20266953V.S,mf9wrnyxoq,Affordance Norms_MSU_TEX,1,34,2023-02-16T17:24:48+00:00,6.867902994,78,updated stim.csv,Version78.csv,Version 78,List 78,turkey,NA,2339,4.833333333,2801,0.26724413,2340,BOI,-,-,Please name all of the ways you could use this object. Keep in mind that one object can have many uses. Separate your responses with a comma.,NA,y,6555,NA,NA,1820,6286,NA,NA,NA,food celebration,1
M20266953V.S,mf9wrnyxoq,Affordance Norms_MSU_TEX,1,35,2023-02-16T17:24:58+00:00,9.708958864,78,updated stim.csv,Version78.csv,Version 78,List 78,goddaughter,NA,2340,5.04,1126,0.939122415,2341,BOI,-,-,Please name all of the ways you could use this object. Keep in mind that one object can have many uses. Separate your responses with a comma.,NA,y,9501,NA,NA,3240,9237,NA,NA,NA,catholic church ,1
M20266953V.S,mf9wrnyxoq,Affordance Norms_MSU_TEX,1,36,2023-02-16T17:25:02+00:00,4.397350073,78,updated stim.csv,Version78.csv,Version 78,List 78,dresser,NA,2332,5.04,844,0.671546339,2333,BOI,-,-,Please name all of the ways you could use this object. Keep in mind that one object can have many uses. Separate your responses with a comma.,NA,y,4202,NA,NA,2413,3955,NA,NA,NA,wedding ,1
M20266953V.S,mf9wrnyxoq,Affordance Norms_MSU_TEX,1,37,2023-02-16T17:25:07+00:00,4.873261929,78,updated stim.csv,Version78.csv,Version 78,List 78,cop,NA,2319,4.458333333,635,0.734992749,2320,BOI,-,-,Please name all of the ways you could use this object. Keep in mind that one object can have many uses. Separate your responses with a comma.,NA,y,4659,NA,NA,3220,4426,NA,NA,NA,ticket,1
M20266953V.S,mf9wrnyxoq,Affordance Norms_MSU_TEX,1,38,2023-02-16T17:25:09+00:00,1.586805105,78,updated stim.csv,Version78.csv,Version 78,List 78,bonnet,NA,2317,6.043478261,269,0.199553809,2318,BOI,-,-,Please name all of the ways you could use this object. Keep in mind that one object can have many uses. Separate your responses with a comma.,NA,y,1381,NA,NA,-1,-1,NA,NA,NA,,1
M20266953V.S,mf9wrnyxoq,Affordance Norms_MSU_TEX,1,39,2023-02-16T17:25:17+00:00,8.384183884,78,updated stim.csv,Version78.csv,Version 78,List 78,friend,NA,2313,5,1057,0.768934119,2314,BOI,-,-,Please name all of the ways you could use this object. Keep in mind that one object can have many uses. Separate your responses with a comma.,NA,y,8167,NA,NA,2768,7755,NA,NA,NA,outside family,1
M20266953V.S,mf9wrnyxoq,Affordance Norms_MSU_TEX,1,40,2023-02-16T17:25:23+00:00,5.428617001,78,updated stim.csv,Version78.csv,Version 78,List 78,plantain,NA,2316,5.409090909,1990,0.820216404,2317,BOI,-,-,Please name all of the ways you could use this object. Keep in mind that one object can have many uses. Separate your responses with a comma.,NA,y,5202,NA,NA,3664,4662,NA,NA,NA,fruit,1
M20268581_mns,qr3nesq91j,Affordance Norms_MSU_TEX,1,11,2023-02-21T20:25:06+00:00,43.72111177,88,updated stim.csv,Version88.csv,Version 88,List 88,me,NA,2627,5.708333333,1630,0.946275802,2628,BOI,-,-,Please name all of the ways you could use this object. Keep in mind that one object can have many uses. Separate your responses with a comma.,NA,y,35749,NA,NA,34235,34710,NA,NA,NA,work,1
M20268581_mns,qr3nesq91j,Affordance Norms_MSU_TEX,1,12,2023-02-21T20:25:58+00:00,52.33198023,88,updated stim.csv,Version88.csv,Version 88,List 88,cornmeal,NA,2619,5.913043478,649,0.10529369,2620,BOI,-,-,Please name all of the ways you could use this object. Keep in mind that one object can have many uses. Separate your responses with a comma.,NA,y,11219,NA,NA,4730,9211,NA,NA,NA,"eat, make, serve",1
M20268581_mns,qr3nesq91j,Affordance Norms_MSU_TEX,1,13,2023-02-21T20:27:05+00:00,66.72571898,88,updated stim.csv,Version88.csv,Version 88,List 88,grandfather,NA,2611,5.833333333,1147,0.072981745,2612,BOI,-,-,Please name all of the ways you could use this object. Keep in mind that one object can have many uses. Separate your responses with a comma.,NA,y,19452,NA,NA,12839,18651,NA,NA,NA,"help, work, family",1
M20268581_mns,qr3nesq91j,Affordance Norms_MSU_TEX,1,14,2023-02-21T20:27:28+00:00,22.892555,88,updated stim.csv,Version88.csv,Version 88,List 88,Sailboat,NA,2626,5.266216216,2216,0.378978462,2627,BOI,-,-,Please name all of the ways you could use this object. Keep in mind that one object can have many uses. Separate your responses with a comma.,NA,y,11916,NA,NA,3485,5096,NA,NA,NA,sail,1
M20268581_mns,qr3nesq91j,Affordance Norms_MSU_TEX,1,15,2023-02-21T20:27:39+00:00,11.18842101,88,updated stim.csv,Version88.csv,Version 88,List 88,spout,NA,2623,5,2485,0.577206203,2624,BOI,-,-,Please name all of the ways you could use this object. Keep in mind that one object can have many uses. Separate your responses with a comma.,NA,y,9417,NA,NA,4787,8414,NA,NA,NA,"water, rinse ",1
M20268581_mns,qr3nesq91j,Affordance Norms_MSU_TEX,1,16,2023-02-21T20:28:08+00:00,29.63162899,88,updated stim.csv,Version88.csv,Version 88,List 88,balloonist,NA,2639,4.275862069,131,0.761714768,2640,BOI,-,-,Please name all of the ways you could use this object. Keep in mind that one object can have many uses. Separate your responses with a comma.,NA,y,28355,NA,NA,3585,27279,NA,NA,NA,"party, blow, entertain",1
M20268581_mns,qr3nesq91j,Affordance Norms_MSU_TEX,1,17,2023-02-21T20:28:30+00:00,21.41979098,88,updated stim.csv,Version88.csv,Version 88,List 88,bus,NA,2613,5.192307692,368,0.37966991,2614,BOI,-,-,Please name all of the ways you could use this object. Keep in mind that one object can have many uses. Separate your responses with a comma.,NA,y,20119,NA,NA,1916,16100,NA,NA,NA,"ride, travel, transfer",1
M20268581_mns,qr3nesq91j,Affordance Norms_MSU_TEX,1,18,2023-02-21T20:28:38+00:00,7.800467014,88,updated stim.csv,Version88.csv,Version 88,List 88,skirt,NA,2638,6.041666667,2400,0.253802164,2639,BOI,-,-,Please name all of the ways you could use this object. Keep in mind that one object can have many uses. Separate your responses with a comma.,NA,y,7141,NA,NA,2057,6690,NA,NA,NA,"wear, use",1
M20268581_mns,qr3nesq91j,Affordance Norms_MSU_TEX,1,19,2023-02-21T20:28:46+00:00,8.699141979,88,updated stim.csv,Version88.csv,Version 88,List 88,treat,NA,2634,4.791666667,2771,0.682839002,2635,BOI,-,-,Please name all of the ways you could use this object. Keep in mind that one object can have many uses. Separate your responses with a comma.,NA,y,7951,NA,NA,1378,6922,NA,NA,NA,"eat, give, make",1
M20268581_mns,qr3nesq91j,Affordance Norms_MSU_TEX,1,20,2023-02-21T20:29:03+00:00,16.92685103,88,updated stim.csv,Version88.csv,Version 88,List 88,donkey,NA,2635,4.826086957,820,0.853493036,2636,BOI,-,-,Please name all of the ways you could use this object. Keep in mind that one object can have many uses. Separate your responses with a comma.,NA,y,16015,NA,NA,3192,14712,NA,NA,NA,"eat, ride, kill, pet",1
M20268581_mns,qr3nesq91j,Affordance Norms_MSU_TEX,1,21,2023-02-21T20:29:14+00:00,11.01561499,88,updated stim.csv,Version88.csv,Version 88,List 88,paintbrush,NA,2630,5.56,1849,0.345509359,2631,BOI,-,-,Please name all of the ways you could use this object. Keep in mind that one object can have many uses. Separate your responses with a comma.,NA,y,9391,NA,NA,2060,8038,NA,NA,NA,"paint, use, buy, sell",1
M20268581_mns,qr3nesq91j,Affordance Norms_MSU_TEX,1,22,2023-02-21T20:29:38+00:00,24.05236983,88,updated stim.csv,Version88.csv,Version 88,List 88,scooter,NA,2637,5.913043478,2278,0.01333775,2638,BOI,-,-,Please name all of the ways you could use this object. Keep in mind that one object can have many uses. Separate your responses with a comma.,NA,y,17234,NA,NA,1846,16102,NA,NA,NA,"ride, buy, sell, make, push",1
M20268581_mns,qr3nesq91j,Affordance Norms_MSU_TEX,1,23,2023-02-21T20:31:14+00:00,95.47930503,88,updated stim.csv,Version88.csv,Version 88,List 88,supermarket,NA,2612,4.869565217,2590,0.052789154,2613,BOI,-,-,Please name all of the ways you could use this object. Keep in mind that one object can have many uses. Separate your responses with a comma.,NA,y,34141,NA,NA,17916,32172,NA,NA,NA,"shop, buy, go",1
M20268581_mns,qr3nesq91j,Affordance Norms_MSU_TEX,1,24,2023-02-21T20:31:21+00:00,7.494728088,88,updated stim.csv,Version88.csv,Version 88,List 88,stenographer,NA,2625,4.625,2521,0.505996283,2626,BOI,-,-,Please name all of the ways you could use this object. Keep in mind that one object can have many uses. Separate your responses with a comma.,NA,y,6355,NA,NA,4771,5519,NA,NA,NA,write,1
M20268581_mns,qr3nesq91j,Affordance Norms_MSU_TEX,1,25,2023-02-21T20:31:35+00:00,13.59104085,88,updated stim.csv,Version88.csv,Version 88,List 88,crib,NA,2631,5.56,694,0.322740091,2632,BOI,-,-,Please name all of the ways you could use this object. Keep in mind that one object can have many uses. Separate your responses with a comma.,NA,y,11783,NA,NA,3865,10625,NA,NA,NA,"rock, make, sleep",1
M20268581_mns,qr3nesq91j,Affordance Norms_MSU_TEX,1,26,2023-02-21T20:31:56+00:00,20.61800504,88,updated stim.csv,Version88.csv,Version 88,List 88,kumquat,NA,2618,5.619047619,1441,0.215163503,2619,BOI,-,-,Please name all of the ways you could use this object. Keep in mind that one object can have many uses. Separate your responses with a comma.,NA,y,7892,NA,NA,-1,-1,NA,NA,NA,,1
M20268581_mns,qr3nesq91j,Affordance Norms_MSU_TEX,1,27,2023-02-21T20:32:09+00:00,13.76642013,88,updated stim.csv,Version88.csv,Version 88,List 88,bedclothes,NA,2617,5.708333333,185,0.51555088,2618,BOI,-,-,Please name all of the ways you could use this object. Keep in mind that one object can have many uses. Separate your responses with a comma.,NA,y,10943,NA,NA,2039,9883,NA,NA,NA,"wear, wash, clean, give",1
M20268581_mns,qr3nesq91j,Affordance Norms_MSU_TEX,1,28,2023-02-21T20:32:19+00:00,9.572669029,88,updated stim.csv,Version88.csv,Version 88,List 88,fertilizer,NA,2615,5.217391304,967,0.884941942,2616,BOI,-,-,Please name all of the ways you could use this object. Keep in mind that one object can have many uses. Separate your responses with a comma.,NA,y,7211,NA,NA,2249,5883,NA,NA,NA,fertilize,1
M20268581_mns,qr3nesq91j,Affordance Norms_MSU_TEX,1,29,2023-02-21T20:32:36+00:00,16.80103993,88,updated stim.csv,Version88.csv,Version 88,List 88,attendant,NA,2629,5.083333333,94,0.096814429,2630,BOI,-,-,Please name all of the ways you could use this object. Keep in mind that one object can have many uses. Separate your responses with a comma.,NA,y,16103,NA,NA,6242,14799,NA,NA,NA,"support, ask, advice, help",1
M20268581_mns,qr3nesq91j,Affordance Norms_MSU_TEX,1,30,2023-02-21T20:32:52+00:00,16.72617507,88,updated stim.csv,Version88.csv,Version 88,List 88,protractor,NA,2614,5.434782609,2082,0.074911109,2615,BOI,-,-,Please name all of the ways you could use this object. Keep in mind that one object can have many uses. Separate your responses with a comma.,NA,y,15911,NA,NA,9050,14976,NA,NA,NA,"work, school, write",1
M20268581_mns,qr3nesq91j,Affordance Norms_MSU_TEX,1,31,2023-02-21T20:33:03+00:00,10.20909786,88,updated stim.csv,Version88.csv,Version 88,List 88,scanner,NA,2636,5.444444444,2264,0.460591208,2637,BOI,-,-,Please name all of the ways you could use this object. Keep in mind that one object can have many uses. Separate your responses with a comma.,NA,y,9335,NA,NA,1613,8166,NA,NA,NA,"scan, check, use",1
M20268581_mns,qr3nesq91j,Affordance Norms_MSU_TEX,1,32,2023-02-21T20:33:18+00:00,14.98306608,88,updated stim.csv,Version88.csv,Version 88,List 88,wiper,NA,2622,5.125,2951,0.03276562,2623,BOI,-,-,Please name all of the ways you could use this object. Keep in mind that one object can have many uses. Separate your responses with a comma.,NA,y,12256,NA,NA,3733,8742,NA,NA,NA,"wipe, clean",1
M20268581_mns,qr3nesq91j,Affordance Norms_MSU_TEX,1,33,2023-02-21T20:33:44+00:00,26.04808807,88,updated stim.csv,Version88.csv,Version 88,List 88,bran,NA,2640,4.407407407,302,0.51057485,2641,BOI,-,-,Please name all of the ways you could use this object. Keep in mind that one object can have many uses. Separate your responses with a comma.,NA,y,4755,NA,NA,-1,-1,NA,NA,NA,,1
M20268581_mns,qr3nesq91j,Affordance Norms_MSU_TEX,1,34,2023-02-21T20:33:58+00:00,14.67447186,88,updated stim.csv,Version88.csv,Version 88,List 88,committeewoman,NA,2633,4.857142857,609,0.736817874,2634,BOI,-,-,Please name all of the ways you could use this object. Keep in mind that one object can have many uses. Separate your responses with a comma.,NA,y,13594,NA,NA,5822,9565,NA,NA,NA,"learn, teach",1
M20268581_mns,qr3nesq91j,Affordance Norms_MSU_TEX,1,35,2023-02-21T20:34:15+00:00,16.24020505,88,updated stim.csv,Version88.csv,Version 88,List 88,breakfast,NA,2624,6.173913043,311,0.358706903,2625,BOI,-,-,Please name all of the ways you could use this object. Keep in mind that one object can have many uses. Separate your responses with a comma.,NA,y,14306,NA,NA,3149,12570,NA,NA,NA,"eat, serve, give, cook",1
M20268581_mns,qr3nesq91j,Affordance Norms_MSU_TEX,1,36,2023-02-21T20:34:28+00:00,13.01832891,88,updated stim.csv,Version88.csv,Version 88,List 88,uniform,NA,2620,5.666666667,2826,0.141324145,2621,BOI,-,-,Please name all of the ways you could use this object. Keep in mind that one object can have many uses. Separate your responses with a comma.,NA,y,12084,NA,NA,1678,9037,NA,NA,NA,"wear, clean, wash",1
M20268581_mns,qr3nesq91j,Affordance Norms_MSU_TEX,1,37,2023-02-21T20:34:44+00:00,16.3236711,88,updated stim.csv,Version88.csv,Version 88,List 88,crossbar,NA,2616,5.043478261,704,0.121929154,2617,BOI,-,-,Please name all of the ways you could use this object. Keep in mind that one object can have many uses. Separate your responses with a comma.,NA,y,15297,NA,NA,6705,14351,NA,NA,NA,watch,1
M20268581_mns,qr3nesq91j,Affordance Norms_MSU_TEX,1,38,2023-02-21T20:34:52+00:00,8.221507072,88,updated stim.csv,Version88.csv,Version 88,List 88,ukulele,NA,2628,5.782608696,2815,0.608619173,2629,BOI,-,-,Please name all of the ways you could use this object. Keep in mind that one object can have many uses. Separate your responses with a comma.,NA,y,7148,NA,NA,1793,5814,NA,NA,NA,"play, make, listen",1
M20268581_mns,qr3nesq91j,Affordance Norms_MSU_TEX,1,39,2023-02-21T20:35:03+00:00,10.7751739,88,updated stim.csv,Version88.csv,Version 88,List 88,garment,NA,2632,5.826086957,1081,0.76823873,2633,BOI,-,-,Please name all of the ways you could use this object. Keep in mind that one object can have many uses. Separate your responses with a comma.,NA,y,8510,NA,NA,3054,6086,NA,NA,NA,wear,1
M20268581_mns,qr3nesq91j,Affordance Norms_MSU_TEX,1,40,2023-02-21T20:35:08+00:00,4.826844931,88,updated stim.csv,Version88.csv,Version 88,List 88,youngster,NA,2621,5,2997,0.833914502,2622,BOI,-,-,Please name all of the ways you could use this object. Keep in mind that one object can have many uses. Separate your responses with a comma.,NA,y,4227,NA,NA,-1,-1,NA,NA,NA,,1
M20278829AES,m7vllk56nx,Affordance Norms_MSU_TEX,1,11,2023-01-21T18:35:50+00:00,32.95570612,56,updated stim.csv,Version56.csv,Version 56,List 56,kettle,NA,1673,5.44,1409,0.732708881,1674,BOI,-,-,Please name all of the ways you could use this object. Keep in mind that one object can have many uses. Separate your responses with a comma.,NA,y,32746,NA,NA,2920,31101,NA,NA,NA,"tea, coffee, boiling water",1
M20278829AES,m7vllk56nx,Affordance Norms_MSU_TEX,1,12,2023-01-21T18:36:14+00:00,24.42068505,56,updated stim.csv,Version56.csv,Version 56,List 56,waistband,NA,1678,5.833333333,2881,0.015176289,1679,BOI,-,-,Please name all of the ways you could use this object. Keep in mind that one object can have many uses. Separate your responses with a comma.,NA,y,24209,NA,NA,6380,17477,NA,NA,NA,"hold clothing up, tighten clothing",1
M20278829AES,m7vllk56nx,Affordance Norms_MSU_TEX,1,13,2023-01-21T18:36:47+00:00,32.68240285,56,updated stim.csv,Version56.csv,Version 56,List 56,surveyor,NA,1669,4.47826087,2596,0.652692001,1670,BOI,-,-,Please name all of the ways you could use this object. Keep in mind that one object can have many uses. Separate your responses with a comma.,NA,y,32465,NA,NA,3889,31121,NA,NA,NA,"Construction, Survey monkey",1
M20278829AES,m7vllk56nx,Affordance Norms_MSU_TEX,1,14,2023-01-21T18:38:14+00:00,87.04607606,56,updated stim.csv,Version56.csv,Version 56,List 56,dog,NA,1662,6.4,811,0.650790749,1663,BOI,-,-,Please name all of the ways you could use this object. Keep in mind that one object can have many uses. Separate your responses with a comma.,NA,y,87017,NA,NA,4715,85199,NA,NA,NA,"guardian, protector, companion, Comfort therapist, Service dog,",1
M20278829AES,m7vllk56nx,Affordance Norms_MSU_TEX,1,15,2023-01-21T18:39:37+00:00,82.62145495,56,updated stim.csv,Version56.csv,Version 56,List 56,privates,NA,1652,4.681818182,2068,0.300924862,1653,BOI,-,-,Please name all of the ways you could use this object. Keep in mind that one object can have many uses. Separate your responses with a comma.,NA,y,82055,NA,NA,34046,74669,NA,NA,NA,"sex, birth, and body parts",1
M20278829AES,m7vllk56nx,Affordance Norms_MSU_TEX,1,16,2023-01-21T18:40:16+00:00,39.32731509,56,updated stim.csv,Version56.csv,Version 56,List 56,lemonade,NA,1672,5.409090909,1490,0.878080533,1673,BOI,-,-,Please name all of the ways you could use this object. Keep in mind that one object can have many uses. Separate your responses with a comma.,NA,y,39098,NA,NA,3536,17013,NA,NA,NA,"drinking, cooking, ",1
M20278829AES,m7vllk56nx,Affordance Norms_MSU_TEX,1,17,2023-01-21T18:41:41+00:00,84.7760489,56,updated stim.csv,Version56.csv,Version 56,List 56,passenger,NA,1667,5.08,1880,0.578418709,1668,BOI,-,-,Please name all of the ways you could use this object. Keep in mind that one object can have many uses. Separate your responses with a comma.,NA,y,84468,NA,NA,4786,82786,NA,NA,NA,"airplane, vehicle, Carnival rider, participant",1
M20278829AES,m7vllk56nx,Affordance Norms_MSU_TEX,1,18,2023-01-21T18:42:54+00:00,73.10308194,56,updated stim.csv,Version56.csv,Version 56,List 56,ale,NA,1666,4.962962963,25,0.184411258,1667,BOI,-,-,Please name all of the ways you could use this object. Keep in mind that one object can have many uses. Separate your responses with a comma.,NA,y,72834,NA,NA,45705,70541,NA,NA,NA,"drinking, celebration, casual, cold, drafted",1
M20278829AES,m7vllk56nx,Affordance Norms_MSU_TEX,1,19,2023-01-21T18:43:15+00:00,21.25055313,56,updated stim.csv,Version56.csv,Version 56,List 56,apple,NA,1677,6.272727273,61,0.853470163,1678,BOI,-,-,Please name all of the ways you could use this object. Keep in mind that one object can have many uses. Separate your responses with a comma.,NA,y,21043,NA,NA,2188,20058,NA,NA,NA,"grown, picked, peeled, bitten, baked, sauced",1
M20278829AES,m7vllk56nx,Affordance Norms_MSU_TEX,1,20,2023-01-21T18:43:25+00:00,9.919865847,56,updated stim.csv,Version56.csv,Version 56,List 56,beetle,NA,1657,5.166666667,194,0.449191658,1658,BOI,-,-,Please name all of the ways you could use this object. Keep in mind that one object can have many uses. Separate your responses with a comma.,NA,y,9707,NA,NA,4895,7963,NA,NA,NA,"bug, squashed",1
M20278829AES,m7vllk56nx,Affordance Norms_MSU_TEX,1,21,2023-01-21T18:43:30+00:00,4.644454002,56,updated stim.csv,Version56.csv,Version 56,List 56,spectroscope,NA,1661,4.9,2467,0.753909143,1662,BOI,-,-,Please name all of the ways you could use this object. Keep in mind that one object can have many uses. Separate your responses with a comma.,NA,y,4458,NA,NA,2832,3733,NA,NA,NA,looking,1
M20278829AES,m7vllk56nx,Affordance Norms_MSU_TEX,1,22,2023-01-21T18:43:46+00:00,16.00514317,56,updated stim.csv,Version56.csv,Version 56,List 56,pendant,NA,1674,5.791666667,1914,0.664870126,1675,BOI,-,-,Please name all of the ways you could use this object. Keep in mind that one object can have many uses. Separate your responses with a comma.,NA,y,15807,NA,NA,2973,14540,NA,NA,NA,"necklace, close to heart, sentimental",1
M20278829AES,m7vllk56nx,Affordance Norms_MSU_TEX,1,23,2023-01-21T18:44:11+00:00,25.26633,56,updated stim.csv,Version56.csv,Version 56,List 56,matchbox,NA,1656,5.875,1621,0.348925136,1657,BOI,-,-,Please name all of the ways you could use this object. Keep in mind that one object can have many uses. Separate your responses with a comma.,NA,y,25038,NA,NA,10197,21426,NA,NA,NA,"holds matches, can cause fire",1
M20278829AES,m7vllk56nx,Affordance Norms_MSU_TEX,1,24,2023-01-21T18:44:41+00:00,30.11526585,56,updated stim.csv,Version56.csv,Version 56,List 56,ointment,NA,1658,5.869565217,1804,0.822485525,1659,BOI,-,-,Please name all of the ways you could use this object. Keep in mind that one object can have many uses. Separate your responses with a comma.,NA,y,29886,NA,NA,4114,28790,NA,NA,NA,"dry skin, soothing aches, soothing itch, medicated ",1
M20278829AES,m7vllk56nx,Affordance Norms_MSU_TEX,1,25,2023-01-21T18:45:02+00:00,20.57677412,56,updated stim.csv,Version56.csv,Version 56,List 56,escalator,NA,1668,5.52,920,0.992430852,1669,BOI,-,-,Please name all of the ways you could use this object. Keep in mind that one object can have many uses. Separate your responses with a comma.,NA,y,20281,NA,NA,6373,19281,NA,NA,NA,"upstairs, downstairs, no steps",1
M20278829AES,m7vllk56nx,Affordance Norms_MSU_TEX,1,26,2023-01-21T18:46:14+00:00,72.1799159,56,updated stim.csv,Version56.csv,Version 56,List 56,woods,NA,1653,4.409090909,2963,0.490218442,1654,BOI,-,-,Please name all of the ways you could use this object. Keep in mind that one object can have many uses. Separate your responses with a comma.,NA,y,71784,NA,NA,2702,69358,NA,NA,NA,"trees, Greenbriar's, hunting, furniture, walls, cabinets, pencils, paper",1
M20278829AES,m7vllk56nx,Affordance Norms_MSU_TEX,1,27,2023-01-21T18:47:18+00:00,63.83863997,56,updated stim.csv,Version56.csv,Version 56,List 56,husky,NA,1659,4.892857143,1340,0.948119147,1660,BOI,-,-,Please name all of the ways you could use this object. Keep in mind that one object can have many uses. Separate your responses with a comma.,NA,y,63549,NA,NA,8516,60873,NA,NA,NA,"Alaska, Canada, Snow, Sledding, transport",1
M20278829AES,m7vllk56nx,Affordance Norms_MSU_TEX,1,28,2023-01-21T18:47:57+00:00,38.81350517,56,updated stim.csv,Version56.csv,Version 56,List 56,carp,NA,1660,4.52173913,435,0.027686914,1661,BOI,-,-,Please name all of the ways you could use this object. Keep in mind that one object can have many uses. Separate your responses with a comma.,NA,y,38588,NA,NA,3086,9781,NA,NA,NA," food, bait",1
M20278829AES,m7vllk56nx,Affordance Norms_MSU_TEX,1,29,2023-01-21T18:48:07+00:00,9.943492889,56,updated stim.csv,Version56.csv,Version 56,List 56,minnow,NA,1655,4.416666667,1665,0.837441305,1656,BOI,-,-,Please name all of the ways you could use this object. Keep in mind that one object can have many uses. Separate your responses with a comma.,NA,y,9716,NA,NA,3854,8869,NA,NA,NA,bait for fishing,1
M20278829AES,m7vllk56nx,Affordance Norms_MSU_TEX,1,30,2023-01-21T18:48:42+00:00,35.65988612,56,updated stim.csv,Version56.csv,Version 56,List 56,sirloin,NA,1665,5.32,2386,0.561610657,1666,BOI,-,-,Please name all of the ways you could use this object. Keep in mind that one object can have many uses. Separate your responses with a comma.,NA,y,35430,NA,NA,8707,34549,NA,NA,NA,"Grilled, baked, cow, ",1
M20278829AES,m7vllk56nx,Affordance Norms_MSU_TEX,1,31,2023-01-21T18:49:33+00:00,50.9056108,56,updated stim.csv,Version56.csv,Version 56,List 56,hanger,NA,1651,5.291666667,1245,0.935113828,1652,BOI,-,-,Please name all of the ways you could use this object. Keep in mind that one object can have many uses. Separate your responses with a comma.,NA,y,50677,NA,NA,1918,15092,NA,NA,NA,clothes,1
M20278829AES,m7vllk56nx,Affordance Norms_MSU_TEX,1,32,2023-01-21T18:50:11+00:00,38.28078318,56,updated stim.csv,Version56.csv,Version 56,List 56,fauna,NA,1676,5,953,0.47610094,1677,BOI,-,-,Please name all of the ways you could use this object. Keep in mind that one object can have many uses. Separate your responses with a comma.,NA,y,38065,NA,NA,31099,36976,NA,NA,NA,"animals, bacteria, studies",1
M20278829AES,m7vllk56nx,Affordance Norms_MSU_TEX,1,33,2023-01-21T18:50:29+00:00,17.32656789,56,updated stim.csv,Version56.csv,Version 56,List 56,dust,NA,1664,4.827586207,868,0.814335177,1665,BOI,-,-,Please name all of the ways you could use this object. Keep in mind that one object can have many uses. Separate your responses with a comma.,NA,y,17126,NA,NA,2736,13859,NA,NA,NA,allergies,1
M20278829AES,m7vllk56nx,Affordance Norms_MSU_TEX,1,34,2023-01-21T18:50:35+00:00,6.059657097,56,updated stim.csv,Version56.csv,Version 56,List 56,deliveryman,NA,1671,4.44,770,0.204483253,1672,BOI,-,-,Please name all of the ways you could use this object. Keep in mind that one object can have many uses. Separate your responses with a comma.,NA,y,5846,NA,NA,3389,5125,NA,NA,NA,transport,1
M20278829AES,m7vllk56nx,Affordance Norms_MSU_TEX,1,35,2023-01-21T18:50:54+00:00,18.86823797,56,updated stim.csv,Version56.csv,Version 56,List 56,tranquilizer,NA,1670,4.56,2760,0.94224517,1671,BOI,-,-,Please name all of the ways you could use this object. Keep in mind that one object can have many uses. Separate your responses with a comma.,NA,y,18642,NA,NA,2663,17740,NA,NA,NA,putting something to sleep or killing,1
M20278829AES,m7vllk56nx,Affordance Norms_MSU_TEX,1,36,2023-01-21T18:51:27+00:00,33.53211689,56,updated stim.csv,Version56.csv,Version 56,List 56,jewel,NA,1663,5.44,1384,0.915429444,1664,BOI,-,-,Please name all of the ways you could use this object. Keep in mind that one object can have many uses. Separate your responses with a comma.,NA,y,33313,NA,NA,4962,32741,NA,NA,NA,"hard rock like stone used in necklaces, bracelets, earrings, rings, clothing",1
M20278829AES,m7vllk56nx,Affordance Norms_MSU_TEX,1,37,2023-01-21T18:52:44+00:00,77.06720304,56,updated stim.csv,Version56.csv,Version 56,List 56,buttocks,NA,1679,6.434782609,380,0.112196707,1680,BOI,-,-,Please name all of the ways you could use this object. Keep in mind that one object can have many uses. Separate your responses with a comma.,NA,y,76723,NA,NA,22943,65145,NA,NA,NA,"dispose of feces, and gas, sitting",1
M20278829AES,m7vllk56nx,Affordance Norms_MSU_TEX,1,38,2023-01-21T18:53:02+00:00,17.50216913,56,updated stim.csv,Version56.csv,Version 56,List 56,cousin,NA,1675,5.375,669,0.902543183,1676,BOI,-,-,Please name all of the ways you could use this object. Keep in mind that one object can have many uses. Separate your responses with a comma.,NA,y,17229,NA,NA,3013,16310,NA,NA,NA,"friend, playmate, family ",1
M20278829AES,m7vllk56nx,Affordance Norms_MSU_TEX,1,39,2023-01-21T18:53:42+00:00,40.56251502,56,updated stim.csv,Version56.csv,Version 56,List 56,pocketbook,NA,1680,5.884615385,2014,0.033598567,1681,BOI,-,-,Please name all of the ways you could use this object. Keep in mind that one object can have many uses. Separate your responses with a comma.,NA,y,40283,NA,NA,2821,34887,NA,NA,NA,"holds money, information, receipts, drivers ID ",1
M20278829AES,m7vllk56nx,Affordance Norms_MSU_TEX,1,40,2023-01-21T18:53:55+00:00,12.69254589,56,updated stim.csv,Version56.csv,Version 56,List 56,bookcase,NA,1654,5.56,272,0.257722759,1655,BOI,-,-,Please name all of the ways you could use this object. Keep in mind that one object can have many uses. Separate your responses with a comma.,NA,y,12489,NA,NA,2063,10029,NA,NA,NA,"Holds books, photo albums",1
M20282761CT,a0m5fbyvxy,Affordance Norms_MSU_TEX,1,11,2023-02-20T09:28:24+00:00,27.04924297,83,updated stim.csv,Version83.csv,Version 83,List 83,window,NA,2465,5.68,2942,0.261751152,2466,BOI,-,-,Please name all of the ways you could use this object. Keep in mind that one object can have many uses. Separate your responses with a comma.,NA,y,26806,NA,NA,9921,18334,NA,NA,NA,"view, block,",1
M20282761CT,a0m5fbyvxy,Affordance Norms_MSU_TEX,1,12,2023-02-20T09:28:40+00:00,16.3834331,83,updated stim.csv,Version83.csv,Version 83,List 83,syringe,NA,2489,5.535714286,2612,0.879060654,2490,BOI,-,-,Please name all of the ways you could use this object. Keep in mind that one object can have many uses. Separate your responses with a comma.,NA,y,16074,NA,NA,2261,13161,NA,NA,NA,"inject,draw",1
M20282761CT,a0m5fbyvxy,Affordance Norms_MSU_TEX,1,13,2023-02-20T09:28:55+00:00,14.54241109,83,updated stim.csv,Version83.csv,Version 83,List 83,smooch,NA,2480,4.32,2422,0.467075011,2481,BOI,-,-,Please name all of the ways you could use this object. Keep in mind that one object can have many uses. Separate your responses with a comma.,NA,y,14120,NA,NA,4734,8873,NA,NA,NA,show affection,1
M20282761CT,a0m5fbyvxy,Affordance Norms_MSU_TEX,1,14,2023-02-20T09:29:11+00:00,16.66704297,83,updated stim.csv,Version83.csv,Version 83,List 83,greenback,NA,2467,4.904761905,1169,0.876784347,2468,BOI,-,-,Please name all of the ways you could use this object. Keep in mind that one object can have many uses. Separate your responses with a comma.,NA,y,16325,NA,NA,14000,14240,NA,NA,NA,idk,1
M20282761CT,a0m5fbyvxy,Affordance Norms_MSU_TEX,1,15,2023-02-20T09:29:35+00:00,23.98466992,83,updated stim.csv,Version83.csv,Version 83,List 83,asshole,NA,2474,4.5,90,0.423065818,2475,BOI,-,-,Please name all of the ways you could use this object. Keep in mind that one object can have many uses. Separate your responses with a comma.,NA,y,23558,NA,NA,6507,18954,NA,NA,NA,"jerk, butthole",1
M20282761CT,a0m5fbyvxy,Affordance Norms_MSU_TEX,1,16,2023-02-20T09:30:00+00:00,24.98525,83,updated stim.csv,Version83.csv,Version 83,List 83,prune,NA,2483,5.074074074,2083,0.178062808,2484,BOI,-,-,Please name all of the ways you could use this object. Keep in mind that one object can have many uses. Separate your responses with a comma.,NA,y,24689,NA,NA,3612,23392,NA,NA,NA,"eat, juice, dry, peel, slice",1
M20282761CT,a0m5fbyvxy,Affordance Norms_MSU_TEX,1,17,2023-02-20T09:30:09+00:00,8.909124136,83,updated stim.csv,Version83.csv,Version 83,List 83,sandwich,NA,2463,6.333333333,2238,0.934753006,2464,BOI,-,-,Please name all of the ways you could use this object. Keep in mind that one object can have many uses. Separate your responses with a comma.,NA,y,8597,NA,NA,7483,7874,NA,NA,NA,eat,1
M20282761CT,a0m5fbyvxy,Affordance Norms_MSU_TEX,1,18,2023-02-20T09:30:18+00:00,8.952523947,83,updated stim.csv,Version83.csv,Version 83,List 83,juror,NA,2479,4.782608696,1398,0.986222376,2480,BOI,-,-,Please name all of the ways you could use this object. Keep in mind that one object can have many uses. Separate your responses with a comma.,NA,y,8391,NA,NA,5993,6902,NA,NA,NA,decide,1
M20282761CT,a0m5fbyvxy,Affordance Norms_MSU_TEX,1,19,2023-02-20T09:30:28+00:00,9.473642826,83,updated stim.csv,Version83.csv,Version 83,List 83,curd,NA,2470,4.875,729,0.353815,2471,BOI,-,-,Please name all of the ways you could use this object. Keep in mind that one object can have many uses. Separate your responses with a comma.,NA,y,8955,NA,NA,7997,8790,NA,NA,NA,cheese,1
M20282761CT,a0m5fbyvxy,Affordance Norms_MSU_TEX,1,20,2023-02-20T09:31:02+00:00,34.52279115,83,updated stim.csv,Version83.csv,Version 83,List 83,hickory,NA,2472,4.357142857,1286,0.382292447,2473,BOI,-,-,Please name all of the ways you could use this object. Keep in mind that one object can have many uses. Separate your responses with a comma.,NA,y,34194,NA,NA,3878,30127,NA,NA,NA,"handle, oar, utensil",0.994
M20282761CT,a0m5fbyvxy,Affordance Norms_MSU_TEX,1,21,2023-02-20T09:31:09+00:00,6.641862869,83,updated stim.csv,Version83.csv,Version 83,List 83,floss,NA,2481,5.166666667,1012,0.408908776,2482,BOI,-,-,Please name all of the ways you could use this object. Keep in mind that one object can have many uses. Separate your responses with a comma.,NA,y,6331,NA,NA,3242,3809,NA,NA,NA,clean,1
M20282761CT,a0m5fbyvxy,Affordance Norms_MSU_TEX,1,22,2023-02-20T09:31:20+00:00,11.37183213,83,updated stim.csv,Version83.csv,Version 83,List 83,submarine,NA,2477,4.826086957,2575,0.070245773,2478,BOI,-,-,Please name all of the ways you could use this object. Keep in mind that one object can have many uses. Separate your responses with a comma.,NA,y,11036,NA,NA,5421,8093,NA,NA,NA,dive,1
M20282761CT,a0m5fbyvxy,Affordance Norms_MSU_TEX,1,23,2023-02-20T09:31:34+00:00,13.62319493,83,updated stim.csv,Version83.csv,Version 83,List 83,sandpaper,NA,2487,5.913043478,2237,0.374386596,2488,BOI,-,-,Please name all of the ways you could use this object. Keep in mind that one object can have many uses. Separate your responses with a comma.,NA,y,13289,NA,NA,6113,10560,NA,NA,NA,erase ,0.966
M20282761CT,a0m5fbyvxy,Affordance Norms_MSU_TEX,1,24,2023-02-20T09:31:39+00:00,5.421802044,83,updated stim.csv,Version83.csv,Version 83,List 83,dachshund,NA,2461,5.125,743,0.091047338,2462,BOI,-,-,Please name all of the ways you could use this object. Keep in mind that one object can have many uses. Separate your responses with a comma.,NA,y,5093,NA,NA,2979,3214,NA,NA,NA,pet,1
M20282761CT,a0m5fbyvxy,Affordance Norms_MSU_TEX,1,25,2023-02-20T09:31:43+00:00,4.090528011,83,updated stim.csv,Version83.csv,Version 83,List 83,kebab,NA,2468,5.916666667,1402,0.726814942,2469,BOI,-,-,Please name all of the ways you could use this object. Keep in mind that one object can have many uses. Separate your responses with a comma.,NA,y,3820,NA,NA,1510,1950,NA,NA,NA,eat,1
M20282761CT,a0m5fbyvxy,Affordance Norms_MSU_TEX,1,26,2023-02-20T09:31:49+00:00,5.226682901,83,updated stim.csv,Version83.csv,Version 83,List 83,nightgown,NA,2466,5.92,1770,0.910602856,2467,BOI,-,-,Please name all of the ways you could use this object. Keep in mind that one object can have many uses. Separate your responses with a comma.,NA,y,4871,NA,NA,2021,3869,NA,NA,NA,sleep,1
M20282761CT,a0m5fbyvxy,Affordance Norms_MSU_TEX,1,27,2023-02-20T09:31:56+00:00,7.576457977,83,updated stim.csv,Version83.csv,Version 83,List 83,homework,NA,2488,5.32,1301,0.932101775,2489,BOI,-,-,Please name all of the ways you could use this object. Keep in mind that one object can have many uses. Separate your responses with a comma.,NA,y,7305,NA,NA,4925,5931,NA,NA,NA,learn,1
M20282761CT,a0m5fbyvxy,Affordance Norms_MSU_TEX,1,28,2023-02-20T09:32:15+00:00,18.7476511,83,updated stim.csv,Version83.csv,Version 83,List 83,thermos,NA,2464,5.518518519,2677,0.908657891,2465,BOI,-,-,Please name all of the ways you could use this object. Keep in mind that one object can have many uses. Separate your responses with a comma.,NA,y,18282,NA,NA,8566,13427,NA,NA,NA,keep temperature,1
M20282761CT,a0m5fbyvxy,Affordance Norms_MSU_TEX,1,29,2023-02-20T09:32:24+00:00,8.491945028,83,updated stim.csv,Version83.csv,Version 83,List 83,kin,NA,2471,4.47826087,1419,0.4340372,2472,BOI,-,-,Please name all of the ways you could use this object. Keep in mind that one object can have many uses. Separate your responses with a comma.,NA,y,8035,NA,NA,-1,-1,NA,NA,NA,,1
M20282761CT,a0m5fbyvxy,Affordance Norms_MSU_TEX,1,30,2023-02-20T09:32:28+00:00,4.513939857,83,updated stim.csv,Version83.csv,Version 83,List 83,grill,NA,2482,5.72,1176,0.714189519,2483,BOI,-,-,Please name all of the ways you could use this object. Keep in mind that one object can have many uses. Separate your responses with a comma.,NA,y,4149,NA,NA,1783,2314,NA,NA,NA,cook,1
M20282761CT,a0m5fbyvxy,Affordance Norms_MSU_TEX,1,31,2023-02-20T09:32:45+00:00,17.30487013,83,updated stim.csv,Version83.csv,Version 83,List 83,nylon,NA,2486,4.928571429,1794,0.452621743,2487,BOI,-,-,Please name all of the ways you could use this object. Keep in mind that one object can have many uses. Separate your responses with a comma.,NA,y,17012,NA,NA,4110,15704,NA,NA,NA,"string, fabric",1
M20282761CT,a0m5fbyvxy,Affordance Norms_MSU_TEX,1,32,2023-02-20T09:32:50+00:00,4.804220915,83,updated stim.csv,Version83.csv,Version 83,List 83,pitchfork,NA,2490,5.681818182,1981,0.189208838,2491,BOI,-,-,Please name all of the ways you could use this object. Keep in mind that one object can have many uses. Separate your responses with a comma.,NA,y,4404,NA,NA,2452,2658,NA,NA,NA,hay,1
M20282761CT,a0m5fbyvxy,Affordance Norms_MSU_TEX,1,33,2023-02-20T09:32:54+00:00,3.785261154,83,updated stim.csv,Version83.csv,Version 83,List 83,meal,NA,2462,5.958333333,1632,0.954871342,2463,BOI,-,-,Please name all of the ways you could use this object. Keep in mind that one object can have many uses. Separate your responses with a comma.,NA,y,3339,NA,NA,1648,1945,NA,NA,NA,eat,1
M20282761CT,a0m5fbyvxy,Affordance Norms_MSU_TEX,1,34,2023-02-20T09:33:09+00:00,15.20415401,83,updated stim.csv,Version83.csv,Version 83,List 83,mountain,NA,2475,4.307692308,1699,0.218032509,2476,BOI,-,-,Please name all of the ways you could use this object. Keep in mind that one object can have many uses. Separate your responses with a comma.,NA,y,14926,NA,NA,12646,13487,NA,NA,NA,hiking,1
M20282761CT,a0m5fbyvxy,Affordance Norms_MSU_TEX,1,35,2023-02-20T09:33:13+00:00,3.923827887,83,updated stim.csv,Version83.csv,Version 83,List 83,lawn,NA,2484,5.695652174,1474,0.325629192,2485,BOI,-,-,Please name all of the ways you could use this object. Keep in mind that one object can have many uses. Separate your responses with a comma.,NA,y,3442,NA,NA,1486,1850,NA,NA,NA,mow,1
M20282761CT,a0m5fbyvxy,Affordance Norms_MSU_TEX,1,36,2023-02-20T09:33:22+00:00,9.05005002,83,updated stim.csv,Version83.csv,Version 83,List 83,publisher,NA,2469,4.44,2086,0.394936257,2470,BOI,-,-,Please name all of the ways you could use this object. Keep in mind that one object can have many uses. Separate your responses with a comma.,NA,y,8834,NA,NA,5038,6449,NA,NA,NA,produce,1
M20282761CT,a0m5fbyvxy,Affordance Norms_MSU_TEX,1,37,2023-02-20T09:33:34+00:00,11.66563797,83,updated stim.csv,Version83.csv,Version 83,List 83,roosters,NA,2485,4.6,2190,0.895074311,2486,BOI,-,-,Please name all of the ways you could use this object. Keep in mind that one object can have many uses. Separate your responses with a comma.,NA,y,11387,NA,NA,8098,9049,NA,NA,NA,defend,1
M20282761CT,a0m5fbyvxy,Affordance Norms_MSU_TEX,1,38,2023-02-20T09:33:41+00:00,7.57425499,83,updated stim.csv,Version83.csv,Version 83,List 83,paint,NA,2473,5.090909091,1847,0.094558685,2474,BOI,-,-,Please name all of the ways you could use this object. Keep in mind that one object can have many uses. Separate your responses with a comma.,NA,y,7251,NA,NA,4854,5766,NA,NA,NA,renew,1
M20282761CT,a0m5fbyvxy,Affordance Norms_MSU_TEX,1,39,2023-02-20T09:33:48+00:00,6.347764015,83,updated stim.csv,Version83.csv,Version 83,List 83,gardenia,NA,2478,4.476190476,1078,0.541165796,2479,BOI,-,-,Please name all of the ways you could use this object. Keep in mind that one object can have many uses. Separate your responses with a comma.,NA,y,6060,NA,NA,5157,5372,NA,NA,NA,idk,1
M20282761CT,a0m5fbyvxy,Affordance Norms_MSU_TEX,1,40,2023-02-20T09:33:57+00:00,9.728637934,83,updated stim.csv,Version83.csv,Version 83,List 83,tourist,NA,2476,5,2744,0.891249972,2477,BOI,-,-,Please name all of the ways you could use this object. Keep in mind that one object can have many uses. Separate your responses with a comma.,NA,y,9364,NA,NA,4384,8174,NA,NA,NA,look,1
M20286116Je,8ekjh5d218,Affordance Norms_MSU_TEX,1,11,2023-02-20T04:15:50+00:00,32.18866801,82,updated stim.csv,Version82.csv,Version 82,List 82,burglar,NA,2447,4.260869565,366,0.636597323,2448,BOI,-,-,Please name all of the ways you could use this object. Keep in mind that one object can have many uses. Separate your responses with a comma.,NA,y,31983,NA,NA,18690,27564,NA,NA,NA,"robber, thief",0.769
M20286116Je,8ekjh5d218,Affordance Norms_MSU_TEX,1,12,2023-02-20T04:17:58+00:00,128.0416219,82,updated stim.csv,Version82.csv,Version 82,List 82,teakwood,NA,2436,5.136363636,2647,0.381547921,2437,BOI,-,-,Please name all of the ways you could use this object. Keep in mind that one object can have many uses. Separate your responses with a comma.,NA,y,127849,NA,NA,104621,125332,NA,NA,NA,used for furniture ,0.74
M20286116Je,8ekjh5d218,Affordance Norms_MSU_TEX,1,13,2023-02-20T04:19:11+00:00,72.63261414,82,updated stim.csv,Version82.csv,Version 82,List 82,dumpling,NA,2449,4.826086957,867,0.576231689,2450,BOI,-,-,Please name all of the ways you could use this object. Keep in mind that one object can have many uses. Separate your responses with a comma.,NA,y,72428,NA,NA,1847,68276,NA,NA,NA,"Asian food, fried or steamed, rice paper with meat inside, ",0.98
M20286116Je,8ekjh5d218,Affordance Norms_MSU_TEX,1,14,2023-02-20T04:22:36+00:00,205.2026968,82,updated stim.csv,Version82.csv,Version 82,List 82,sidecar,NA,2434,4.347826087,2376,0.56786032,2435,BOI,-,-,Please name all of the ways you could use this object. Keep in mind that one object can have many uses. Separate your responses with a comma.,NA,y,204990,NA,NA,44891,195924,NA,NA,NA,"a small side of a motorcycle for carrying passengers, ",0.783
M20286116Je,8ekjh5d218,Affordance Norms_MSU_TEX,1,15,2023-02-20T04:25:09+00:00,152.640502,82,updated stim.csv,Version82.csv,Version 82,List 82,corduroy,NA,2446,5.041666667,641,0.863483233,2447,BOI,-,-,Please name all of the ways you could use this object. Keep in mind that one object can have many uses. Separate your responses with a comma.,NA,y,152425,NA,NA,141907,150877,NA,NA,NA,"make clothing, pants",0.508
M20286116Je,8ekjh5d218,Affordance Norms_MSU_TEX,1,16,2023-02-20T04:27:03+00:00,114.0606072,82,updated stim.csv,Version82.csv,Version 82,List 82,soda,NA,2450,6.47826087,2442,0.228811069,2451,BOI,-,-,Please name all of the ways you could use this object. Keep in mind that one object can have many uses. Separate your responses with a comma.,NA,y,113845,NA,NA,2141,19605,NA,NA,NA,"drink, make alcohol drinks, ",1
M20286116Je,8ekjh5d218,Affordance Norms_MSU_TEX,1,17,2023-02-20T04:30:40+00:00,217.089658,82,updated stim.csv,Version82.csv,Version 82,List 82,buffet,NA,2451,5.409090909,346,0.793112316,2452,BOI,-,-,Please name all of the ways you could use this object. Keep in mind that one object can have many uses. Separate your responses with a comma.,NA,y,216881,NA,NA,3653,23912,NA,NA,NA,"Eat, variety of food, for people, ",0.824
M20286116Je,8ekjh5d218,Affordance Norms_MSU_TEX,1,18,2023-02-20T04:31:23+00:00,42.96093297,82,updated stim.csv,Version82.csv,Version 82,List 82,eclair,NA,2435,6.166666667,886,0.376305071,2436,BOI,-,-,Please name all of the ways you could use this object. Keep in mind that one object can have many uses. Separate your responses with a comma.,NA,y,42759,NA,NA,3463,41673,NA,NA,NA,"desert, chocolate on top of the dough with vanilla jell inside of it",0.915
M20286116Je,8ekjh5d218,Affordance Norms_MSU_TEX,1,19,2023-02-20T04:31:46+00:00,23.05340981,82,updated stim.csv,Version82.csv,Version 82,List 82,arrowhead,NA,2457,4.44,77,0.878580468,2458,BOI,-,-,Please name all of the ways you could use this object. Keep in mind that one object can have many uses. Separate your responses with a comma.,NA,y,22845,NA,NA,1906,19090,NA,NA,NA,"a name of a company, ",1
M20286116Je,8ekjh5d218,Affordance Norms_MSU_TEX,1,20,2023-02-20T04:34:49+00:00,183.1103132,82,updated stim.csv,Version82.csv,Version 82,List 82,petroleum,NA,2438,4.333333333,1934,0.18972014,2439,BOI,-,-,Please name all of the ways you could use this object. Keep in mind that one object can have many uses. Separate your responses with a comma.,NA,y,182911,NA,NA,56989,59911,NA,NA,NA,"fossil fuel, ",0.253
M20286116Je,8ekjh5d218,Affordance Norms_MSU_TEX,1,21,2023-02-20T04:35:08+00:00,19.45134997,82,updated stim.csv,Version82.csv,Version 82,List 82,doorframe,NA,2455,5.086956522,823,0.680509669,2456,BOI,-,-,Please name all of the ways you could use this object. Keep in mind that one object can have many uses. Separate your responses with a comma.,NA,y,19245,NA,NA,2502,16568,NA,NA,NA,for the door to make design ,1
M20286116Je,8ekjh5d218,Affordance Norms_MSU_TEX,1,22,2023-02-20T04:36:18+00:00,69.23600888,82,updated stim.csv,Version82.csv,Version 82,List 82,mattress,NA,2453,6.72,1626,0.986617127,2454,BOI,-,-,Please name all of the ways you could use this object. Keep in mind that one object can have many uses. Separate your responses with a comma.,NA,y,69034,NA,NA,3073,64999,NA,NA,NA,"people can sleep on it and clean it, cover it, ",1
M20286116Je,8ekjh5d218,Affordance Norms_MSU_TEX,1,23,2023-02-20T04:36:52+00:00,34.37556314,82,updated stim.csv,Version82.csv,Version 82,List 82,tablet,NA,2448,6.517241379,2619,0.393271427,2449,BOI,-,-,Please name all of the ways you could use this object. Keep in mind that one object can have many uses. Separate your responses with a comma.,NA,y,34179,NA,NA,5418,31710,NA,NA,NA,"can be used as a medicine, can be an electronic to play on or read on ",1
M20286116Je,8ekjh5d218,Affordance Norms_MSU_TEX,1,24,2023-02-20T04:44:03+00:00,431.0522499,82,updated stim.csv,Version82.csv,Version 82,List 82,cartridge,NA,2444,5.12,444,0.218092929,2445,BOI,-,-,Please name all of the ways you could use this object. Keep in mind that one object can have many uses. Separate your responses with a comma.,NA,y,430848,NA,NA,237218,281803,NA,NA,NA,"can be used for a bullet in guns, ",0.416
M20286116Je,8ekjh5d218,Affordance Norms_MSU_TEX,1,25,2023-02-20T04:46:21+00:00,137.596334,82,updated stim.csv,Version82.csv,Version 82,List 82,card,NA,2437,5.56,430,0.002227114,2438,BOI,-,-,Please name all of the ways you could use this object. Keep in mind that one object can have many uses. Separate your responses with a comma.,NA,y,137287,NA,NA,1858,135653,NA,NA,NA,"used to pay for things, or to use for identifying yourself",0.996
M20286116Je,8ekjh5d218,Affordance Norms_MSU_TEX,1,26,2023-02-20T04:48:02+00:00,101.8492591,82,updated stim.csv,Version82.csv,Version 82,List 82,blender,NA,2442,5.739130435,236,0.878994835,2443,BOI,-,-,Please name all of the ways you could use this object. Keep in mind that one object can have many uses. Separate your responses with a comma.,NA,y,101604,NA,NA,2043,98848,NA,NA,NA,"to mix vegetables, can make a drink with it or make sauce, makes things liquid",1
M20286116Je,8ekjh5d218,Affordance Norms_MSU_TEX,1,27,2023-02-20T04:49:27+00:00,84.09957886,82,updated stim.csv,Version82.csv,Version 82,List 82,peppermint,NA,2452,5.391304348,1923,0.275923071,2453,BOI,-,-,Please name all of the ways you could use this object. Keep in mind that one object can have many uses. Separate your responses with a comma.,NA,y,83778,NA,NA,1979,83266,NA,NA,NA,"can be an essential oil for diffuser, can be eaten if it is in candy or edible",0.869
M20286116Je,8ekjh5d218,Affordance Norms_MSU_TEX,1,28,2023-02-20T04:50:42+00:00,75.1227901,82,updated stim.csv,Version82.csv,Version 82,List 82,oven,NA,2445,5.923076923,1831,0.613415562,2446,BOI,-,-,Please name all of the ways you could use this object. Keep in mind that one object can have many uses. Separate your responses with a comma.,NA,y,74841,NA,NA,2167,51702,NA,NA,NA,"put things in there to bake, cooks food, ",1
M20286116Je,8ekjh5d218,Affordance Norms_MSU_TEX,1,29,2023-02-20T04:51:09+00:00,27.077631,82,updated stim.csv,Version82.csv,Version 82,List 82,announcer,NA,2439,4.296296296,44,0.293508408,2440,BOI,-,-,Please name all of the ways you could use this object. Keep in mind that one object can have many uses. Separate your responses with a comma.,NA,y,26737,NA,NA,2232,20331,NA,NA,NA,"can be used to announce things in public, ",1
M20286116Je,8ekjh5d218,Affordance Norms_MSU_TEX,1,30,2023-02-20T04:52:40+00:00,90.96497893,82,updated stim.csv,Version82.csv,Version 82,List 82,socket,NA,2458,5.24,2440,0.765868539,2459,BOI,-,-,Please name all of the ways you could use this object. Keep in mind that one object can have many uses. Separate your responses with a comma.,NA,y,90695,NA,NA,24626,90266,NA,NA,NA,can be used for traditional operations for computers,0.833
M20286116Je,8ekjh5d218,Affordance Norms_MSU_TEX,1,31,2023-02-20T04:53:13+00:00,33.42487907,82,updated stim.csv,Version82.csv,Version 82,List 82,shrine,NA,2443,4.555555556,2367,0.930741572,2444,BOI,-,-,Please name all of the ways you could use this object. Keep in mind that one object can have many uses. Separate your responses with a comma.,NA,y,33168,NA,NA,15560,31043,NA,NA,NA,pay tribute to the selected deity,0.825
M20286116Je,8ekjh5d218,Affordance Norms_MSU_TEX,1,32,2023-02-20T04:54:00+00:00,47.22968292,82,updated stim.csv,Version82.csv,Version 82,List 82,candlestick,NA,2441,6,411,0.314982696,2442,BOI,-,-,Please name all of the ways you could use this object. Keep in mind that one object can have many uses. Separate your responses with a comma.,NA,y,46917,NA,NA,10420,45967,NA,NA,NA,"can make things bright in the room, traditional decorations",0.972
M20286116Je,8ekjh5d218,Affordance Norms_MSU_TEX,1,33,2023-02-20T04:54:25+00:00,24.16071105,82,updated stim.csv,Version82.csv,Version 82,List 82,Crab,NA,2432,4.889189189,674,0.893830777,2433,BOI,-,-,Please name all of the ways you could use this object. Keep in mind that one object can have many uses. Separate your responses with a comma.,NA,y,23897,NA,NA,2624,19796,NA,NA,NA,"can eat it, ",1
M20286116Je,8ekjh5d218,Affordance Norms_MSU_TEX,1,34,2023-02-20T04:54:33+00:00,8.458119869,82,updated stim.csv,Version82.csv,Version 82,List 82,slingshot,NA,2433,5.4,2414,0.097911449,2434,BOI,-,-,Please name all of the ways you could use this object. Keep in mind that one object can have many uses. Separate your responses with a comma.,NA,y,8161,NA,NA,1931,6768,NA,NA,NA,can be used as a weapon ,1
M20286116Je,8ekjh5d218,Affordance Norms_MSU_TEX,1,35,2023-02-20T04:55:26+00:00,52.98302913,82,updated stim.csv,Version82.csv,Version 82,List 82,punter,NA,2454,4.464285714,2100,0.817623298,2455,BOI,-,-,Please name all of the ways you could use this object. Keep in mind that one object can have many uses. Separate your responses with a comma.,NA,y,51565,NA,NA,36579,50007,NA,NA,NA,can be part of a big event,0.734
M20286116Je,8ekjh5d218,Affordance Norms_MSU_TEX,1,36,2023-02-20T04:56:31+00:00,64.67046499,82,updated stim.csv,Version82.csv,Version 82,List 82,classmate,NA,2460,5.363636364,549,0.902201284,2461,BOI,-,-,Please name all of the ways you could use this object. Keep in mind that one object can have many uses. Separate your responses with a comma.,NA,y,64360,NA,NA,1890,63765,NA,NA,NA,"can ask for help, is a teachers student, can do classwork, can learn",0.827
M20286116Je,8ekjh5d218,Affordance Norms_MSU_TEX,1,37,2023-02-20T04:57:58+00:00,87.03458905,82,updated stim.csv,Version82.csv,Version 82,List 82,saxophone,NA,2456,6.222222222,2257,0.438334646,2457,BOI,-,-,Please name all of the ways you could use this object. Keep in mind that one object can have many uses. Separate your responses with a comma.,NA,y,86661,NA,NA,2194,18791,NA,NA,NA,"make music, used in a band, ",1
M20286116Je,8ekjh5d218,Affordance Norms_MSU_TEX,1,38,2023-02-20T04:58:22+00:00,24.62319303,82,updated stim.csv,Version82.csv,Version 82,List 82,net,NA,2459,5.208333333,1751,0.421115039,2460,BOI,-,-,Please name all of the ways you could use this object. Keep in mind that one object can have many uses. Separate your responses with a comma.,NA,y,24271,NA,NA,3202,19094,NA,NA,NA,"can catch animals or amphibians, ",1
M20286116Je,8ekjh5d218,Affordance Norms_MSU_TEX,1,39,2023-02-20T04:59:20+00:00,57.3938899,82,updated stim.csv,Version82.csv,Version 82,List 82,backboard,NA,2431,4.565217391,112,0.288232898,2432,BOI,-,-,Please name all of the ways you could use this object. Keep in mind that one object can have many uses. Separate your responses with a comma.,NA,y,57098,NA,NA,15776,21591,NA,NA,NA,"used in basketball, ",0.552
M20286116Je,8ekjh5d218,Affordance Norms_MSU_TEX,1,40,2023-02-20T05:00:34+00:00,73.86117101,82,updated stim.csv,Version82.csv,Version 82,List 82,buck,NA,2440,4.291666667,340,0.941213361,2441,BOI,-,-,Please name all of the ways you could use this object. Keep in mind that one object can have many uses. Separate your responses with a comma.,NA,y,73571,NA,NA,68020,71423,NA,NA,NA,can pay for things,0.788
M20289871_CJ,1gx3xhz1q7,Affordance Norms_MSU_TEX,1,11,2023-02-06T01:39:24+00:00,37.22896385,59,updated stim.csv,Version59.csv,Version 59,List 59,musician,NA,1744,4.47826087,1724,0.807811062,1745,BOI,-,-,Please name all of the ways you could use this object. Keep in mind that one object can have many uses. Separate your responses with a comma.,NA,y,36943,NA,NA,3707,35400,NA,NA,NA,"To play music, to entertain, to listen to, to draw attention, to celebrate a birthday",1
M20289871_CJ,1gx3xhz1q7,Affordance Norms_MSU_TEX,1,12,2023-02-06T01:40:19+00:00,55.20682716,59,updated stim.csv,Version59.csv,Version 59,List 59,attire,NA,1765,5.086956522,95,0.100168074,1766,BOI,-,-,Please name all of the ways you could use this object. Keep in mind that one object can have many uses. Separate your responses with a comma.,NA,y,54874,NA,NA,1691,51539,NA,NA,NA,"to wear, to sell, to fold, to hang up, to do laundry with, to use to burn for a fire, a tourniquet",1
M20289871_CJ,1gx3xhz1q7,Affordance Norms_MSU_TEX,1,13,2023-02-06T01:40:46+00:00,26.61846304,59,updated stim.csv,Version59.csv,Version 59,List 59,bullet,NA,1741,5.772727273,353,0.384139642,1742,BOI,-,-,Please name all of the ways you could use this object. Keep in mind that one object can have many uses. Separate your responses with a comma.,NA,y,26285,NA,NA,1937,23228,NA,NA,NA,"to shoot, to throw, take the gun powder out and make an explosion",1
M20289871_CJ,1gx3xhz1q7,Affordance Norms_MSU_TEX,1,14,2023-02-06T01:41:34+00:00,47.99966693,59,updated stim.csv,Version59.csv,Version 59,List 59,surgeon,NA,1748,5,2595,0.062436921,1749,BOI,-,-,Please name all of the ways you could use this object. Keep in mind that one object can have many uses. Separate your responses with a comma.,NA,y,47713,NA,NA,2323,44630,NA,NA,NA,"to fix something, to cut open something or someone, to take out tumors, to fix bones, to take an MCAT for me",1
M20289871_CJ,1gx3xhz1q7,Affordance Norms_MSU_TEX,1,15,2023-02-06T01:42:32+00:00,57.76736188,59,updated stim.csv,Version59.csv,Version 59,List 59,softball,NA,1761,5.75,2444,0.483229766,1762,BOI,-,-,Please name all of the ways you could use this object. Keep in mind that one object can have many uses. Separate your responses with a comma.,NA,y,57483,NA,NA,3087,56359,NA,NA,NA,"to throw, to catch, to play with, to have fun with, to break a window, to use as a weapon, to use as a massager, to step on, to roll, to kick",1
M20289871_CJ,1gx3xhz1q7,Affordance Norms_MSU_TEX,1,16,2023-02-06T01:43:01+00:00,29.47917509,59,updated stim.csv,Version59.csv,Version 59,List 59,honeysuckle,NA,1759,5.375,1305,0.241027144,1760,BOI,-,-,Please name all of the ways you could use this object. Keep in mind that one object can have many uses. Separate your responses with a comma.,NA,y,29199,NA,NA,3265,28377,NA,NA,NA,"to eat, to get stuff sticky, to melt, to drink, to cook with, to make something sweet",1
M20289871_CJ,1gx3xhz1q7,Affordance Norms_MSU_TEX,1,17,2023-02-06T01:43:28+00:00,26.8899591,59,updated stim.csv,Version59.csv,Version 59,List 59,stagecoach,NA,1769,4.538461538,2498,0.60122922,1770,BOI,-,-,Please name all of the ways you could use this object. Keep in mind that one object can have many uses. Separate your responses with a comma.,NA,y,26602,NA,NA,1767,21232,NA,NA,NA,"to ride in, to drive, to sit in, to carry luggage",1
M20289871_CJ,1gx3xhz1q7,Affordance Norms_MSU_TEX,1,18,2023-02-06T01:44:10+00:00,41.40366983,59,updated stim.csv,Version59.csv,Version 59,List 59,soccer,NA,1766,4.64,2438,0.415669367,1767,BOI,-,-,Please name all of the ways you could use this object. Keep in mind that one object can have many uses. Separate your responses with a comma.,NA,y,41108,NA,NA,3682,40110,NA,NA,NA,"to play, to watch, to make video games about",1
M20289871_CJ,1gx3xhz1q7,Affordance Norms_MSU_TEX,1,19,2023-02-06T01:44:30+00:00,20.55989218,59,updated stim.csv,Version59.csv,Version 59,List 59,belongings,NA,1753,5.173913043,201,0.384209393,1754,BOI,-,-,Please name all of the ways you could use this object. Keep in mind that one object can have many uses. Separate your responses with a comma.,NA,y,20268,NA,NA,2092,19066,NA,NA,NA,"to carry, to store, to cherish",1
M20289871_CJ,1gx3xhz1q7,Affordance Norms_MSU_TEX,1,20,2023-02-06T01:44:48+00:00,17.88923693,59,updated stim.csv,Version59.csv,Version 59,List 59,stirrer,NA,1745,4.615384615,2537,0.139093933,1746,BOI,-,-,Please name all of the ways you could use this object. Keep in mind that one object can have many uses. Separate your responses with a comma.,NA,y,17598,NA,NA,2818,16753,NA,NA,NA,"to cook with, to mix, to use as a weapon",1
M20289871_CJ,1gx3xhz1q7,Affordance Norms_MSU_TEX,1,21,2023-02-06T01:44:55+00:00,6.586148024,59,updated stim.csv,Version59.csv,Version 59,List 59,holder,NA,1767,4.28,1296,0.95017996,1768,BOI,-,-,Please name all of the ways you could use this object. Keep in mind that one object can have many uses. Separate your responses with a comma.,NA,y,6302,NA,NA,2504,4839,NA,NA,NA,to hold things,1
M20289871_CJ,1gx3xhz1q7,Affordance Norms_MSU_TEX,1,22,2023-02-06T01:45:28+00:00,33.34669399,59,updated stim.csv,Version59.csv,Version 59,List 59,eye,NA,1747,5.72,929,0.443037439,1748,BOI,-,-,Please name all of the ways you could use this object. Keep in mind that one object can have many uses. Separate your responses with a comma.,NA,y,33061,NA,NA,1240,31981,NA,NA,NA,"to look with, to see things, to wear contacts, to blink, to close",1
M20289871_CJ,1gx3xhz1q7,Affordance Norms_MSU_TEX,1,23,2023-02-06T01:46:12+00:00,44.46000886,59,updated stim.csv,Version59.csv,Version 59,List 59,runner,NA,1768,4.608695652,2207,0.70961419,1769,BOI,-,-,Please name all of the ways you could use this object. Keep in mind that one object can have many uses. Separate your responses with a comma.,NA,y,44126,NA,NA,5751,42649,NA,NA,NA,"to sprint, to win races, to bet on, to transport things quick, to teach another person how to run",1
M20289871_CJ,1gx3xhz1q7,Affordance Norms_MSU_TEX,1,24,2023-02-06T01:46:56+00:00,43.8011651,59,updated stim.csv,Version59.csv,Version 59,List 59,whip,NA,1754,5,2925,0.659916917,1755,BOI,-,-,Please name all of the ways you could use this object. Keep in mind that one object can have many uses. Separate your responses with a comma.,NA,y,43517,NA,NA,1604,29145,NA,NA,NA,"to use as a weapon, to break a window with",1
M20289871_CJ,1gx3xhz1q7,Affordance Norms_MSU_TEX,1,25,2023-02-06T01:47:57+00:00,60.64942193,59,updated stim.csv,Version59.csv,Version 59,List 59,diploma,NA,1746,5.96,798,0.946243713,1747,BOI,-,-,Please name all of the ways you could use this object. Keep in mind that one object can have many uses. Separate your responses with a comma.,NA,y,60311,NA,NA,2060,58962,NA,NA,NA,"to use to get a job, use as a napkin, use to burn for a fire, use to have more credibility",1
M20289871_CJ,1gx3xhz1q7,Affordance Norms_MSU_TEX,1,26,2023-02-06T01:48:13+00:00,15.68877697,59,updated stim.csv,Version59.csv,Version 59,List 59,electrocardiogram,NA,1752,4.347826087,898,0.132707639,1753,BOI,-,-,Please name all of the ways you could use this object. Keep in mind that one object can have many uses. Separate your responses with a comma.,NA,y,15392,NA,NA,5307,14613,NA,NA,NA,To see how your heart is doing,1
M20289871_CJ,1gx3xhz1q7,Affordance Norms_MSU_TEX,1,27,2023-02-06T01:48:45+00:00,32.56375217,59,updated stim.csv,Version59.csv,Version 59,List 59,beautician,NA,1760,4.608695652,183,0.543328676,1761,BOI,-,-,Please name all of the ways you could use this object. Keep in mind that one object can have many uses. Separate your responses with a comma.,NA,y,32275,NA,NA,1958,30039,NA,NA,NA,"to make your face feel better, to make a face look better, to clean a face, to wash a face",1
M20289871_CJ,1gx3xhz1q7,Affordance Norms_MSU_TEX,1,28,2023-02-06T01:49:01+00:00,15.78815103,59,updated stim.csv,Version59.csv,Version 59,List 59,midwife,NA,1757,5,1659,0.497275333,1758,BOI,-,-,Please name all of the ways you could use this object. Keep in mind that one object can have many uses. Separate your responses with a comma.,NA,y,15518,NA,NA,1446,14815,NA,NA,NA,"to deliver a baby, to help ease the process of delivering a baby",1
M20289871_CJ,1gx3xhz1q7,Affordance Norms_MSU_TEX,1,29,2023-02-06T01:49:37+00:00,36.22527599,59,updated stim.csv,Version59.csv,Version 59,List 59,knitting,NA,1751,4.304347826,1436,0.568372099,1752,BOI,-,-,Please name all of the ways you could use this object. Keep in mind that one object can have many uses. Separate your responses with a comma.,NA,y,35892,NA,NA,1416,33388,NA,NA,NA,"to make a shirt, to make a blanket, to make mittens, to make art, to make a beanie, to make any type of clothing",1
M20289871_CJ,1gx3xhz1q7,Affordance Norms_MSU_TEX,1,30,2023-02-06T01:50:15+00:00,38.20981789,59,updated stim.csv,Version59.csv,Version 59,List 59,baggage,NA,1749,5.965517241,122,0.141549146,1750,BOI,-,-,Please name all of the ways you could use this object. Keep in mind that one object can have many uses. Separate your responses with a comma.,NA,y,37912,NA,NA,4677,35695,NA,NA,NA,"to carry belongings, to stow on a plane or car, to break something with, use as protection, use as a weapon",1
M20289871_CJ,1gx3xhz1q7,Affordance Norms_MSU_TEX,1,31,2023-02-06T01:50:38+00:00,22.94378209,59,updated stim.csv,Version59.csv,Version 59,List 59,slush,NA,1763,4.541666667,2419,0.001805092,1764,BOI,-,-,Please name all of the ways you could use this object. Keep in mind that one object can have many uses. Separate your responses with a comma.,NA,y,22648,NA,NA,1931,21454,NA,NA,NA,"to drink, to make yourself or someone else happy, to sell",1
M20289871_CJ,1gx3xhz1q7,Affordance Norms_MSU_TEX,1,32,2023-02-06T01:50:59+00:00,20.38353801,59,updated stim.csv,Version59.csv,Version 59,List 59,outhouse,NA,1755,4.64,1829,0.122401729,1756,BOI,-,-,Please name all of the ways you could use this object. Keep in mind that one object can have many uses. Separate your responses with a comma.,NA,y,20049,NA,NA,3731,18369,NA,NA,NA,"as a bathroom, use as a hiding place",1
M20289871_CJ,1gx3xhz1q7,Affordance Norms_MSU_TEX,1,33,2023-02-06T01:51:10+00:00,11.04146099,59,updated stim.csv,Version59.csv,Version 59,List 59,trolley,NA,1743,5.416666667,2780,0.015846997,1744,BOI,-,-,Please name all of the ways you could use this object. Keep in mind that one object can have many uses. Separate your responses with a comma.,NA,y,10763,NA,NA,2786,9876,NA,NA,NA,"use to roll stuff one, use to ride",1
M20289871_CJ,1gx3xhz1q7,Affordance Norms_MSU_TEX,1,34,2023-02-06T01:51:43+00:00,33.09230089,59,updated stim.csv,Version59.csv,Version 59,List 59,tenant,NA,1756,4.8,2662,0.79293781,1757,BOI,-,-,Please name all of the ways you could use this object. Keep in mind that one object can have many uses. Separate your responses with a comma.,NA,y,32809,NA,NA,1510,30769,NA,NA,NA,"use to get a house, use to pay money to, use to help fix a house or apartment",1
M20289871_CJ,1gx3xhz1q7,Affordance Norms_MSU_TEX,1,35,2023-02-06T01:51:54+00:00,11.20602608,59,updated stim.csv,Version59.csv,Version 59,List 59,beret,NA,1742,5.695652174,204,0.534744098,1743,BOI,-,-,Please name all of the ways you could use this object. Keep in mind that one object can have many uses. Separate your responses with a comma.,NA,y,10931,NA,NA,2901,9436,NA,NA,NA,not sure what this is,1
M20289871_CJ,1gx3xhz1q7,Affordance Norms_MSU_TEX,1,36,2023-02-06T01:52:26+00:00,31.57395983,59,updated stim.csv,Version59.csv,Version 59,List 59,tile,NA,1762,4.76,2697,0.15917771,1763,BOI,-,-,Please name all of the ways you could use this object. Keep in mind that one object can have many uses. Separate your responses with a comma.,NA,y,31227,NA,NA,1766,30093,NA,NA,NA,"to put on your belongings to not lose it, to put on the floor or walls for decoration",1
M20289871_CJ,1gx3xhz1q7,Affordance Norms_MSU_TEX,1,37,2023-02-06T01:52:41+00:00,15.03253412,59,updated stim.csv,Version59.csv,Version 59,List 59,shoehorn,NA,1770,5.75,2350,0.543116011,1771,BOI,-,-,Please name all of the ways you could use this object. Keep in mind that one object can have many uses. Separate your responses with a comma.,NA,y,14752,NA,NA,1473,12768,NA,NA,NA,"to put your shoes on, to wedge something ",1
M20289871_CJ,1gx3xhz1q7,Affordance Norms_MSU_TEX,1,38,2023-02-06T01:53:10+00:00,29.13528204,59,updated stim.csv,Version59.csv,Version 59,List 59,triceps,NA,1758,5.52,2774,0.029767692,1759,BOI,-,-,Please name all of the ways you could use this object. Keep in mind that one object can have many uses. Separate your responses with a comma.,NA,y,28851,NA,NA,1900,28142,NA,NA,NA,"to lift weights, to push something, to flex, to make money",1
M20289871_CJ,1gx3xhz1q7,Affordance Norms_MSU_TEX,1,39,2023-02-06T01:53:33+00:00,23.50750303,59,updated stim.csv,Version59.csv,Version 59,List 59,axes,NA,1764,4.833333333,107,0.618408666,1765,BOI,-,-,Please name all of the ways you could use this object. Keep in mind that one object can have many uses. Separate your responses with a comma.,NA,y,23216,NA,NA,1632,22183,NA,NA,NA,"to throw, to cut down something, use as protection, use as a weapon",1
M20289871_CJ,1gx3xhz1q7,Affordance Norms_MSU_TEX,1,40,2023-02-06T01:53:42+00:00,9.103889942,59,updated stim.csv,Version59.csv,Version 59,List 59,statuette,NA,1750,4.739130435,2514,0.930875652,1751,BOI,-,-,Please name all of the ways you could use this object. Keep in mind that one object can have many uses. Separate your responses with a comma.,NA,y,8826,NA,NA,2454,8081,NA,NA,NA,not sure what this word means,1
M20293014_ANM,xbep9ffbe9,Affordance Norms_MSU_TEX,1,11,2023-02-20T22:36:43+00:00,20.16711617,85,updated stim.csv,Version85.csv,Version 85,List 85,root,NA,2548,4.583333333,2191,0.967674128,2549,BOI,-,-,Please name all of the ways you could use this object. Keep in mind that one object can have many uses. Separate your responses with a comma.,NA,y,19920,NA,NA,6007,18570,NA,NA,NA,"plant, tree, start, growth",1
M20293014_ANM,xbep9ffbe9,Affordance Norms_MSU_TEX,1,12,2023-02-20T22:37:12+00:00,29.22072482,85,updated stim.csv,Version85.csv,Version 85,List 85,tea,NA,2536,6.153846154,2641,0.446734318,2537,BOI,-,-,Please name all of the ways you could use this object. Keep in mind that one object can have many uses. Separate your responses with a comma.,NA,y,29011,NA,NA,3890,23238,NA,NA,NA,"England, sweet, chili's, texas, grandma",1
M20293014_ANM,xbep9ffbe9,Affordance Norms_MSU_TEX,1,13,2023-02-20T22:37:29+00:00,17.26317596,85,updated stim.csv,Version85.csv,Version 85,List 85,sunglasses,NA,2532,6.458333333,2588,0.472353327,2533,BOI,-,-,Please name all of the ways you could use this object. Keep in mind that one object can have many uses. Separate your responses with a comma.,NA,y,17002,NA,NA,1561,4549,NA,NA,NA,"sun, vacation, ",1
M20293014_ANM,xbep9ffbe9,Affordance Norms_MSU_TEX,1,14,2023-02-20T22:37:46+00:00,17.025177,85,updated stim.csv,Version85.csv,Version 85,List 85,testicle,NA,2523,6.24,2671,0.243957279,2524,BOI,-,-,Please name all of the ways you could use this object. Keep in mind that one object can have many uses. Separate your responses with a comma.,NA,y,16766,NA,NA,1663,15303,NA,NA,NA,"men, husband, children,",1
M20293014_ANM,xbep9ffbe9,Affordance Norms_MSU_TEX,1,15,2023-02-20T22:37:51+00:00,5.042226076,85,updated stim.csv,Version85.csv,Version 85,List 85,granite,NA,2531,4.666666667,1154,0.989911124,2532,BOI,-,-,Please name all of the ways you could use this object. Keep in mind that one object can have many uses. Separate your responses with a comma.,NA,y,4803,NA,NA,3010,3945,NA,NA,NA,counter,1
M20293014_ANM,xbep9ffbe9,Affordance Norms_MSU_TEX,1,16,2023-02-20T22:38:07+00:00,15.52565193,85,updated stim.csv,Version85.csv,Version 85,List 85,teacup,NA,2530,6.347826087,2644,0.6727913,2531,BOI,-,-,Please name all of the ways you could use this object. Keep in mind that one object can have many uses. Separate your responses with a comma.,NA,y,15285,NA,NA,1717,14853,NA,NA,NA,"party, plate, celebration",1
M20293014_ANM,xbep9ffbe9,Affordance Norms_MSU_TEX,1,17,2023-02-20T22:38:13+00:00,6.032004118,85,updated stim.csv,Version85.csv,Version 85,List 85,oar,NA,2525,5.307692308,1795,0.34140051,2526,BOI,-,-,Please name all of the ways you could use this object. Keep in mind that one object can have many uses. Separate your responses with a comma.,NA,y,5790,NA,NA,4138,5093,NA,NA,NA,kyak,1
M20293014_ANM,xbep9ffbe9,Affordance Norms_MSU_TEX,1,18,2023-02-20T22:38:30+00:00,16.6375699,85,updated stim.csv,Version85.csv,Version 85,List 85,dermatologist,NA,2546,4.92,777,0.499556117,2547,BOI,-,-,Please name all of the ways you could use this object. Keep in mind that one object can have many uses. Separate your responses with a comma.,NA,y,16326,NA,NA,1670,14313,NA,NA,NA,"doctor, pimple, gross, hard work",1
M20293014_ANM,xbep9ffbe9,Affordance Norms_MSU_TEX,1,19,2023-02-20T22:38:33+00:00,3.796518087,85,updated stim.csv,Version85.csv,Version 85,List 85,bisque,NA,2537,4.28,225,0.494817881,2538,BOI,-,-,Please name all of the ways you could use this object. Keep in mind that one object can have many uses. Separate your responses with a comma.,NA,y,3554,NA,NA,-1,-1,NA,NA,NA,,1
M20293014_ANM,xbep9ffbe9,Affordance Norms_MSU_TEX,1,20,2023-02-20T22:38:48+00:00,14.78515291,85,updated stim.csv,Version85.csv,Version 85,List 85,paperweight,NA,2534,5.291666667,1865,0.336970694,2535,BOI,-,-,Please name all of the ways you could use this object. Keep in mind that one object can have many uses. Separate your responses with a comma.,NA,y,14549,NA,NA,1818,13507,NA,NA,NA,"heavy, workload",1
M20293014_ANM,xbep9ffbe9,Affordance Norms_MSU_TEX,1,21,2023-02-20T22:39:03+00:00,15.17956614,85,updated stim.csv,Version85.csv,Version 85,List 85,nose,NA,2522,6,1779,0.98457152,2523,BOI,-,-,Please name all of the ways you could use this object. Keep in mind that one object can have many uses. Separate your responses with a comma.,NA,y,14935,NA,NA,1975,14577,NA,NA,NA,"stuffy, mucus, smell, stink, nature",1
M20293014_ANM,xbep9ffbe9,Affordance Norms_MSU_TEX,1,22,2023-02-20T22:39:12+00:00,8.520189047,85,updated stim.csv,Version85.csv,Version 85,List 85,scalp,NA,2542,5.25,2262,0.953953631,2543,BOI,-,-,Please name all of the ways you could use this object. Keep in mind that one object can have many uses. Separate your responses with a comma.,NA,y,8275,NA,NA,1760,7269,NA,NA,NA,"hair, sunburn",1
M20293014_ANM,xbep9ffbe9,Affordance Norms_MSU_TEX,1,23,2023-02-20T22:39:15+00:00,3.501013994,85,updated stim.csv,Version85.csv,Version 85,List 85,liverwurst,NA,2547,4.708333333,1527,0.40114849,2548,BOI,-,-,Please name all of the ways you could use this object. Keep in mind that one object can have many uses. Separate your responses with a comma.,NA,y,3267,NA,NA,-1,-1,NA,NA,NA,,1
M20293014_ANM,xbep9ffbe9,Affordance Norms_MSU_TEX,1,24,2023-02-20T22:39:24+00:00,8.626452923,85,updated stim.csv,Version85.csv,Version 85,List 85,handcart,NA,2526,5.6,1233,0.651137703,2527,BOI,-,-,Please name all of the ways you could use this object. Keep in mind that one object can have many uses. Separate your responses with a comma.,NA,y,8385,NA,NA,5572,6493,NA,NA,NA,milk,1
M20293014_ANM,xbep9ffbe9,Affordance Norms_MSU_TEX,1,25,2023-02-20T22:39:33+00:00,9.109782934,85,updated stim.csv,Version85.csv,Version 85,List 85,hookah,NA,2545,6.25,1308,0.286515665,2546,BOI,-,-,Please name all of the ways you could use this object. Keep in mind that one object can have many uses. Separate your responses with a comma.,NA,y,8876,NA,NA,4278,8554,NA,NA,NA,"heritage, culture",1
M20293014_ANM,xbep9ffbe9,Affordance Norms_MSU_TEX,1,26,2023-02-20T22:39:50+00:00,16.57779908,85,updated stim.csv,Version85.csv,Version 85,List 85,mud,NA,2549,5.56,1710,0.710648371,2550,BOI,-,-,Please name all of the ways you could use this object. Keep in mind that one object can have many uses. Separate your responses with a comma.,NA,y,16328,NA,NA,2039,13809,NA,NA,NA,"dirty, messy, brown, everywhere",1
M20293014_ANM,xbep9ffbe9,Affordance Norms_MSU_TEX,1,27,2023-02-20T22:40:05+00:00,14.89275599,85,updated stim.csv,Version85.csv,Version 85,List 85,dip,NA,2521,4.535714286,797,0.689764918,2522,BOI,-,-,Please name all of the ways you could use this object. Keep in mind that one object can have many uses. Separate your responses with a comma.,NA,y,14643,NA,NA,1514,13359,NA,NA,NA,"queso, pool, chip, road, ",1
M20293014_ANM,xbep9ffbe9,Affordance Norms_MSU_TEX,1,28,2023-02-20T22:40:17+00:00,12.48373485,85,updated stim.csv,Version85.csv,Version 85,List 85,drink,NA,2544,6.074074074,849,0.895805443,2545,BOI,-,-,Please name all of the ways you could use this object. Keep in mind that one object can have many uses. Separate your responses with a comma.,NA,y,12236,NA,NA,1704,10805,NA,NA,NA,"water, cup, soda, tea, ",1
M20293014_ANM,xbep9ffbe9,Affordance Norms_MSU_TEX,1,29,2023-02-20T22:40:23+00:00,5.794448137,85,updated stim.csv,Version85.csv,Version 85,List 85,midshipman,NA,2527,4.352941176,1658,0.807658991,2528,BOI,-,-,Please name all of the ways you could use this object. Keep in mind that one object can have many uses. Separate your responses with a comma.,NA,y,5546,NA,NA,2195,3359,NA,NA,NA,not sure,1
M20293014_ANM,xbep9ffbe9,Affordance Norms_MSU_TEX,1,30,2023-02-20T22:40:39+00:00,16.04135609,85,updated stim.csv,Version85.csv,Version 85,List 85,orthodontist,NA,2529,4.916666667,1825,0.899112697,2530,BOI,-,-,Please name all of the ways you could use this object. Keep in mind that one object can have many uses. Separate your responses with a comma.,NA,y,15785,NA,NA,1967,11404,NA,NA,NA,"teeth, braces, clean, enamal",1
M20293014_ANM,xbep9ffbe9,Affordance Norms_MSU_TEX,1,31,2023-02-20T22:40:51+00:00,12.15623784,85,updated stim.csv,Version85.csv,Version 85,List 85,wristwatch,NA,2540,6.5,2985,0.348331665,2541,BOI,-,-,Please name all of the ways you could use this object. Keep in mind that one object can have many uses. Separate your responses with a comma.,NA,y,11908,NA,NA,1922,9975,NA,NA,NA,"apple watch, time, late, early",1
M20293014_ANM,xbep9ffbe9,Affordance Norms_MSU_TEX,1,32,2023-02-20T22:40:55+00:00,4.326140165,85,updated stim.csv,Version85.csv,Version 85,List 85,tong,NA,2538,5.227272727,2726,0.090482706,2539,BOI,-,-,Please name all of the ways you could use this object. Keep in mind that one object can have many uses. Separate your responses with a comma.,NA,y,4088,NA,NA,2429,3943,NA,NA,NA,not sure,1
M20293014_ANM,xbep9ffbe9,Affordance Norms_MSU_TEX,1,33,2023-02-20T22:41:00+00:00,4.482987881,85,updated stim.csv,Version85.csv,Version 85,List 85,catsup,NA,2541,5.074074074,462,0.129266936,2542,BOI,-,-,Please name all of the ways you could use this object. Keep in mind that one object can have many uses. Separate your responses with a comma.,NA,y,4235,NA,NA,2502,3916,NA,NA,NA,not sure,1
M20293014_ANM,xbep9ffbe9,Affordance Norms_MSU_TEX,1,34,2023-02-20T22:41:21+00:00,21.48635602,85,updated stim.csv,Version85.csv,Version 85,List 85,applicator,NA,2533,5.185185185,63,0.334631736,2534,BOI,-,-,Please name all of the ways you could use this object. Keep in mind that one object can have many uses. Separate your responses with a comma.,NA,y,20815,NA,NA,1686,18756,NA,NA,NA,"lipstick, makeup, tampon, lube, ",1
M20293014_ANM,xbep9ffbe9,Affordance Norms_MSU_TEX,1,35,2023-02-20T22:41:39+00:00,17.34975696,85,updated stim.csv,Version85.csv,Version 85,List 85,bicycle,NA,2528,6.08,210,0.857636588,2529,BOI,-,-,Please name all of the ways you could use this object. Keep in mind that one object can have many uses. Separate your responses with a comma.,NA,y,17059,NA,NA,1726,15594,NA,NA,NA,"wheels, travel, italy, campus, ",1
M20293014_ANM,xbep9ffbe9,Affordance Norms_MSU_TEX,1,36,2023-02-20T22:41:58+00:00,19.38018394,85,updated stim.csv,Version85.csv,Version 85,List 85,turtle,NA,2543,4.821428571,2805,0.89144619,2544,BOI,-,-,Please name all of the ways you could use this object. Keep in mind that one object can have many uses. Separate your responses with a comma.,NA,y,19121,NA,NA,8049,16611,NA,NA,NA,"upright, green, brown, swim, ",1
M20293014_ANM,xbep9ffbe9,Affordance Norms_MSU_TEX,1,37,2023-02-20T22:42:07+00:00,8.459407091,85,updated stim.csv,Version85.csv,Version 85,List 85,insulin,NA,2535,4.625,1362,0.734502618,2536,BOI,-,-,Please name all of the ways you could use this object. Keep in mind that one object can have many uses. Separate your responses with a comma.,NA,y,8214,NA,NA,1773,6975,NA,NA,NA,"diabetes, type",1
M20293014_ANM,xbep9ffbe9,Affordance Norms_MSU_TEX,1,38,2023-02-20T22:42:16+00:00,9.556974888,85,updated stim.csv,Version85.csv,Version 85,List 85,cottage,NA,2539,4.52173913,659,0.416389092,2540,BOI,-,-,Please name all of the ways you could use this object. Keep in mind that one object can have many uses. Separate your responses with a comma.,NA,y,9308,NA,NA,1618,7051,NA,NA,NA,"house, sweden",1
M20293014_ANM,xbep9ffbe9,Affordance Norms_MSU_TEX,1,39,2023-02-20T22:42:28+00:00,11.619699,85,updated stim.csv,Version85.csv,Version 85,List 85,yolk,NA,2524,4.875,2995,0.081645283,2525,BOI,-,-,Please name all of the ways you could use this object. Keep in mind that one object can have many uses. Separate your responses with a comma.,NA,y,11371,NA,NA,1231,8535,NA,NA,NA,"egg, yellow, chick",1
M20293014_ANM,xbep9ffbe9,Affordance Norms_MSU_TEX,1,40,2023-02-20T22:42:45+00:00,16.85498023,85,updated stim.csv,Version85.csv,Version 85,List 85,tire,NA,2550,5.291666667,2706,0.183823374,2551,BOI,-,-,Please name all of the ways you could use this object. Keep in mind that one object can have many uses. Separate your responses with a comma.,NA,y,16608,NA,NA,1664,15262,NA,NA,NA,"vehicle, air, round, black",1
M20299243,eigq9w6kc1,Affordance Norms_MSU_TEX,1,11,2023-01-25T15:33:55+00:00,25.47646379,57,updated stim.csv,Version57.csv,Version 57,List 57,clamshell,NA,1700,4.347826087,547,0.250228718,1701,BOI,-,-,Please name all of the ways you could use this object. Keep in mind that one object can have many uses. Separate your responses with a comma.,NA,y,25430,NA,NA,23891,24857,NA,NA,NA,digging,0.769
M20299243,eigq9w6kc1,Affordance Norms_MSU_TEX,1,12,2023-01-25T15:34:43+00:00,48.07940316,57,updated stim.csv,Version57.csv,Version 57,List 57,projector,NA,1701,5.086956522,2072,0.077473059,1702,BOI,-,-,Please name all of the ways you could use this object. Keep in mind that one object can have many uses. Separate your responses with a comma.,NA,y,47749,NA,NA,20944,42176,NA,NA,NA,"present presentations, play movies",1
M20299243,eigq9w6kc1,Affordance Norms_MSU_TEX,1,13,2023-01-25T15:36:39+00:00,116.0552289,57,updated stim.csv,Version57.csv,Version 57,List 57,mustache,NA,1690,5.620689655,1726,0.470316757,1691,BOI,-,-,Please name all of the ways you could use this object. Keep in mind that one object can have many uses. Separate your responses with a comma.,NA,y,115593,NA,NA,45801,114396,NA,NA,NA,n/a,0.924
M20299243,eigq9w6kc1,Affordance Norms_MSU_TEX,1,14,2023-01-25T15:37:22+00:00,42.84785199,57,updated stim.csv,Version57.csv,Version 57,List 57,panties,NA,1683,5.791666667,1859,0.139595531,1684,BOI,-,-,Please name all of the ways you could use this object. Keep in mind that one object can have many uses. Separate your responses with a comma.,NA,y,42423,NA,NA,9011,26719,NA,NA,NA,"covering your butt, hiding your vagina",1
M20299243,eigq9w6kc1,Affordance Norms_MSU_TEX,1,15,2023-01-25T15:37:52+00:00,29.76400709,57,updated stim.csv,Version57.csv,Version 57,List 57,gooseberry,NA,1705,5.041666667,1139,0.47457871,1706,BOI,-,-,Please name all of the ways you could use this object. Keep in mind that one object can have many uses. Separate your responses with a comma.,NA,y,29437,NA,NA,25452,28368,NA,NA,NA,"compote, jams",0.883
M20299243,eigq9w6kc1,Affordance Norms_MSU_TEX,1,16,2023-01-25T15:39:53+00:00,121.252049,57,updated stim.csv,Version57.csv,Version 57,List 57,knapsack,NA,1699,5.84,1432,0.445796621,1700,BOI,-,-,Please name all of the ways you could use this object. Keep in mind that one object can have many uses. Separate your responses with a comma.,NA,y,120887,NA,NA,81116,82639,NA,NA,NA,n/a,0.968
M20299243,eigq9w6kc1,Affordance Norms_MSU_TEX,1,17,2023-01-25T15:40:34+00:00,41.22534299,57,updated stim.csv,Version57.csv,Version 57,List 57,almond,NA,1691,5.714285714,29,0.806020492,1692,BOI,-,-,Please name all of the ways you could use this object. Keep in mind that one object can have many uses. Separate your responses with a comma.,NA,y,40899,NA,NA,21135,27419,NA,NA,NA,"milk, food, nuts",1
M20299243,eigq9w6kc1,Affordance Norms_MSU_TEX,1,18,2023-01-25T15:40:41+00:00,7.220811844,57,updated stim.csv,Version57.csv,Version 57,List 57,cosmetics,NA,1703,5.75,656,0.093789132,1704,BOI,-,-,Please name all of the ways you could use this object. Keep in mind that one object can have many uses. Separate your responses with a comma.,NA,y,6911,NA,NA,3180,6489,NA,NA,NA,"makeup, beauty",1
M20299243,eigq9w6kc1,Affordance Norms_MSU_TEX,1,19,2023-01-25T15:40:48+00:00,6.377157211,57,updated stim.csv,Version57.csv,Version 57,List 57,throne,NA,1707,5.217391304,2686,0.129766433,1708,BOI,-,-,Please name all of the ways you could use this object. Keep in mind that one object can have many uses. Separate your responses with a comma.,NA,y,6079,NA,NA,2549,5007,NA,NA,NA,chair,1
M20299243,eigq9w6kc1,Affordance Norms_MSU_TEX,1,20,2023-01-25T15:41:48+00:00,60.1047368,57,updated stim.csv,Version57.csv,Version 57,List 57,Platform,NA,1697,4.579514825,1997,0.177549388,1698,BOI,-,-,Please name all of the ways you could use this object. Keep in mind that one object can have many uses. Separate your responses with a comma.,NA,y,59790,NA,NA,1928,59592,NA,NA,NA,"stage, bottoms of a show",0.946
M20299243,eigq9w6kc1,Affordance Norms_MSU_TEX,1,21,2023-01-25T15:41:52+00:00,3.780544996,57,updated stim.csv,Version57.csv,Version 57,List 57,potpourri,NA,1702,5.333333333,2049,0.806389552,1703,BOI,-,-,Please name all of the ways you could use this object. Keep in mind that one object can have many uses. Separate your responses with a comma.,NA,y,3588,NA,NA,3007,3454,NA,NA,NA,n/a,1
M20299243,eigq9w6kc1,Affordance Norms_MSU_TEX,1,22,2023-01-25T15:42:11+00:00,19.59335303,57,updated stim.csv,Version57.csv,Version 57,List 57,cornflower,NA,1692,4.739130435,648,0.477938493,1693,BOI,-,-,Please name all of the ways you could use this object. Keep in mind that one object can have many uses. Separate your responses with a comma.,NA,y,19280,NA,NA,14730,18259,NA,NA,NA,"herb, medicine",0.813
M20299243,eigq9w6kc1,Affordance Norms_MSU_TEX,1,23,2023-01-25T15:42:25+00:00,13.96697211,57,updated stim.csv,Version57.csv,Version 57,List 57,knob,NA,1694,5.888888889,1437,0.141557617,1695,BOI,-,-,Please name all of the ways you could use this object. Keep in mind that one object can have many uses. Separate your responses with a comma.,NA,y,13643,NA,NA,4418,13349,NA,NA,NA,"door, something you can grab",1
M20299243,eigq9w6kc1,Affordance Norms_MSU_TEX,1,24,2023-01-25T15:42:35+00:00,9.820329905,57,updated stim.csv,Version57.csv,Version 57,List 57,frosting,NA,1709,5,1059,0.525114217,1710,BOI,-,-,Please name all of the ways you could use this object. Keep in mind that one object can have many uses. Separate your responses with a comma.,NA,y,9495,NA,NA,1726,8288,NA,NA,NA,"cakes, cupcakes, icing",1
M20299243,eigq9w6kc1,Affordance Norms_MSU_TEX,1,25,2023-01-25T15:42:53+00:00,18.38187099,57,updated stim.csv,Version57.csv,Version 57,List 57,bowl,NA,1688,6.16,292,0.65770977,1689,BOI,-,-,Please name all of the ways you could use this object. Keep in mind that one object can have many uses. Separate your responses with a comma.,NA,y,18075,NA,NA,1618,12368,NA,NA,NA,"food, cooking",1
M20299243,eigq9w6kc1,Affordance Norms_MSU_TEX,1,26,2023-01-25T15:43:01+00:00,7.947961092,57,updated stim.csv,Version57.csv,Version 57,List 57,newsreader,NA,1710,4.826086957,1763,0.445899483,1711,BOI,-,-,Please name all of the ways you could use this object. Keep in mind that one object can have many uses. Separate your responses with a comma.,NA,y,7625,NA,NA,3240,7081,NA,NA,NA,entertainment,1
M20299243,eigq9w6kc1,Affordance Norms_MSU_TEX,1,27,2023-01-25T15:43:17+00:00,15.76848006,57,updated stim.csv,Version57.csv,Version 57,List 57,banknote,NA,1685,4.52173913,144,0.753400968,1686,BOI,-,-,Please name all of the ways you could use this object. Keep in mind that one object can have many uses. Separate your responses with a comma.,NA,y,15446,NA,NA,12678,14889,NA,NA,NA,"note, money",0.838
M20299243,eigq9w6kc1,Affordance Norms_MSU_TEX,1,28,2023-01-25T15:43:32+00:00,15.40672183,57,updated stim.csv,Version57.csv,Version 57,List 57,speedboat,NA,1698,5.434782609,2468,0.58292944,1699,BOI,-,-,Please name all of the ways you could use this object. Keep in mind that one object can have many uses. Separate your responses with a comma.,NA,y,15090,NA,NA,2078,13871,NA,NA,NA,driving on water,1
M20299243,eigq9w6kc1,Affordance Norms_MSU_TEX,1,29,2023-01-25T15:43:45+00:00,12.47509217,57,updated stim.csv,Version57.csv,Version 57,List 57,vanilla,NA,1693,4.518518519,2837,0.184823244,1694,BOI,-,-,Please name all of the ways you could use this object. Keep in mind that one object can have many uses. Separate your responses with a comma.,NA,y,12157,NA,NA,2071,11275,NA,NA,NA,"baking, eating",1
M20299243,eigq9w6kc1,Affordance Norms_MSU_TEX,1,30,2023-01-25T15:44:08+00:00,23.03961301,57,updated stim.csv,Version57.csv,Version 57,List 57,basketball,NA,1687,6.25,163,0.41583425,1688,BOI,-,-,Please name all of the ways you could use this object. Keep in mind that one object can have many uses. Separate your responses with a comma.,NA,y,22709,NA,NA,1678,8552,NA,NA,NA,"sports, entertainment",1
M20299243,eigq9w6kc1,Affordance Norms_MSU_TEX,1,31,2023-01-25T15:44:13+00:00,5.135770798,57,updated stim.csv,Version57.csv,Version 57,List 57,blowtorch,NA,1686,5.541666667,248,0.714685537,1687,BOI,-,-,Please name all of the ways you could use this object. Keep in mind that one object can have many uses. Separate your responses with a comma.,NA,y,4830,NA,NA,3303,3815,NA,NA,NA,fire,1
M20299243,eigq9w6kc1,Affordance Norms_MSU_TEX,1,32,2023-01-25T15:44:17+00:00,3.623167992,57,updated stim.csv,Version57.csv,Version 57,List 57,orchid,NA,1696,4.68,1817,0.628112724,1697,BOI,-,-,Please name all of the ways you could use this object. Keep in mind that one object can have many uses. Separate your responses with a comma.,NA,y,3429,NA,NA,1743,2604,NA,NA,NA,flower,1
M20299243,eigq9w6kc1,Affordance Norms_MSU_TEX,1,33,2023-01-25T15:44:33+00:00,15.90468812,57,updated stim.csv,Version57.csv,Version 57,List 57,plate,NA,1682,5.590909091,1996,0.772738219,1683,BOI,-,-,Please name all of the ways you could use this object. Keep in mind that one object can have many uses. Separate your responses with a comma.,NA,y,15590,NA,NA,4786,13728,NA,NA,NA,holds food,1
M20299243,eigq9w6kc1,Affordance Norms_MSU_TEX,1,34,2023-01-25T15:44:44+00:00,10.990412,57,updated stim.csv,Version57.csv,Version 57,List 57,collarbone,NA,1708,5.48,601,0.69713396,1709,BOI,-,-,Please name all of the ways you could use this object. Keep in mind that one object can have many uses. Separate your responses with a comma.,NA,y,10683,NA,NA,2008,6962,NA,NA,NA,bone in the body,1
M20299243,eigq9w6kc1,Affordance Norms_MSU_TEX,1,35,2023-01-25T15:44:59+00:00,15.11851192,57,updated stim.csv,Version57.csv,Version 57,List 57,marbles,NA,1704,5.75,1603,0.986377553,1705,BOI,-,-,Please name all of the ways you could use this object. Keep in mind that one object can have many uses. Separate your responses with a comma.,NA,y,14798,NA,NA,2365,13037,NA,NA,NA,games,1
M20299243,eigq9w6kc1,Affordance Norms_MSU_TEX,1,36,2023-01-25T15:45:21+00:00,22.57779908,57,updated stim.csv,Version57.csv,Version 57,List 57,mascot,NA,1706,4.32,1613,0.141521275,1707,BOI,-,-,Please name all of the ways you could use this object. Keep in mind that one object can have many uses. Separate your responses with a comma.,NA,y,22248,NA,NA,10055,21366,NA,NA,NA,school spiritual animal or thing,1
M20299243,eigq9w6kc1,Affordance Norms_MSU_TEX,1,37,2023-01-25T15:48:10+00:00,168.4966149,57,updated stim.csv,Version57.csv,Version 57,List 57,lubricant,NA,1681,5.76,1554,0.491760634,1682,BOI,-,-,Please name all of the ways you could use this object. Keep in mind that one object can have many uses. Separate your responses with a comma.,NA,y,168115,NA,NA,136075,148192,NA,NA,NA,"massage, getting things unstuck",1
M20299243,eigq9w6kc1,Affordance Norms_MSU_TEX,1,38,2023-01-25T15:49:17+00:00,67.01350212,57,updated stim.csv,Version57.csv,Version 57,List 57,fishpond,NA,1695,4.791666667,992,0.102949445,1696,BOI,-,-,Please name all of the ways you could use this object. Keep in mind that one object can have many uses. Separate your responses with a comma.,NA,y,66682,NA,NA,62955,66305,NA,NA,NA,recreational fishing,0.961
M20299243,eigq9w6kc1,Affordance Norms_MSU_TEX,1,39,2023-01-25T15:50:06+00:00,49.63324785,57,updated stim.csv,Version57.csv,Version 57,List 57,cannabis,NA,1684,5.666666667,415,0.188451848,1685,BOI,-,-,Please name all of the ways you could use this object. Keep in mind that one object can have many uses. Separate your responses with a comma.,NA,y,49306,NA,NA,12381,43239,NA,NA,NA,stress reliever,1
M20299243,eigq9w6kc1,Affordance Norms_MSU_TEX,1,40,2023-01-25T15:50:51+00:00,44.74531507,57,updated stim.csv,Version57.csv,Version 57,List 57,corsage,NA,1689,5.782608696,652,0.617875885,1690,BOI,-,-,Please name all of the ways you could use this object. Keep in mind that one object can have many uses. Separate your responses with a comma.,NA,y,44416,NA,NA,34637,44039,NA,NA,NA,"prom dates, weddings, decorations, funerals",0.944
M20300175AE,v9lzyghamk,Affordance Norms_MSU_TEX,1,11,2023-02-17T23:43:38+00:00,28.02927613,81,updated stim.csv,Version81.csv,Version 81,List 81,adult,NA,2404,5.409090909,15,0.392224703,2405,BOI,-,-,Please name all of the ways you could use this object. Keep in mind that one object can have many uses. Separate your responses with a comma.,NA,y,27556,NA,NA,22977,26681,NA,NA,NA,"Human, animal ",1
M20300175AE,v9lzyghamk,Affordance Norms_MSU_TEX,1,12,2023-02-17T23:44:01+00:00,22.2565279,81,updated stim.csv,Version81.csv,Version 81,List 81,cruiser,NA,2418,4.304347826,713,0.763245435,2419,BOI,-,-,Please name all of the ways you could use this object. Keep in mind that one object can have many uses. Separate your responses with a comma.,NA,y,21125,NA,NA,14366,20034,NA,NA,NA,Transportation ,1
M20300175AE,v9lzyghamk,Affordance Norms_MSU_TEX,1,13,2023-02-17T23:44:43+00:00,42.31704712,81,updated stim.csv,Version81.csv,Version 81,List 81,hallway,NA,2401,4.708333333,1220,0.034623451,2402,BOI,-,-,Please name all of the ways you could use this object. Keep in mind that one object can have many uses. Separate your responses with a comma.,NA,y,41840,NA,NA,22686,40762,NA,NA,NA,Connecting spaces ,1
M20300175AE,v9lzyghamk,Affordance Norms_MSU_TEX,1,14,2023-02-17T23:45:19+00:00,35.61608982,81,updated stim.csv,Version81.csv,Version 81,List 81,meat,NA,2411,5.52173913,1633,0.124349073,2412,BOI,-,-,Please name all of the ways you could use this object. Keep in mind that one object can have many uses. Separate your responses with a comma.,NA,y,34915,NA,NA,33409,34010,NA,NA,NA,Food,1
