"Username","ID","ExperimentName","Session","Trial","Date","TimeDif","Condition.Number","Stimuli.File","Order.File","Condition.Description","Condition.Notes","Stimuli.Cue","Stimuli.Answer","Stimuli.Shuffle","Stimuli.Stimuli.Notes","Stimuli.Value","Stimuli.Rand","Procedure.Item","Procedure.Trial.Type","Procedure.Max.Time","Procedure.Min.Time","Procedure.Text","Procedure.Procedure.Notes","Procedure.Shuffle","Response.RT","Response.Response","Response.Accuracy","Response.RTfirst","Response.RTlast","Response.strictAcc","Response.lenientAcc","Response.focus","Response.JOL","Response.Focus"
"10098485SP","t237jrkm9k","BOI Norms",1,11,"2022-01-21T18:21:27+00:00",4.0850939750671,15,"updated stim.csv","Version40.csv","Version 40","List 40","pie",NA,1178,5.869565217,1953,0.817428636,1179,"BOI","-","-","Please name all of the ways you could use this object. Keep in mind that one object can have many uses. Separate your responses with a comma.",NA,"y",3947,NA,NA,1470,3432,NA,NA,NA,"eat, cut",1
"10098485SP","t237jrkm9k","BOI Norms",1,12,"2022-01-21T18:21:44+00:00",16.18761920929,15,"updated stim.csv","Version40.csv","Version 40","List 40","baklava",NA,1171,5.454545455,126,0.67252704,1172,"BOI","-","-","Please name all of the ways you could use this object. Keep in mind that one object can have many uses. Separate your responses with a comma.",NA,"y",16040,NA,NA,15452,15767,NA,NA,NA,"eat",0.83
"10098485SP","t237jrkm9k","BOI Norms",1,13,"2022-01-21T18:21:50+00:00",6.0418558120728,15,"updated stim.csv","Version40.csv","Version 40","List 40","stopwatch",NA,1185,6.041666667,2549,0.812942197,1186,"BOI","-","-","Please name all of the ways you could use this object. Keep in mind that one object can have many uses. Separate your responses with a comma.",NA,"y",5878,NA,NA,1205,2024,NA,NA,NA,"time",1
"10098485SP","t237jrkm9k","BOI Norms",1,14,"2022-01-21T18:21:55+00:00",5.6753010749817,15,"updated stim.csv","Version40.csv","Version 40","List 40","acorn",NA,1197,5.28,8,0.226034468,1198,"BOI","-","-","Please name all of the ways you could use this object. Keep in mind that one object can have many uses. Separate your responses with a comma.",NA,"y",5525,NA,NA,2492,5261,NA,NA,NA,"throw, step on",1
"10098485SP","t237jrkm9k","BOI Norms",1,15,"2022-01-21T18:22:02+00:00",6.2239279747009,15,"updated stim.csv","Version40.csv","Version 40","List 40","bat",NA,1192,5.041666667,166,0.007785369,1193,"BOI","-","-","Please name all of the ways you could use this object. Keep in mind that one object can have many uses. Separate your responses with a comma.",NA,"y",6067,NA,NA,1795,4136,NA,NA,NA,"hit, swing",1
"10098485SP","t237jrkm9k","BOI Norms",1,16,"2022-01-21T18:22:04+00:00",2.7399430274963,15,"updated stim.csv","Version40.csv","Version 40","List 40","porridge",NA,1190,4.80952381,2038,0.226224278,1191,"BOI","-","-","Please name all of the ways you could use this object. Keep in mind that one object can have many uses. Separate your responses with a comma.",NA,"y",2575,NA,NA,1450,2382,NA,NA,NA,"eat",1
"10098485SP","t237jrkm9k","BOI Norms",1,17,"2022-01-21T18:22:12+00:00",7.5624849796295,15,"updated stim.csv","Version40.csv","Version 40","List 40","canteen",NA,1183,5.607142857,419,0.478481246,1184,"BOI","-","-","Please name all of the ways you could use this object. Keep in mind that one object can have many uses. Separate your responses with a comma.",NA,"y",7423,NA,NA,5176,7327,NA,NA,NA,"hold, light",1
"10098485SP","t237jrkm9k","BOI Norms",1,18,"2022-01-21T18:22:26+00:00",13.783087015152,15,"updated stim.csv","Version40.csv","Version 40","List 40","piccolo",NA,1182,4.956521739,1948,0.266218097,1183,"BOI","-","-","Please name all of the ways you could use this object. Keep in mind that one object can have many uses. Separate your responses with a comma.",NA,"y",13482,NA,NA,12672,12887,NA,NA,NA,"idk",0.821
"10098485SP","t237jrkm9k","BOI Norms",1,19,"2022-01-21T18:22:33+00:00",7.1832709312439,15,"updated stim.csv","Version40.csv","Version 40","List 40","straitjacket",NA,1187,5.037037037,2558,0.770954805,1188,"BOI","-","-","Please name all of the ways you could use this object. Keep in mind that one object can have many uses. Separate your responses with a comma.",NA,"y",7033,NA,NA,1618,6952,NA,NA,NA,"hold together",1
"10098485SP","t237jrkm9k","BOI Norms",1,20,"2022-01-21T18:22:37+00:00",3.7909510135651,15,"updated stim.csv","Version40.csv","Version 40","List 40","monk",NA,1176,5.173913043,1680,0.475833569,1177,"BOI","-","-","Please name all of the ways you could use this object. Keep in mind that one object can have many uses. Separate your responses with a comma.",NA,"y",3650,NA,NA,1504,3464,NA,NA,NA,"pray",1
"10098485SP","t237jrkm9k","BOI Norms",1,21,"2022-01-21T18:22:43+00:00",6.7195510864258,15,"updated stim.csv","Version40.csv","Version 40","List 40","epidermis",NA,1191,5.636363636,916,0.203650559,1192,"BOI","-","-","Please name all of the ways you could use this object. Keep in mind that one object can have many uses. Separate your responses with a comma.",NA,"y",6561,NA,NA,2039,6355,NA,NA,NA,"protect, scratch, cut",1
"10098485SP","t237jrkm9k","BOI Norms",1,22,"2022-01-21T18:22:50+00:00",6.5166499614716,15,"updated stim.csv","Version40.csv","Version 40","List 40","signpost",NA,1198,5.25,2380,0.495356372,1199,"BOI","-","-","Please name all of the ways you could use this object. Keep in mind that one object can have many uses. Separate your responses with a comma.",NA,"y",6378,NA,NA,2286,6262,NA,NA,NA,"lead, direct",1
"10098485SP","t237jrkm9k","BOI Norms",1,23,"2022-01-21T18:22:54+00:00",4.4234960079193,15,"updated stim.csv","Version40.csv","Version 40","List 40","denims",NA,1181,5.541666667,774,0.571481343,1182,"BOI","-","-","Please name all of the ways you could use this object. Keep in mind that one object can have many uses. Separate your responses with a comma.",NA,"y",4269,NA,NA,1747,4179,NA,NA,NA,"warmth, weat",1
"10098485SP","t237jrkm9k","BOI Norms",1,24,"2022-01-21T18:23:02+00:00",8.2294960021973,15,"updated stim.csv","Version40.csv","Version 40","List 40","dance",NA,1180,4.44,753,0.210841804,1181,"BOI","-","-","Please name all of the ways you could use this object. Keep in mind that one object can have many uses. Separate your responses with a comma.",NA,"y",8090,NA,NA,2622,7766,NA,NA,NA,"expression, workout",1
"10098485SP","t237jrkm9k","BOI Norms",1,25,"2022-01-21T18:23:10+00:00",7.3167300224304,15,"updated stim.csv","Version40.csv","Version 40","List 40","newspaperman",NA,1195,4.48,1761,0.676039813,1196,"BOI","-","-","Please name all of the ways you could use this object. Keep in mind that one object can have many uses. Separate your responses with a comma.",NA,"y",7161,NA,NA,-1,-1,NA,NA,NA,"",1
"10098485SP","t237jrkm9k","BOI Norms",1,26,"2022-01-21T18:23:19+00:00",8.8718440532684,15,"updated stim.csv","Version40.csv","Version 40","List 40","makeup",NA,1186,6,1580,0.407523064,1187,"BOI","-","-","Please name all of the ways you could use this object. Keep in mind that one object can have many uses. Separate your responses with a comma.",NA,"y",8732,NA,NA,4021,8646,NA,NA,NA,"dress up, confidence",1
"10098485SP","t237jrkm9k","BOI Norms",1,27,"2022-01-21T18:23:20+00:00",1.4593298435211,15,"updated stim.csv","Version40.csv","Version 40","List 40","gyroscope",NA,1189,4.814814815,1207,0.518024929,1190,"BOI","-","-","Please name all of the ways you could use this object. Keep in mind that one object can have many uses. Separate your responses with a comma.",NA,"y",1313,NA,NA,-1,-1,NA,NA,NA,"",1
"10098485SP","t237jrkm9k","BOI Norms",1,28,"2022-01-21T18:23:21+00:00",0.95842599868774,15,"updated stim.csv","Version40.csv","Version 40","List 40","clitoris",NA,1172,6.090909091,564,0.92528309,1173,"BOI","-","-","Please name all of the ways you could use this object. Keep in mind that one object can have many uses. Separate your responses with a comma.",NA,"y",819,NA,NA,-1,-1,NA,NA,NA,"",1
"10098485SP","t237jrkm9k","BOI Norms",1,29,"2022-01-21T18:23:27+00:00",5.5875570774078,15,"updated stim.csv","Version40.csv","Version 40","List 40","buckle",NA,1188,4.846153846,342,0.420732514,1189,"BOI","-","-","Please name all of the ways you could use this object. Keep in mind that one object can have many uses. Separate your responses with a comma.",NA,"y",5446,NA,NA,2436,5313,NA,NA,NA,"hold pant",1
"10098485SP","t237jrkm9k","BOI Norms",1,30,"2022-01-21T18:23:32+00:00",5.0630819797516,15,"updated stim.csv","Version40.csv","Version 40","List 40","piercing",NA,1184,5,1954,0.302184076,1185,"BOI","-","-","Please name all of the ways you could use this object. Keep in mind that one object can have many uses. Separate your responses with a comma.",NA,"y",4926,NA,NA,2353,4397,NA,NA,NA,"jewlery",1
"10098485SP","t237jrkm9k","BOI Norms",1,31,"2022-01-21T18:23:33+00:00",1.0535950660706,15,"updated stim.csv","Version40.csv","Version 40","List 40","oilcan",NA,1200,4.782608696,1802,0.943196409,1201,"BOI","-","-","Please name all of the ways you could use this object. Keep in mind that one object can have many uses. Separate your responses with a comma.",NA,"y",897,NA,NA,-1,-1,NA,NA,NA,"",1
"10098485SP","t237jrkm9k","BOI Norms",1,32,"2022-01-21T18:23:39+00:00",5.9121670722961,15,"updated stim.csv","Version40.csv","Version 40","List 40","walker",NA,1179,5.181818182,2885,0.225630288,1180,"BOI","-","-","Please name all of the ways you could use this object. Keep in mind that one object can have many uses. Separate your responses with a comma.",NA,"y",5770,NA,NA,1564,5294,NA,NA,NA,"help walking",1
"10098485SP","t237jrkm9k","BOI Norms",1,33,"2022-01-21T18:23:40+00:00",1.2154948711395,15,"updated stim.csv","Version40.csv","Version 40","List 40","goldsmith",NA,1193,4.375,1134,0.348990826,1194,"BOI","-","-","Please name all of the ways you could use this object. Keep in mind that one object can have many uses. Separate your responses with a comma.",NA,"y",1079,NA,NA,-1,-1,NA,NA,NA,"",1
"10098485SP","t237jrkm9k","BOI Norms",1,34,"2022-01-21T18:23:46+00:00",6.0580699443817,15,"updated stim.csv","Version40.csv","Version 40","List 40","trombone",NA,1194,5.75,2781,0.477357634,1195,"BOI","-","-","Please name all of the ways you could use this object. Keep in mind that one object can have many uses. Separate your responses with a comma.",NA,"y",5914,NA,NA,1829,5691,NA,NA,NA,"music, expression",1
"10098485SP","t237jrkm9k","BOI Norms",1,35,"2022-01-21T18:23:56+00:00",10.453845977783,15,"updated stim.csv","Version40.csv","Version 40","List 40","bedspread",NA,1174,6.08,188,0.054747267,1175,"BOI","-","-","Please name all of the ways you could use this object. Keep in mind that one object can have many uses. Separate your responses with a comma.",NA,"y",10305,NA,NA,6539,9835,NA,NA,NA,"warmth, sleep",1
"10098485SP","t237jrkm9k","BOI Norms",1,36,"2022-01-21T18:24:02+00:00",5.3230521678925,15,"updated stim.csv","Version40.csv","Version 40","List 40","bleacher",NA,1196,5.083333333,235,0.237933917,1197,"BOI","-","-","Please name all of the ways you could use this object. Keep in mind that one object can have many uses. Separate your responses with a comma.",NA,"y",5172,NA,NA,2141,5088,NA,NA,NA,"sit, watch games",1
"10098485SP","t237jrkm9k","BOI Norms",1,37,"2022-01-21T18:24:09+00:00",7.001697063446,15,"updated stim.csv","Version40.csv","Version 40","List 40","sushi",NA,1199,5.708333333,2597,0.102266266,1200,"BOI","-","-","Please name all of the ways you could use this object. Keep in mind that one object can have many uses. Separate your responses with a comma.",NA,"y",6854,NA,NA,1123,6428,NA,NA,NA,"eat, enjoy",1
"10098485SP","t237jrkm9k","BOI Norms",1,38,"2022-01-21T18:24:11+00:00",2.010265827179,15,"updated stim.csv","Version40.csv","Version 40","List 40","salad",NA,1175,6.111111111,2218,0.466682363,1176,"BOI","-","-","Please name all of the ways you could use this object. Keep in mind that one object can have many uses. Separate your responses with a comma.",NA,"y",1861,NA,NA,1139,1696,NA,NA,NA,"eat ",1
"10098485SP","t237jrkm9k","BOI Norms",1,39,"2022-01-21T18:24:20+00:00",9.6928141117096,15,"updated stim.csv","Version40.csv","Version 40","List 40","twine",NA,1177,5.5,2812,0.436601767,1178,"BOI","-","-","Please name all of the ways you could use this object. Keep in mind that one object can have many uses. Separate your responses with a comma.",NA,"y",9550,NA,NA,4871,8488,NA,NA,NA,"hold together",1
"10098485SP","t237jrkm9k","BOI Norms",1,40,"2022-01-21T18:24:24+00:00",3.8167219161987,15,"updated stim.csv","Version40.csv","Version 40","List 40","tank",NA,1173,4.608695652,2631,0.495653559,1174,"BOI","-","-","Please name all of the ways you could use this object. Keep in mind that one object can have many uses. Separate your responses with a comma.",NA,"y",3660,NA,NA,1204,3581,NA,NA,NA,"gas, water",1
"10107665CB","a22r3ibwxz","BOI Norms",1,11,"2022-01-17T00:08:55+00:00",12.291731834412,7,"updated stim.csv","Version32.csv","Version 32","List 32","stretcher",NA,947,5.08,2567,0.175250095,948,"BOI","-","-","Please name all of the ways you could use this object. Keep in mind that one object can have many uses. Separate your responses with a comma.",NA,"y",12023,NA,NA,3127,10564,NA,NA,NA,"patient, hospital",1
"10107665CB","a22r3ibwxz","BOI Norms",1,12,"2022-01-17T00:09:30+00:00",34.76672911644,7,"updated stim.csv","Version32.csv","Version 32","List 32","seed",NA,943,5.185185185,2308,0.014236888,944,"BOI","-","-","Please name all of the ways you could use this object. Keep in mind that one object can have many uses. Separate your responses with a comma.",NA,"y",34488,NA,NA,2745,32969,NA,NA,NA,"plant, grow, eat",1
"10107665CB","a22r3ibwxz","BOI Norms",1,13,"2022-01-17T00:09:44+00:00",14.232841014862,7,"updated stim.csv","Version32.csv","Version 32","List 32","costume",NA,935,6.28,657,0.522143133,936,"BOI","-","-","Please name all of the ways you could use this object. Keep in mind that one object can have many uses. Separate your responses with a comma.",NA,"y",13949,NA,NA,2266,12929,NA,NA,NA,"wear, create, laugh",1
"10107665CB","a22r3ibwxz","BOI Norms",1,14,"2022-01-17T00:09:53+00:00",8.520416021347,7,"updated stim.csv","Version32.csv","Version 32","List 32","stairwell",NA,950,5.038461538,2502,0.416299371,951,"BOI","-","-","Please name all of the ways you could use this object. Keep in mind that one object can have many uses. Separate your responses with a comma.",NA,"y",8229,NA,NA,2066,6803,NA,NA,NA,"up, down, house",1
"10107665CB","a22r3ibwxz","BOI Norms",1,15,"2022-01-17T00:10:09+00:00",16.359530925751,7,"updated stim.csv","Version32.csv","Version 32","List 32","cloverleaf",NA,945,4.565217391,575,0.317012653,946,"BOI","-","-","Please name all of the ways you could use this object. Keep in mind that one object can have many uses. Separate your responses with a comma.",NA,"y",16077,NA,NA,1833,15214,NA,NA,NA,"luck, spring, rainbow",1
"10107665CB","a22r3ibwxz","BOI Norms",1,16,"2022-01-17T00:10:16+00:00",7.1138470172882,7,"updated stim.csv","Version32.csv","Version 32","List 32","songbook",NA,955,5.76,2452,0.921781306,956,"BOI","-","-","Please name all of the ways you could use this object. Keep in mind that one object can have many uses. Separate your responses with a comma.",NA,"y",6843,NA,NA,2448,5805,NA,NA,NA,"write, sing, perform",1
"10107665CB","a22r3ibwxz","BOI Norms",1,17,"2022-01-17T00:10:38+00:00",22.422148942947,7,"updated stim.csv","Version32.csv","Version 32","List 32","lodging",NA,933,4.620689655,1540,0.172344777,934,"BOI","-","-","Please name all of the ways you could use this object. Keep in mind that one object can have many uses. Separate your responses with a comma.",NA,"y",22133,NA,NA,8413,12425,NA,NA,NA,"sleep, eat, warmth",1
"10107665CB","a22r3ibwxz","BOI Norms",1,18,"2022-01-17T00:11:06+00:00",27.526268959045,7,"updated stim.csv","Version32.csv","Version 32","List 32","ash",NA,937,4.333333333,81,0.921336914,938,"BOI","-","-","Please name all of the ways you could use this object. Keep in mind that one object can have many uses. Separate your responses with a comma.",NA,"y",27243,NA,NA,1890,10480,NA,NA,NA,"fire, religion, dust",1
"10107665CB","a22r3ibwxz","BOI Norms",1,19,"2022-01-17T00:12:01+00:00",55.441078186035,7,"updated stim.csv","Version32.csv","Version 32","List 32","fan",NA,939,5.72,945,0.861017212,940,"BOI","-","-","Please name all of the ways you could use this object. Keep in mind that one object can have many uses. Separate your responses with a comma.",NA,"y",55147,NA,NA,45669,54274,NA,NA,NA,"cooling, heat, air",1
"10107665CB","a22r3ibwxz","BOI Norms",1,20,"2022-01-17T00:12:12+00:00",10.152074813843,7,"updated stim.csv","Version32.csv","Version 32","List 32","tinplate",NA,934,4.869565217,2704,0.566853662,935,"BOI","-","-","Please name all of the ways you could use this object. Keep in mind that one object can have many uses. Separate your responses with a comma.",NA,"y",9839,NA,NA,2353,7347,NA,NA,NA,"eat, serve, heat, ",1
"10107665CB","a22r3ibwxz","BOI Norms",1,21,"2022-01-17T00:12:22+00:00",10.484843969345,7,"updated stim.csv","Version32.csv","Version 32","List 32","glassblower",NA,946,4.52173913,1111,0.574282045,947,"BOI","-","-","Please name all of the ways you could use this object. Keep in mind that one object can have many uses. Separate your responses with a comma.",NA,"y",10208,NA,NA,2905,9353,NA,NA,NA,"art, words, person",1
"10107665CB","a22r3ibwxz","BOI Norms",1,22,"2022-01-17T00:18:15+00:00",353.12149000168,7,"updated stim.csv","Version32.csv","Version 32","List 32","dollar",NA,944,6.24,815,0.953092348,945,"BOI","-","-","Please name all of the ways you could use this object. Keep in mind that one object can have many uses. Separate your responses with a comma.",NA,"y",352702,NA,NA,2481,9655,NA,NA,NA,"money, things, ",1
"10107665CB","a22r3ibwxz","BOI Norms",1,23,"2022-01-17T00:19:12+00:00",56.982317209244,7,"updated stim.csv","Version32.csv","Version 32","List 32","bible",NA,931,5.826086957,208,0.324631078,932,"BOI","-","-","Please name all of the ways you could use this object. Keep in mind that one object can have many uses. Separate your responses with a comma.",NA,"y",56186,NA,NA,4658,51284,NA,NA,NA,"religion, catholic, god",1
"10107665CB","a22r3ibwxz","BOI Norms",1,24,"2022-01-17T00:19:22+00:00",9.6213738918304,7,"updated stim.csv","Version32.csv","Version 32","List 32","sidewalk",NA,959,5.291666667,2377,0.314744474,960,"BOI","-","-","Please name all of the ways you could use this object. Keep in mind that one object can have many uses. Separate your responses with a comma.",NA,"y",9342,NA,NA,1738,8683,NA,NA,NA,"walk, run, jog, dog",1
"10107665CB","a22r3ibwxz","BOI Norms",1,25,"2022-01-17T00:20:33+00:00",70.887628078461,7,"updated stim.csv","Version32.csv","Version 32","List 32","artifact",NA,942,4.416666667,79,0.765499719,943,"BOI","-","-","Please name all of the ways you could use this object. Keep in mind that one object can have many uses. Separate your responses with a comma.",NA,"y",70403,NA,NA,16435,19970,NA,NA,NA,"art, history, ",1
"10107665CB","a22r3ibwxz","BOI Norms",1,26,"2022-01-17T00:20:42+00:00",9.6791458129883,7,"updated stim.csv","Version32.csv","Version 32","List 32","trousers",NA,948,6.185185185,2783,0.281296816,949,"BOI","-","-","Please name all of the ways you could use this object. Keep in mind that one object can have many uses. Separate your responses with a comma.",NA,"y",9373,NA,NA,1432,8277,NA,NA,NA,"wear, children, old",1
"10107665CB","a22r3ibwxz","BOI Norms",1,27,"2022-01-17T00:20:47+00:00",4.5010440349579,7,"updated stim.csv","Version32.csv","Version 32","List 32","bead",NA,951,5.545454545,178,0.648715325,952,"BOI","-","-","Please name all of the ways you could use this object. Keep in mind that one object can have many uses. Separate your responses with a comma.",NA,"y",4231,NA,NA,1608,3108,NA,NA,NA,"mardi gras",1
"10107665CB","a22r3ibwxz","BOI Norms",1,28,"2022-01-17T00:20:55+00:00",8.2532660961151,7,"updated stim.csv","Version32.csv","Version 32","List 32","pimple",NA,957,5.72,1966,0.416217372,958,"BOI","-","-","Please name all of the ways you could use this object. Keep in mind that one object can have many uses. Separate your responses with a comma.",NA,"y",7987,NA,NA,1345,7324,NA,NA,NA,"pop, acne, puberty",1
"10107665CB","a22r3ibwxz","BOI Norms",1,29,"2022-01-17T00:21:08+00:00",13.088823080063,7,"updated stim.csv","Version32.csv","Version 32","List 32","dessert",NA,958,5.695652174,781,0.650065206,959,"BOI","-","-","Please name all of the ways you could use this object. Keep in mind that one object can have many uses. Separate your responses with a comma.",NA,"y",12787,NA,NA,1543,12148,NA,NA,NA,"eat, chocolate, cook, bake",1
"10107665CB","a22r3ibwxz","BOI Norms",1,30,"2022-01-17T00:26:46+00:00",337.42962098122,7,"updated stim.csv","Version32.csv","Version 32","List 32","skillet",NA,949,5.409090909,2398,0.236328693,950,"BOI","-","-","Please name all of the ways you could use this object. Keep in mind that one object can have many uses. Separate your responses with a comma.",NA,"y",337009,NA,NA,1371,336126,NA,NA,NA,"steak, hot, cook, kitchen",1
"10107665CB","a22r3ibwxz","BOI Norms",1,31,"2022-01-17T00:28:57+00:00",131.27941584587,7,"updated stim.csv","Version32.csv","Version 32","List 32","machinery",NA,954,5.416666667,1568,0.158340386,955,"BOI","-","-","Please name all of the ways you could use this object. Keep in mind that one object can have many uses. Separate your responses with a comma.",NA,"y",130889,NA,NA,1823,7849,NA,NA,NA,"work, engineering, ",1
"10107665CB","a22r3ibwxz","BOI Norms",1,32,"2022-01-17T00:29:14+00:00",16.87437415123,7,"updated stim.csv","Version32.csv","Version 32","List 32","hairnet",NA,940,5.458333333,1214,0.064711462,941,"BOI","-","-","Please name all of the ways you could use this object. Keep in mind that one object can have many uses. Separate your responses with a comma.",NA,"y",16584,NA,NA,5221,15694,NA,NA,NA,"school, cook, chef, clean",1
"10107665CB","a22r3ibwxz","BOI Norms",1,33,"2022-01-17T00:29:21+00:00",7.6523649692535,7,"updated stim.csv","Version32.csv","Version 32","List 32","summerhouse",NA,953,5,2584,0.005502834,954,"BOI","-","-","Please name all of the ways you could use this object. Keep in mind that one object can have many uses. Separate your responses with a comma.",NA,"y",7372,NA,NA,1831,6435,NA,NA,NA,"beach, vacation",1
"10107665CB","a22r3ibwxz","BOI Norms",1,34,"2022-01-17T00:29:28+00:00",6.87677693367,7,"updated stim.csv","Version32.csv","Version 32","List 32","sprinter",NA,936,4.565217391,2490,0.255243644,937,"BOI","-","-","Please name all of the ways you could use this object. Keep in mind that one object can have many uses. Separate your responses with a comma.",NA,"y",6420,NA,NA,2732,5599,NA,NA,NA,"race, run, jog",1
"10107665CB","a22r3ibwxz","BOI Norms",1,35,"2022-01-17T00:29:41+00:00",12.286329030991,7,"updated stim.csv","Version32.csv","Version 32","List 32","pocketknife",NA,932,5.692307692,2015,0.633157619,933,"BOI","-","-","Please name all of the ways you could use this object. Keep in mind that one object can have many uses. Separate your responses with a comma.",NA,"y",11865,NA,NA,2979,11011,NA,NA,NA,"cut, glide, work",1
"10107665CB","a22r3ibwxz","BOI Norms",1,36,"2022-01-17T00:29:46+00:00",5.081120967865,7,"updated stim.csv","Version32.csv","Version 32","List 32","pumice",NA,938,4.857142857,2095,0.227303187,939,"BOI","-","-","Please name all of the ways you could use this object. Keep in mind that one object can have many uses. Separate your responses with a comma.",NA,"y",4723,NA,NA,3434,3922,NA,NA,NA,"clean",1
"10107665CB","a22r3ibwxz","BOI Norms",1,37,"2022-01-17T00:30:15+00:00",29.229012012482,7,"updated stim.csv","Version32.csv","Version 32","List 32","powerboat",NA,960,5.782608696,2056,0.281136621,961,"BOI","-","-","Please name all of the ways you could use this object. Keep in mind that one object can have many uses. Separate your responses with a comma.",NA,"y",28959,NA,NA,20858,27355,NA,NA,NA,"vacation, tubing, beach",1
"10107665CB","a22r3ibwxz","BOI Norms",1,38,"2022-01-17T00:30:43+00:00",27.944099903107,7,"updated stim.csv","Version32.csv","Version 32","List 32","balm",NA,952,4.583333333,134,0.632454945,953,"BOI","-","-","Please name all of the ways you could use this object. Keep in mind that one object can have many uses. Separate your responses with a comma.",NA,"y",27659,NA,NA,21407,26837,NA,NA,NA,"lip, fresh",1
"10107665CB","a22r3ibwxz","BOI Norms",1,39,"2022-01-17T00:30:47+00:00",4.3903601169586,7,"updated stim.csv","Version32.csv","Version 32","List 32","tin",NA,941,4.727272727,2701,0.734382552,942,"BOI","-","-","Please name all of the ways you could use this object. Keep in mind that one object can have many uses. Separate your responses with a comma.",NA,"y",4110,NA,NA,1426,3418,NA,NA,NA,"cup, man",1
"10107665CB","a22r3ibwxz","BOI Norms",1,40,"2022-01-17T00:30:53+00:00",5.9174768924713,7,"updated stim.csv","Version32.csv","Version 32","List 32","rotisserie",NA,956,4.791666667,2198,0.425985486,957,"BOI","-","-","Please name all of the ways you could use this object. Keep in mind that one object can have many uses. Separate your responses with a comma.",NA,"y",5568,NA,NA,1072,4851,NA,NA,NA,"chicken, cook, make",1
"MJW","zpljow6bls","BOI Norms",1,11,"2022-01-20T17:55:06+00:00",17.943482160568,10,"updated stim.csv","Version35.csv","Version 35","List 35","broom",NA,1022,6.416666667,332,0.112184071,1023,"BOI","-","-","Please name all of the ways you could use this object. Keep in mind that one object can have many uses. Separate your responses with a comma.",NA,"y",17549,NA,NA,2741,11459,NA,NA,NA,"sweeping, riding, dancing",1
"MJW","zpljow6bls","BOI Norms",1,12,"2022-01-20T17:55:38+00:00",32.226312875748,10,"updated stim.csv","Version35.csv","Version 35","List 35","fence",NA,1046,5.62962963,962,0.462536133,1047,"BOI","-","-","Please name all of the ways you could use this object. Keep in mind that one object can have many uses. Separate your responses with a comma.",NA,"y",31794,NA,NA,4808,26632,NA,NA,NA,"privacy, keeping animals contained",1
"MJW","zpljow6bls","BOI Norms",1,13,"2022-01-20T17:56:05+00:00",26.768086910248,10,"updated stim.csv","Version35.csv","Version 35","List 35","patrolman",NA,1044,4.814814815,1888,0.383790265,1045,"BOI","-","-","Please name all of the ways you could use this object. Keep in mind that one object can have many uses. Separate your responses with a comma.",NA,"y",26349,NA,NA,3409,18638,NA,NA,NA,"safety, security",1
"MJW","zpljow6bls","BOI Norms",1,14,"2022-01-20T17:56:20+00:00",15.243414163589,10,"updated stim.csv","Version35.csv","Version 35","List 35","tobacco",NA,1038,5.666666667,2712,0.348773592,1039,"BOI","-","-","Please name all of the ways you could use this object. Keep in mind that one object can have many uses. Separate your responses with a comma.",NA,"y",14798,NA,NA,5339,9125,NA,NA,NA,"smoking",1
"MJW","zpljow6bls","BOI Norms",1,15,"2022-01-20T17:56:54+00:00",33.624441862106,10,"updated stim.csv","Version35.csv","Version 35","List 35","creamer",NA,1047,5.24,689,0.976952276,1048,"BOI","-","-","Please name all of the ways you could use this object. Keep in mind that one object can have many uses. Separate your responses with a comma.",NA,"y",33189,NA,NA,1916,31361,NA,NA,NA,"coffee, pasta dishes, desserts",1
"MJW","zpljow6bls","BOI Norms",1,16,"2022-01-20T17:57:00+00:00",6.4134800434113,10,"updated stim.csv","Version35.csv","Version 35","List 35","corvette",NA,1043,5.875,654,0.484986472,1044,"BOI","-","-","Please name all of the ways you could use this object. Keep in mind that one object can have many uses. Separate your responses with a comma.",NA,"y",5943,NA,NA,4081,4989,NA,NA,NA,"driving",1
"MJW","zpljow6bls","BOI Norms",1,17,"2022-01-20T17:58:28+00:00",87.716910123825,10,"updated stim.csv","Version35.csv","Version 35","List 35","nurse",NA,1033,5.130434783,1786,0.42839703,1034,"BOI","-","-","Please name all of the ways you could use this object. Keep in mind that one object can have many uses. Separate your responses with a comma.",NA,"y",86963,NA,NA,25349,85427,NA,NA,NA,"medical advise ",1
"MJW","zpljow6bls","BOI Norms",1,18,"2022-01-20T17:58:56+00:00",27.89278793335,10,"updated stim.csv","Version35.csv","Version 35","List 35","shortcake",NA,1030,5.846153846,2357,0.658470232,1031,"BOI","-","-","Please name all of the ways you could use this object. Keep in mind that one object can have many uses. Separate your responses with a comma.",NA,"y",27417,NA,NA,11259,25058,NA,NA,NA,"strawberries, cookies",1
"MJW","zpljow6bls","BOI Norms",1,19,"2022-01-20T17:59:12+00:00",16.44810795784,10,"updated stim.csv","Version35.csv","Version 35","List 35","watch",NA,1041,5.269230769,2905,0.235496905,1042,"BOI","-","-","Please name all of the ways you could use this object. Keep in mind that one object can have many uses. Separate your responses with a comma.",NA,"y",15999,NA,NA,3763,7965,NA,NA,NA,"eyes, time",1
"MJW","zpljow6bls","BOI Norms",1,20,"2022-01-20T17:59:51+00:00",39.003885984421,10,"updated stim.csv","Version35.csv","Version 35","List 35","receipt",NA,1028,5.28,2143,0.827374267,1029,"BOI","-","-","Please name all of the ways you could use this object. Keep in mind that one object can have many uses. Separate your responses with a comma.",NA,"y",38536,NA,NA,3121,36989,NA,NA,NA,"return items, proof of purchase, survey codes",1
"MJW","zpljow6bls","BOI Norms",1,21,"2022-01-20T18:00:22+00:00",30.514394044876,10,"updated stim.csv","Version35.csv","Version 35","List 35","genitalia",NA,1034,5.64,1096,0.737455521,1035,"BOI","-","-","Please name all of the ways you could use this object. Keep in mind that one object can have many uses. Separate your responses with a comma.",NA,"y",30086,NA,NA,9828,27941,NA,NA,NA,"pleasure, reproduction",1
"MJW","zpljow6bls","BOI Norms",1,22,"2022-01-20T18:01:19+00:00",57.004417896271,10,"updated stim.csv","Version35.csv","Version 35","List 35","fountain",NA,1049,5.208333333,1050,0.633891842,1050,"BOI","-","-","Please name all of the ways you could use this object. Keep in mind that one object can have many uses. Separate your responses with a comma.",NA,"y",56560,NA,NA,11194,45233,NA,NA,NA,"lake, mall, chocolate",1
"MJW","zpljow6bls","BOI Norms",1,23,"2022-01-20T18:01:45+00:00",25.775261163712,10,"updated stim.csv","Version35.csv","Version 35","List 35","slipcover",NA,1036,5.409090909,2415,0.202075766,1037,"BOI","-","-","Please name all of the ways you could use this object. Keep in mind that one object can have many uses. Separate your responses with a comma.",NA,"y",25264,NA,NA,2689,20146,NA,NA,NA,"couch, books, chairs ",1
"MJW","zpljow6bls","BOI Norms",1,24,"2022-01-20T18:02:33+00:00",47.964202880859,10,"updated stim.csv","Version35.csv","Version 35","List 35","partner",NA,1037,5.230769231,1879,0.171448302,1038,"BOI","-","-","Please name all of the ways you could use this object. Keep in mind that one object can have many uses. Separate your responses with a comma.",NA,"y",46979,NA,NA,4385,43500,NA,NA,NA,"dancing, marriage, business, teaching, working ",1
"MJW","zpljow6bls","BOI Norms",1,25,"2022-01-20T18:03:32+00:00",59.349725961685,10,"updated stim.csv","Version35.csv","Version 35","List 35","watchmaker",NA,1050,4.56,2908,0.381450512,1051,"BOI","-","-","Please name all of the ways you could use this object. Keep in mind that one object can have many uses. Separate your responses with a comma.",NA,"y",58853,NA,NA,47177,57299,NA,NA,NA,"repair clocks",1
"MJW","zpljow6bls","BOI Norms",1,26,"2022-01-20T18:04:39+00:00",67.369944095612,10,"updated stim.csv","Version35.csv","Version 35","List 35","stethoscope",NA,1031,5.8,2533,0.032379282,1032,"BOI","-","-","Please name all of the ways you could use this object. Keep in mind that one object can have many uses. Separate your responses with a comma.",NA,"y",66445,NA,NA,8815,65193,NA,NA,NA,"listen for heart beats, lung functions, mechanic work",1
"MJW","zpljow6bls","BOI Norms",1,27,"2022-01-20T18:05:08+00:00",28.8301820755,10,"updated stim.csv","Version35.csv","Version 35","List 35","goat",NA,1045,4.8,1122,0.331985791,1046,"BOI","-","-","Please name all of the ways you could use this object. Keep in mind that one object can have many uses. Separate your responses with a comma.",NA,"y",28339,NA,NA,6778,24926,NA,NA,NA,"milk, cheese, pet, food, 4H projects",1
"MJW","zpljow6bls","BOI Norms",1,28,"2022-01-20T18:06:38+00:00",89.649801015854,10,"updated stim.csv","Version35.csv","Version 35","List 35","encyclopedia",NA,1042,6.16,906,0.733115728,1043,"BOI","-","-","Please name all of the ways you could use this object. Keep in mind that one object can have many uses. Separate your responses with a comma.",NA,"y",88899,NA,NA,57082,88018,NA,NA,NA,"information",1
"MJW","zpljow6bls","BOI Norms",1,29,"2022-01-20T18:07:44+00:00",66.404438018799,10,"updated stim.csv","Version35.csv","Version 35","List 35","caseworker",NA,1039,4.32,447,0.044631855,1040,"BOI","-","-","Please name all of the ways you could use this object. Keep in mind that one object can have many uses. Separate your responses with a comma.",NA,"y",65515,NA,NA,8480,63175,NA,NA,NA,"adoption, insurance, union,",1
"MJW","zpljow6bls","BOI Norms",1,30,"2022-01-20T18:08:30+00:00",45.284408807755,10,"updated stim.csv","Version35.csv","Version 35","List 35","neck",NA,1032,6.12,1738,0.15096981,1033,"BOI","-","-","Please name all of the ways you could use this object. Keep in mind that one object can have many uses. Separate your responses with a comma.",NA,"y",42459,NA,NA,8304,41650,NA,NA,NA,"massage, strangle, break",1
"MJW","zpljow6bls","BOI Norms",1,31,"2022-01-20T18:08:51+00:00",21.048283100128,10,"updated stim.csv","Version35.csv","Version 35","List 35","lint",NA,1048,5.04,1520,0.72200839,1049,"BOI","-","-","Please name all of the ways you could use this object. Keep in mind that one object can have many uses. Separate your responses with a comma.",NA,"y",20291,NA,NA,2983,6336,NA,NA,NA,"fire starter",1
"MJW","zpljow6bls","BOI Norms",1,32,"2022-01-20T18:09:11+00:00",20.512523889542,10,"updated stim.csv","Version35.csv","Version 35","List 35","toboggan",NA,1027,5.68,2713,0.731617262,1028,"BOI","-","-","Please name all of the ways you could use this object. Keep in mind that one object can have many uses. Separate your responses with a comma.",NA,"y",20072,NA,NA,13890,17782,NA,NA,NA,"keep head warm",1
"MJW","zpljow6bls","BOI Norms",1,33,"2022-01-20T18:10:45+00:00",94.124629974365,10,"updated stim.csv","Version35.csv","Version 35","List 35","farmhand",NA,1026,4.4,948,0.830285329,1027,"BOI","-","-","Please name all of the ways you could use this object. Keep in mind that one object can have many uses. Separate your responses with a comma.",NA,"y",88044,NA,NA,23321,85032,NA,NA,NA,"care of animals, help crops, ",1
"MJW","zpljow6bls","BOI Norms",1,34,"2022-01-20T18:10:56+00:00",11.124438047409,10,"updated stim.csv","Version35.csv","Version 35","List 35","crumpet",NA,1021,5.136363636,715,0.332334364,1022,"BOI","-","-","Please name all of the ways you could use this object. Keep in mind that one object can have many uses. Separate your responses with a comma.",NA,"y",10343,NA,NA,6284,8819,NA,NA,NA,"snack",1
"MJW","zpljow6bls","BOI Norms",1,35,"2022-01-20T18:12:45+00:00",108.63592910767,10,"updated stim.csv","Version35.csv","Version 35","List 35","machetes",NA,1040,5.260869565,1566,0.890397938,1041,"BOI","-","-","Please name all of the ways you could use this object. Keep in mind that one object can have many uses. Separate your responses with a comma.",NA,"y",107915,NA,NA,47925,83963,NA,NA,NA,"clear undergrowth in woods, horror movies, ",1
"MJW","zpljow6bls","BOI Norms",1,36,"2022-01-20T18:13:17+00:00",32.359360933304,10,"updated stim.csv","Version35.csv","Version 35","List 35","cream",NA,1035,5.153846154,688,0.561859435,1036,"BOI","-","-","Please name all of the ways you could use this object. Keep in mind that one object can have many uses. Separate your responses with a comma.",NA,"y",31880,NA,NA,4836,23841,NA,NA,NA,"coffee, tea, ",1
"MJW","zpljow6bls","BOI Norms",1,37,"2022-01-20T18:13:57+00:00",39.362174034119,10,"updated stim.csv","Version35.csv","Version 35","List 35","workbook",NA,1029,5.703703704,2969,0.59413977,1030,"BOI","-","-","Please name all of the ways you could use this object. Keep in mind that one object can have many uses. Separate your responses with a comma.",NA,"y",38933,NA,NA,6914,7924,NA,NA,NA,"math, ",1
"MJW","zpljow6bls","BOI Norms",1,38,"2022-01-20T18:14:40+00:00",43.209415912628,10,"updated stim.csv","Version35.csv","Version 35","List 35","scar",NA,1025,4.608695652,2266,0.369745255,1026,"BOI","-","-","Please name all of the ways you could use this object. Keep in mind that one object can have many uses. Separate your responses with a comma.",NA,"y",42781,NA,NA,10925,36554,NA,NA,NA,"identifying marks on body ",1
"MJW","zpljow6bls","BOI Norms",1,39,"2022-01-20T18:15:17+00:00",36.666579008102,10,"updated stim.csv","Version35.csv","Version 35","List 35","coke",NA,1023,6.2,596,0.089822276,1024,"BOI","-","-","Please name all of the ways you could use this object. Keep in mind that one object can have many uses. Separate your responses with a comma.",NA,"y",36269,NA,NA,4612,34119,NA,NA,NA,"drink, slushy, drug for snorting",1
"MJW","zpljow6bls","BOI Norms",1,40,"2022-01-20T18:15:43+00:00",26.653445959091,10,"updated stim.csv","Version35.csv","Version 35","List 35","Toilet",NA,1024,6.368918919,2719,0.789000486,1025,"BOI","-","-","Please name all of the ways you could use this object. Keep in mind that one object can have many uses. Separate your responses with a comma.",NA,"y",26146,NA,NA,21886,25241,NA,NA,NA,"pee, poop",1
"w10006935_dmb","35i4vc4679","BOI Norms",1,11,"2021-11-09T05:36:58+00:00",13.753826856613,2,"updated stim.csv","Version27.csv","Version 27","List 27","kaleidoscope",NA,784,5.84,1400,0.135806024,785,"BOI","-","-","Please name all of the ways you could use this object. Keep in mind that one object can have many uses. Separate your responses with a comma.",NA,"y",12311,NA,NA,5322,8824,NA,NA,NA,"see things, colors, ",1
"w10006935_dmb","35i4vc4679","BOI Norms",1,12,"2021-11-09T05:37:16+00:00",18.268802165985,2,"updated stim.csv","Version27.csv","Version 27","List 27","fondue",NA,794,4.92,1026,0.74868349,795,"BOI","-","-","Please name all of the ways you could use this object. Keep in mind that one object can have many uses. Separate your responses with a comma.",NA,"y",18072,NA,NA,3610,16145,NA,NA,NA,"cover food, warm food, ",1
"w10006935_dmb","35i4vc4679","BOI Norms",1,13,"2021-11-09T05:37:27+00:00",10.838311910629,2,"updated stim.csv","Version27.csv","Version 27","List 27","foxhound",NA,781,4.347826087,1052,0.132476574,782,"BOI","-","-","Please name all of the ways you could use this object. Keep in mind that one object can have many uses. Separate your responses with a comma.",NA,"y",10626,NA,NA,4441,9072,NA,NA,NA,"hunt, sleep, walk ",1
"w10006935_dmb","35i4vc4679","BOI Norms",1,14,"2021-11-09T05:37:43+00:00",16.484393119812,2,"updated stim.csv","Version27.csv","Version 27","List 27","mothball",NA,796,5.12,1691,0.964691263,797,"BOI","-","-","Please name all of the ways you could use this object. Keep in mind that one object can have many uses. Separate your responses with a comma.",NA,"y",16262,NA,NA,2394,16032,NA,NA,NA,"for the drier, help with smelks",1
"w10006935_dmb","35i4vc4679","BOI Norms",1,15,"2021-11-09T05:37:55+00:00",12.054812908173,2,"updated stim.csv","Version27.csv","Version 27","List 27","vermicelli",NA,806,5.571428571,2850,0.748756613,807,"BOI","-","-","Please name all of the ways you could use this object. Keep in mind that one object can have many uses. Separate your responses with a comma.",NA,"y",11881,NA,NA,5431,11544,NA,NA,NA,"i don't know what this is",1
"w10006935_dmb","35i4vc4679","BOI Norms",1,16,"2021-11-09T05:38:12+00:00",16.885303974152,2,"updated stim.csv","Version27.csv","Version 27","List 27","father",NA,788,6.035714286,951,0.177455126,789,"BOI","-","-","Please name all of the ways you could use this object. Keep in mind that one object can have many uses. Separate your responses with a comma.",NA,"y",16578,NA,NA,7161,16354,NA,NA,NA,"money, emotions, help, family",1
"w10006935_dmb","35i4vc4679","BOI Norms",1,17,"2021-11-09T05:38:30+00:00",17.413774013519,2,"updated stim.csv","Version27.csv","Version 27","List 27","subway",NA,805,5,2577,0.98227085,806,"BOI","-","-","Please name all of the ways you could use this object. Keep in mind that one object can have many uses. Separate your responses with a comma.",NA,"y",17190,NA,NA,2331,13276,NA,NA,NA,"the sandwhich place, travel, train,",1
"w10006935_dmb","35i4vc4679","BOI Norms",1,18,"2021-11-09T05:38:40+00:00",10.183494091034,2,"updated stim.csv","Version27.csv","Version 27","List 27","bunkmate",NA,791,4.458333333,362,0.990824712,792,"BOI","-","-","Please name all of the ways you could use this object. Keep in mind that one object can have many uses. Separate your responses with a comma.",NA,"y",10004,NA,NA,4296,8521,NA,NA,NA,"roommate, friend",1
"w10006935_dmb","35i4vc4679","BOI Norms",1,19,"2021-11-09T05:38:54+00:00",14.394431829453,2,"updated stim.csv","Version27.csv","Version 27","List 27","townsfolk",NA,798,4.583333333,2748,0.970426414,799,"BOI","-","-","Please name all of the ways you could use this object. Keep in mind that one object can have many uses. Separate your responses with a comma.",NA,"y",14225,NA,NA,4070,13911,NA,NA,NA,"neighbors, support system",1
"w10006935_dmb","35i4vc4679","BOI Norms",1,20,"2021-11-09T05:39:19+00:00",24.270250082016,2,"updated stim.csv","Version27.csv","Version 27","List 27","appliance",NA,807,5.791666667,62,0.769783422,808,"BOI","-","-","Please name all of the ways you could use this object. Keep in mind that one object can have many uses. Separate your responses with a comma.",NA,"y",24096,NA,NA,9001,23808,NA,NA,NA,"heat things, cool things, cook things, clean",1
"w10006935_dmb","35i4vc4679","BOI Norms",1,21,"2021-11-09T05:39:47+00:00",28.848237991333,2,"updated stim.csv","Version27.csv","Version 27","List 27","cherry",NA,804,5.454545455,511,0.321321714,805,"BOI","-","-","Please name all of the ways you could use this object. Keep in mind that one object can have many uses. Separate your responses with a comma.",NA,"y",28672,NA,NA,2201,23974,NA,NA,NA,"the top of something, cherry pie",1
"w10006935_dmb","35i4vc4679","BOI Norms",1,22,"2021-11-09T05:40:02+00:00",14.651617050171,2,"updated stim.csv","Version27.csv","Version 27","List 27","lingerie",NA,790,5.72,1518,0.572115886,791,"BOI","-","-","Please name all of the ways you could use this object. Keep in mind that one object can have many uses. Separate your responses with a comma.",NA,"y",14186,NA,NA,3914,13736,NA,NA,NA,"to feel sexy, boost self esteem",1
"w10006935_dmb","35i4vc4679","BOI Norms",1,23,"2021-11-09T05:40:23+00:00",21.284399032593,2,"updated stim.csv","Version27.csv","Version 27","List 27","skin",NA,789,6.16,2399,0.020886724,790,"BOI","-","-","Please name all of the ways you could use this object. Keep in mind that one object can have many uses. Separate your responses with a comma.",NA,"y",21023,NA,NA,6505,19246,NA,NA,NA,"differnt animations on game, protection, ",1
"w10006935_dmb","35i4vc4679","BOI Norms",1,24,"2021-11-09T05:40:35+00:00",11.813048839569,2,"updated stim.csv","Version27.csv","Version 27","List 27","breastbone",NA,785,5.318181818,313,0.603483153,786,"BOI","-","-","Please name all of the ways you could use this object. Keep in mind that one object can have many uses. Separate your responses with a comma.",NA,"y",11633,NA,NA,2924,8842,NA,NA,NA,"sternum, protection",1
"w10006935_dmb","35i4vc4679","BOI Norms",1,25,"2021-11-09T05:40:58+00:00",22.363161087036,2,"updated stim.csv","Version27.csv","Version 27","List 27","receipts",NA,795,5.04,2144,0.953062768,796,"BOI","-","-","Please name all of the ways you could use this object. Keep in mind that one object can have many uses. Separate your responses with a comma.",NA,"y",22200,NA,NA,4009,22018,NA,NA,NA,"keep track of things, prove price, proof of purchase",1
"w10006935_dmb","35i4vc4679","BOI Norms",1,26,"2021-11-09T05:41:15+00:00",17.072632074356,2,"updated stim.csv","Version27.csv","Version 27","List 27","bum",NA,782,4.346153846,357,0.688986044,783,"BOI","-","-","Please name all of the ways you could use this object. Keep in mind that one object can have many uses. Separate your responses with a comma.",NA,"y",16904,NA,NA,2376,11659,NA,NA,NA,"butt, someone who is lazy",1
"w10006935_dmb","35i4vc4679","BOI Norms",1,27,"2021-11-09T05:41:21+00:00",5.9722428321838,2,"updated stim.csv","Version27.csv","Version 27","List 27","fridge",NA,786,6.166666667,1056,0.464283559,787,"BOI","-","-","Please name all of the ways you could use this object. Keep in mind that one object can have many uses. Separate your responses with a comma.",NA,"y",5752,NA,NA,1768,4221,NA,NA,NA,"keep things cold",1
"w10006935_dmb","35i4vc4679","BOI Norms",1,28,"2021-11-09T05:41:29+00:00",8.3473131656647,2,"updated stim.csv","Version27.csv","Version 27","List 27","billfold",NA,793,5.444444444,215,0.982545765,794,"BOI","-","-","Please name all of the ways you could use this object. Keep in mind that one object can have many uses. Separate your responses with a comma.",NA,"y",8177,NA,NA,3403,7694,NA,NA,NA,"don't know what this is",1
"w10006935_dmb","35i4vc4679","BOI Norms",1,29,"2021-11-09T05:41:45+00:00",16.321517944336,2,"updated stim.csv","Version27.csv","Version 27","List 27","marshmallow",NA,797,6.173913043,1611,0.341569418,798,"BOI","-","-","Please name all of the ways you could use this object. Keep in mind that one object can have many uses. Separate your responses with a comma.",NA,"y",16129,NA,NA,3282,15891,NA,NA,NA,"snack, smores, hold things together",1
"w10006935_dmb","35i4vc4679","BOI Norms",1,30,"2021-11-09T05:41:54+00:00",8.605917930603,2,"updated stim.csv","Version27.csv","Version 27","List 27","housekeeper",NA,801,4.458333333,1331,0.888029545,802,"BOI","-","-","Please name all of the ways you could use this object. Keep in mind that one object can have many uses. Separate your responses with a comma.",NA,"y",8417,NA,NA,2320,8129,NA,NA,NA,"maid, keep things clean",1
"w10006935_dmb","35i4vc4679","BOI Norms",1,31,"2021-11-09T05:42:04+00:00",10.283684015274,2,"updated stim.csv","Version27.csv","Version 27","List 27","bug",NA,787,5.296296296,347,0.872982747,788,"BOI","-","-","Please name all of the ways you could use this object. Keep in mind that one object can have many uses. Separate your responses with a comma.",NA,"y",10133,NA,NA,6209,9461,NA,NA,NA,"kill other bugs",1
"w10006935_dmb","35i4vc4679","BOI Norms",1,32,"2021-11-09T05:42:09+00:00",4.5676779747009,2,"updated stim.csv","Version27.csv","Version 27","List 27","Grasshopper",NA,810,4.753721245,1161,0.631524214,811,"BOI","-","-","Please name all of the ways you could use this object. Keep in mind that one object can have many uses. Separate your responses with a comma.",NA,"y",4398,NA,NA,1763,3515,NA,NA,NA,"eat flies",1
"w10006935_dmb","35i4vc4679","BOI Norms",1,33,"2021-11-09T05:42:16+00:00",7.3351600170135,2,"updated stim.csv","Version27.csv","Version 27","List 27","flagpole",NA,802,4.785714286,996,0.453208027,803,"BOI","-","-","Please name all of the ways you could use this object. Keep in mind that one object can have many uses. Separate your responses with a comma.",NA,"y",7174,NA,NA,1925,6978,NA,NA,NA,"hold flag, base in tag",1
"w10006935_dmb","35i4vc4679","BOI Norms",1,34,"2021-11-09T05:42:23+00:00",7.4112370014191,2,"updated stim.csv","Version27.csv","Version 27","List 27","sedative",NA,800,4.416666667,2307,0.365305689,801,"BOI","-","-","Please name all of the ways you could use this object. Keep in mind that one object can have many uses. Separate your responses with a comma.",NA,"y",7214,NA,NA,2027,6993,NA,NA,NA,"go to sleep, calm down",1
"w10006935_dmb","35i4vc4679","BOI Norms",1,35,"2021-11-09T05:42:36+00:00",12.138236999512,2,"updated stim.csv","Version27.csv","Version 27","List 27","gambler",NA,792,4.416666667,1070,0.425400379,793,"BOI","-","-","Please name all of the ways you could use this object. Keep in mind that one object can have many uses. Separate your responses with a comma.",NA,"y",11983,NA,NA,3643,11799,NA,NA,NA,"make money, avoid problems",1
"w10006935_dmb","35i4vc4679","BOI Norms",1,36,"2021-11-09T05:42:48+00:00",12.000414133072,2,"updated stim.csv","Version27.csv","Version 27","List 27","daiquiri",NA,799,5.454545455,749,0.644735907,800,"BOI","-","-","Please name all of the ways you could use this object. Keep in mind that one object can have many uses. Separate your responses with a comma.",NA,"y",11837,NA,NA,2115,11592,NA,NA,NA,"to drink, have fun, forget about something",1
"w10006935_dmb","35i4vc4679","BOI Norms",1,37,"2021-11-09T05:42:55+00:00",7.5476977825165,2,"updated stim.csv","Version27.csv","Version 27","List 27","intercom",NA,809,4.695652174,1363,0.853702441,810,"BOI","-","-","Please name all of the ways you could use this object. Keep in mind that one object can have many uses. Separate your responses with a comma.",NA,"y",7389,NA,NA,1519,7231,NA,NA,NA,"talk to lots of people",1
"w10006935_dmb","35i4vc4679","BOI Norms",1,38,"2021-11-09T05:43:09+00:00",13.639292001724,2,"updated stim.csv","Version27.csv","Version 27","List 27","electronics",NA,783,5.12,899,0.638186534,784,"BOI","-","-","Please name all of the ways you could use this object. Keep in mind that one object can have many uses. Separate your responses with a comma.",NA,"y",13463,NA,NA,3684,13297,NA,NA,NA,"heat, cool, communication, internet",1
"w10006935_dmb","35i4vc4679","BOI Norms",1,39,"2021-11-09T05:43:15+00:00",6.4031112194061,2,"updated stim.csv","Version27.csv","Version 27","List 27","apricot",NA,808,6.291666667,66,0.995280621,809,"BOI","-","-","Please name all of the ways you could use this object. Keep in mind that one object can have many uses. Separate your responses with a comma.",NA,"y",6240,NA,NA,2827,5518,NA,NA,NA,"pie, jam",1
"w10006935_dmb","35i4vc4679","BOI Norms",1,40,"2021-11-09T05:43:22+00:00",6.6205399036407,2,"updated stim.csv","Version27.csv","Version 27","List 27","scythe",NA,803,4.727272727,2293,0.081812989,804,"BOI","-","-","Please name all of the ways you could use this object. Keep in mind that one object can have many uses. Separate your responses with a comma.",NA,"y",6463,NA,NA,2675,6327,NA,NA,NA,"don't know word",1
"w10011030_rkd","xv9gl0nguv","BOI Norms",1,11,"2022-01-20T23:11:37+00:00",16.554231882095,11,"updated stim.csv","Version36.csv","Version 36","List 36","leftovers",NA,1070,5.625,1485,0.349934709,1071,"BOI","-","-","Please name all of the ways you could use this object. Keep in mind that one object can have many uses. Separate your responses with a comma.",NA,"y",16112,NA,NA,1835,15133,NA,NA,NA,"eating, reheating, putting up in the fridge, throwing out",1
"w10011030_rkd","xv9gl0nguv","BOI Norms",1,12,"2022-01-20T23:12:17+00:00",40.286559104919,11,"updated stim.csv","Version36.csv","Version 36","List 36","lambskin",NA,1055,4.416666667,1454,0.690896227,1056,"BOI","-","-","Please name all of the ways you could use this object. Keep in mind that one object can have many uses. Separate your responses with a comma.",NA,"y",40033,NA,NA,33721,38281,NA,NA,NA,"wearing as a jacket",1
"w10011030_rkd","xv9gl0nguv","BOI Norms",1,13,"2022-01-20T23:12:46+00:00",28.425497055054,11,"updated stim.csv","Version36.csv","Version 36","List 36","curler",NA,1068,4.454545455,730,0.741093099,1069,"BOI","-","-","Please name all of the ways you could use this object. Keep in mind that one object can have many uses. Separate your responses with a comma.",NA,"y",28226,NA,NA,1539,27397,NA,NA,NA,"curling hair, turning on/off curlers, holding hair in place",1
"w10011030_rkd","xv9gl0nguv","BOI Norms",1,14,"2022-01-20T23:13:23+00:00",37.960532903671,11,"updated stim.csv","Version36.csv","Version 36","List 36","manicure",NA,1080,4.730769231,1590,0.1995438,1081,"BOI","-","-","Please name all of the ways you could use this object. Keep in mind that one object can have many uses. Separate your responses with a comma.",NA,"y",37611,NA,NA,3792,36493,NA,NA,NA,"painting nails, scrubbing skin, cutting back cuticles, bonding with friends, spoiling oneself",1
"w10011030_rkd","xv9gl0nguv","BOI Norms",1,15,"2022-01-20T23:14:04+00:00",40.357397079468,11,"updated stim.csv","Version36.csv","Version 36","List 36","evergreen",NA,1078,4.444444444,923,0.294521341,1079,"BOI","-","-","Please name all of the ways you could use this object. Keep in mind that one object can have many uses. Separate your responses with a comma.",NA,"y",40143,NA,NA,28683,39065,NA,NA,NA,"plant, decorating for Christmas, essential oil, scent",1
"w10011030_rkd","xv9gl0nguv","BOI Norms",1,16,"2022-01-20T23:15:07+00:00",62.680934906006,11,"updated stim.csv","Version36.csv","Version 36","List 36","alfalfa",NA,1073,5.045454545,26,0.1332912,1074,"BOI","-","-","Please name all of the ways you could use this object. Keep in mind that one object can have many uses. Separate your responses with a comma.",NA,"y",62052,NA,NA,5041,61117,NA,NA,NA,"herb, food for livestock animals, garnish, herbal medicine",1
"w10011030_rkd","xv9gl0nguv","BOI Norms",1,17,"2022-01-20T23:15:32+00:00",25.761016130447,11,"updated stim.csv","Version36.csv","Version 36","List 36","laxative",NA,1052,5.206896552,1476,0.827402237,1053,"BOI","-","-","Please name all of the ways you could use this object. Keep in mind that one object can have many uses. Separate your responses with a comma.",NA,"y",25414,NA,NA,5450,20738,NA,NA,NA,"to clear out the stomach, aid in bloating",1
"w10011030_rkd","xv9gl0nguv","BOI Norms",1,18,"2022-01-20T23:16:05+00:00",32.506423950195,11,"updated stim.csv","Version36.csv","Version 36","List 36","woodshed",NA,1051,5.25,2964,0.210010171,1052,"BOI","-","-","Please name all of the ways you could use this object. Keep in mind that one object can have many uses. Separate your responses with a comma.",NA,"y",32312,NA,NA,25847,31440,NA,NA,NA,"storing wood and tools",1
"w10011030_rkd","xv9gl0nguv","BOI Norms",1,19,"2022-01-20T23:16:22+00:00",17.281050920486,11,"updated stim.csv","Version36.csv","Version 36","List 36","harmonica",NA,1061,6.416666667,1251,0.845063225,1062,"BOI","-","-","Please name all of the ways you could use this object. Keep in mind that one object can have many uses. Separate your responses with a comma.",NA,"y",16949,NA,NA,1985,15822,NA,NA,NA,"to make music, to entertain, to learn how to play",1
"w10011030_rkd","xv9gl0nguv","BOI Norms",1,20,"2022-01-20T23:17:00+00:00",37.82338309288,11,"updated stim.csv","Version36.csv","Version 36","List 36","motorcycle",NA,1066,5.555555556,1696,0.62938025,1067,"BOI","-","-","Please name all of the ways you could use this object. Keep in mind that one object can have many uses. Separate your responses with a comma.",NA,"y",37594,NA,NA,1547,36583,NA,NA,NA,"driving, riding, brought to motorcycle meets, bonding with other motorcycle owners, being apart of a motorcycle gang",1
"w10011030_rkd","xv9gl0nguv","BOI Norms",1,21,"2022-01-20T23:17:35+00:00",35.579707860947,11,"updated stim.csv","Version36.csv","Version 36","List 36","saltshaker",NA,1058,6,2228,0.087603339,1059,"BOI","-","-","Please name all of the ways you could use this object. Keep in mind that one object can have many uses. Separate your responses with a comma.",NA,"y",35319,NA,NA,3108,34485,NA,NA,NA,"disperse of salt, grind up salt, fill it up, can be used in restaurants and homes, cooking",1
"w10011030_rkd","xv9gl0nguv","BOI Norms",1,22,"2022-01-20T23:18:06+00:00",30.823166131973,11,"updated stim.csv","Version36.csv","Version 36","List 36","tombstone",NA,1072,5.043478261,2725,0.273275065,1073,"BOI","-","-","Please name all of the ways you could use this object. Keep in mind that one object can have many uses. Separate your responses with a comma.",NA,"y",30608,NA,NA,2670,29606,NA,NA,NA,"memorial at grave, engraving tombstone, place flowers on, to tell who is buried where",1
"w10011030_rkd","xv9gl0nguv","BOI Norms",1,23,"2022-01-20T23:18:54+00:00",47.891345977783,11,"updated stim.csv","Version36.csv","Version 36","List 36","telescope",NA,1059,5.916666667,2659,0.548611427,1060,"BOI","-","-","Please name all of the ways you could use this object. Keep in mind that one object can have many uses. Separate your responses with a comma.",NA,"y",47424,NA,NA,1959,46631,NA,NA,NA,"looking at stars, military usage for snipers, looking far distances",1
"w10011030_rkd","xv9gl0nguv","BOI Norms",1,24,"2022-01-20T23:19:13+00:00",19.234750986099,11,"updated stim.csv","Version36.csv","Version 36","List 36","ductwork",NA,1056,4.52173913,862,0.409527308,1057,"BOI","-","-","Please name all of the ways you could use this object. Keep in mind that one object can have many uses. Separate your responses with a comma.",NA,"y",19029,NA,NA,3593,17512,NA,NA,NA,"drainage system, rain catcher",1
"w10011030_rkd","xv9gl0nguv","BOI Norms",1,25,"2022-01-20T23:19:39+00:00",25.960602998734,11,"updated stim.csv","Version36.csv","Version 36","List 36","llama",NA,1054,4.75,1530,0.940050955,1055,"BOI","-","-","Please name all of the ways you could use this object. Keep in mind that one object can have many uses. Separate your responses with a comma.",NA,"y",25746,NA,NA,4420,24299,NA,NA,NA,"raising, animal farms, entertainment, feeding llamas",1
"w10011030_rkd","xv9gl0nguv","BOI Norms",1,26,"2022-01-20T23:20:20+00:00",40.770020961761,11,"updated stim.csv","Version36.csv","Version 36","List 36","drugstore",NA,1079,5.260869565,853,0.581825983,1080,"BOI","-","-","Please name all of the ways you could use this object. Keep in mind that one object can have many uses. Separate your responses with a comma.",NA,"y",40474,NA,NA,2087,38637,NA,NA,NA,"pick up medicine, sell general grocery supplies within the store, work for pharmacists",1
"w10011030_rkd","xv9gl0nguv","BOI Norms",1,27,"2022-01-20T23:20:42+00:00",21.822149038315,11,"updated stim.csv","Version36.csv","Version 36","List 36","mentor",NA,1053,4.347826087,1645,0.570505968,1054,"BOI","-","-","Please name all of the ways you could use this object. Keep in mind that one object can have many uses. Separate your responses with a comma.",NA,"y",21604,NA,NA,2849,19098,NA,NA,NA,"help with thesis, someone to rely on in various capacities, someone to help",1
"w10011030_rkd","xv9gl0nguv","BOI Norms",1,28,"2022-01-20T23:21:07+00:00",25.379441976547,11,"updated stim.csv","Version36.csv","Version 36","List 36","edibles",NA,1063,5.428571429,888,0.341038926,1064,"BOI","-","-","Please name all of the ways you could use this object. Keep in mind that one object can have many uses. Separate your responses with a comma.",NA,"y",25188,NA,NA,2431,23613,NA,NA,NA,"drugs, fun experience, lighter way to take drugs ",1
"w10011030_rkd","xv9gl0nguv","BOI Norms",1,29,"2022-01-20T23:21:18+00:00",10.195902109146,11,"updated stim.csv","Version36.csv","Version 36","List 36","teardrop",NA,1064,4.695652174,2651,0.380138083,1065,"BOI","-","-","Please name all of the ways you could use this object. Keep in mind that one object can have many uses. Separate your responses with a comma.",NA,"y",9663,NA,NA,4232,7450,NA,NA,NA,"crying, wiping away",1
"w10011030_rkd","xv9gl0nguv","BOI Norms",1,30,"2022-01-20T23:21:53+00:00",35.852198839188,11,"updated stim.csv","Version36.csv","Version 36","List 36","switchboard",NA,1074,4.777777778,2610,0.925747236,1075,"BOI","-","-","Please name all of the ways you could use this object. Keep in mind that one object can have many uses. Separate your responses with a comma.",NA,"y",35179,NA,NA,26829,34045,NA,NA,NA,"telephone calls, connection between telephones",1
"w10011030_rkd","xv9gl0nguv","BOI Norms",1,31,"2022-01-20T23:22:30+00:00",36.412638187408,11,"updated stim.csv","Version36.csv","Version 36","List 36","screwdriver",NA,1069,6.52173913,2287,0.220320709,1070,"BOI","-","-","Please name all of the ways you could use this object. Keep in mind that one object can have many uses. Separate your responses with a comma.",NA,"y",36179,NA,NA,1788,35402,NA,NA,NA,"construction, building things, taking out screws, putting in screws",1
"w10011030_rkd","xv9gl0nguv","BOI Norms",1,32,"2022-01-20T23:22:56+00:00",26.044559001923,11,"updated stim.csv","Version36.csv","Version 36","List 36","flashbulb",NA,1076,4.375,1001,0.629683234,1077,"BOI","-","-","Please name all of the ways you could use this object. Keep in mind that one object can have many uses. Separate your responses with a comma.",NA,"y",25463,NA,NA,6232,22888,NA,NA,NA,"for a flashlight, replacing a bulb",1
"w10011030_rkd","xv9gl0nguv","BOI Norms",1,33,"2022-01-20T23:23:23+00:00",27.308339834213,11,"updated stim.csv","Version36.csv","Version 36","List 36","ornament",NA,1062,6.181818182,1823,0.998707225,1063,"BOI","-","-","Please name all of the ways you could use this object. Keep in mind that one object can have many uses. Separate your responses with a comma.",NA,"y",27058,NA,NA,1685,25381,NA,NA,NA,"decoration, gifting, designing, painting, hanging",1
"w10011030_rkd","xv9gl0nguv","BOI Norms",1,34,"2022-01-20T23:23:50+00:00",26.707226037979,11,"updated stim.csv","Version36.csv","Version 36","List 36","vitamins",NA,1077,5.12,2870,0.952358959,1078,"BOI","-","-","Please name all of the ways you could use this object. Keep in mind that one object can have many uses. Separate your responses with a comma.",NA,"y",26499,NA,NA,3172,10518,NA,NA,NA,"a supplement, health treatments",1
"w10011030_rkd","xv9gl0nguv","BOI Norms",1,35,"2022-01-20T23:24:41+00:00",50.779390096664,11,"updated stim.csv","Version36.csv","Version 36","List 36","male",NA,1057,5.5,1581,0.27446193,1058,"BOI","-","-","Please name all of the ways you could use this object. Keep in mind that one object can have many uses. Separate your responses with a comma.",NA,"y",50580,NA,NA,9571,41824,NA,NA,NA,"raising, to date/marry, encourage, be friends with, study with, grow up with",1
"w10011030_rkd","xv9gl0nguv","BOI Norms",1,36,"2022-01-20T23:24:56+00:00",15.710585832596,11,"updated stim.csv","Version36.csv","Version 36","List 36","barber",NA,1060,4.958333333,147,0.779479627,1061,"BOI","-","-","Please name all of the ways you could use this object. Keep in mind that one object can have many uses. Separate your responses with a comma.",NA,"y",15494,NA,NA,2056,14756,NA,NA,NA,"haircut, conversation, friend, get ready for an event",1
"w10011030_rkd","xv9gl0nguv","BOI Norms",1,37,"2022-01-20T23:25:27+00:00",30.156422138214,11,"updated stim.csv","Version36.csv","Version 36","List 36","engine",NA,1065,5.333333333,908,0.128914388,1066,"BOI","-","-","Please name all of the ways you could use this object. Keep in mind that one object can have many uses. Separate your responses with a comma.",NA,"y",29955,NA,NA,1559,28988,NA,NA,NA,"car, boat, motorcycle, all other vehicles, repair, replace, runs vehicles, mechanic",1
"w10011030_rkd","xv9gl0nguv","BOI Norms",1,38,"2022-01-20T23:25:50+00:00",23.896442890167,11,"updated stim.csv","Version36.csv","Version 36","List 36","houseboat",NA,1071,4.956521739,1327,0.078689969,1072,"BOI","-","-","Please name all of the ways you could use this object. Keep in mind that one object can have many uses. Separate your responses with a comma.",NA,"y",23575,NA,NA,2637,18974,NA,NA,NA,"living space, adventurer's home, living on the water, traveling",1
"w10011030_rkd","xv9gl0nguv","BOI Norms",1,39,"2022-01-20T23:26:11+00:00",20.759467124939,11,"updated stim.csv","Version36.csv","Version 36","List 36","beagle",NA,1075,5.2,179,0.616805077,1076,"BOI","-","-","Please name all of the ways you could use this object. Keep in mind that one object can have many uses. Separate your responses with a comma.",NA,"y",20540,NA,NA,2918,19527,NA,NA,NA,"dog, companion, child to some, walk, cuddle with",1
"w10011030_rkd","xv9gl0nguv","BOI Norms",1,40,"2022-01-20T23:26:50+00:00",38.60197687149,11,"updated stim.csv","Version36.csv","Version 36","List 36","rain",NA,1067,4.958333333,2129,0.893890864,1068,"BOI","-","-","Please name all of the ways you could use this object. Keep in mind that one object can have many uses. Separate your responses with a comma.",NA,"y",38372,NA,NA,2445,37432,NA,NA,NA,"catch, slip on the road, puddles, tornadoes/hurricanes/any extreme weather event",1
"W10014082","91wz2bmvos","BOI Norms",1,11,"2021-11-14T16:39:53+00:00",15.501691818237,25,"updated stim.csv","Version50.csv","Version 50","List 50","merchant",NA,1478,4.5,1648,0.862362774,1479,"BOI","-","-","Please name all of the ways you could use this object. Keep in mind that one object can have many uses. Separate your responses with a comma.",NA,"y",15214,NA,NA,6116,13511,NA,NA,NA,"sell,barter,trade",1
"W10014082","91wz2bmvos","BOI Norms",1,12,"2021-11-14T16:40:28+00:00",35.184995174408,25,"updated stim.csv","Version50.csv","Version 50","List 50","wildcat",NA,1474,4.583333333,2938,0.77598471,1475,"BOI","-","-","Please name all of the ways you could use this object. Keep in mind that one object can have many uses. Separate your responses with a comma.",NA,"y",34830,NA,NA,28248,30142,NA,NA,NA,"mascot",1
"W10014082","91wz2bmvos","BOI Norms",1,13,"2021-11-14T16:40:53+00:00",24.688918828964,25,"updated stim.csv","Version50.csv","Version 50","List 50","forehead",NA,1475,5.777777778,1045,0.693073513,1476,"BOI","-","-","Please name all of the ways you could use this object. Keep in mind that one object can have many uses. Separate your responses with a comma.",NA,"y",23937,NA,NA,13719,14826,NA,NA,NA,"body",1
"W10014082","91wz2bmvos","BOI Norms",1,14,"2021-11-14T16:41:14+00:00",20.869140148163,25,"updated stim.csv","Version50.csv","Version 50","List 50","Ladder",NA,1497,6.117567568,1447,0.768215251,1498,"BOI","-","-","Please name all of the ways you could use this object. Keep in mind that one object can have many uses. Separate your responses with a comma.",NA,"y",19804,NA,NA,2380,15236,NA,NA,NA,"climb,store,tool",1
"W10014082","91wz2bmvos","BOI Norms",1,15,"2021-11-14T16:41:36+00:00",22.1672539711,25,"updated stim.csv","Version50.csv","Version 50","List 50","houseboy",NA,1500,4.583333333,1328,0.370650802,1501,"BOI","-","-","Please name all of the ways you could use this object. Keep in mind that one object can have many uses. Separate your responses with a comma.",NA,"y",21857,NA,NA,6216,20617,NA,NA,NA,"clean,serve,cook",1
"W10014082","91wz2bmvos","BOI Norms",1,16,"2021-11-14T16:41:55+00:00",18.738908052444,25,"updated stim.csv","Version50.csv","Version 50","List 50","pudding",NA,1496,5.958333333,2088,0.756193093,1497,"BOI","-","-","Please name all of the ways you could use this object. Keep in mind that one object can have many uses. Separate your responses with a comma.",NA,"y",18429,NA,NA,5970,7816,NA,NA,NA,"eat",1
"W10014082","91wz2bmvos","BOI Norms",1,17,"2021-11-14T16:42:18+00:00",23.918655872345,25,"updated stim.csv","Version50.csv","Version 50","List 50","sombrero",NA,1492,5.518518519,2449,0.141496717,1493,"BOI","-","-","Please name all of the ways you could use this object. Keep in mind that one object can have many uses. Separate your responses with a comma.",NA,"y",22738,NA,NA,2471,12381,NA,NA,NA,"hat",1
"W10014082","91wz2bmvos","BOI Norms",1,18,"2021-11-14T16:42:32+00:00",13.688840150833,25,"updated stim.csv","Version50.csv","Version 50","List 50","poultry",NA,1487,4.826086957,2053,0.292741478,1488,"BOI","-","-","Please name all of the ways you could use this object. Keep in mind that one object can have many uses. Separate your responses with a comma.",NA,"y",12574,NA,NA,3396,9227,NA,NA,NA,"food,livestock",1
"W10014082","91wz2bmvos","BOI Norms",1,19,"2021-11-14T16:42:47+00:00",14.37250995636,25,"updated stim.csv","Version50.csv","Version 50","List 50","saddle",NA,1499,4.954545455,2212,0.102420564,1500,"BOI","-","-","Please name all of the ways you could use this object. Keep in mind that one object can have many uses. Separate your responses with a comma.",NA,"y",13122,NA,NA,4164,11293,NA,NA,NA,"hourseback riding ",1
"W10014082","91wz2bmvos","BOI Norms",1,20,"2021-11-14T16:43:01+00:00",14.161460876465,25,"updated stim.csv","Version50.csv","Version 50","List 50","celery",NA,1484,6.086956522,471,0.206824668,1485,"BOI","-","-","Please name all of the ways you could use this object. Keep in mind that one object can have many uses. Separate your responses with a comma.",NA,"y",12817,NA,NA,3698,10961,NA,NA,NA,"eat,cook,chop",1
"W10014082","91wz2bmvos","BOI Norms",1,21,"2021-11-14T16:43:21+00:00",20.21737408638,25,"updated stim.csv","Version50.csv","Version 50","List 50","pineapple",NA,1477,6.304347826,1971,0.761657813,1478,"BOI","-","-","Please name all of the ways you could use this object. Keep in mind that one object can have many uses. Separate your responses with a comma.",NA,"y",16921,NA,NA,3555,14809,NA,NA,NA,"eat,cook,dice,grill",1
"W10014082","91wz2bmvos","BOI Norms",1,22,"2021-11-14T16:43:42+00:00",21.358675003052,25,"updated stim.csv","Version50.csv","Version 50","List 50","potato",NA,1483,5.6,2047,0.406568985,1484,"BOI","-","-","Please name all of the ways you could use this object. Keep in mind that one object can have many uses. Separate your responses with a comma.",NA,"y",20615,NA,NA,4582,19318,NA,NA,NA,"eat,cook,mash,salad,fried",1
"W10014082","91wz2bmvos","BOI Norms",1,23,"2021-11-14T16:44:09+00:00",26.841373920441,25,"updated stim.csv","Version50.csv","Version 50","List 50","grandson",NA,1486,5.785714286,1153,0.920052368,1487,"BOI","-","-","Please name all of the ways you could use this object. Keep in mind that one object can have many uses. Separate your responses with a comma.",NA,"y",26562,NA,NA,5755,21790,NA,NA,NA,"family",1
"W10014082","91wz2bmvos","BOI Norms",1,24,"2021-11-14T16:44:40+00:00",30.473750114441,25,"updated stim.csv","Version50.csv","Version 50","List 50","metal",NA,1491,5.130434783,1650,0.340369684,1492,"BOI","-","-","Please name all of the ways you could use this object. Keep in mind that one object can have many uses. Separate your responses with a comma.",NA,"y",30204,NA,NA,4113,27506,NA,NA,NA,"jewelry,architectural,base,utensils ",1
"W10014082","91wz2bmvos","BOI Norms",1,25,"2021-11-14T16:44:52+00:00",12.242416858673,25,"updated stim.csv","Version50.csv","Version 50","List 50","orange",NA,1489,5.08,1814,0.39432897,1490,"BOI","-","-","Please name all of the ways you could use this object. Keep in mind that one object can have many uses. Separate your responses with a comma.",NA,"y",10787,NA,NA,2714,9495,NA,NA,NA,"eat,peel,juice",1
"W10014082","91wz2bmvos","BOI Norms",1,26,"2021-11-14T16:45:01+00:00",8.760810136795,25,"updated stim.csv","Version50.csv","Version 50","List 50","necktie",NA,1482,6.043478261,1742,0.48846066,1483,"BOI","-","-","Please name all of the ways you could use this object. Keep in mind that one object can have many uses. Separate your responses with a comma.",NA,"y",8405,NA,NA,2472,6728,NA,NA,NA,"clothing ",1
"W10014082","91wz2bmvos","BOI Norms",1,27,"2021-11-14T16:45:15+00:00",14.852176904678,25,"updated stim.csv","Version50.csv","Version 50","List 50","cliff",NA,1494,4.64,559,0.960386824,1495,"BOI","-","-","Please name all of the ways you could use this object. Keep in mind that one object can have many uses. Separate your responses with a comma.",NA,"y",13845,NA,NA,3361,12467,NA,NA,NA,"jump,heights,view",1
"W10014082","91wz2bmvos","BOI Norms",1,28,"2021-11-14T16:45:33+00:00",17.811032056808,25,"updated stim.csv","Version50.csv","Version 50","List 50","nanny",NA,1480,4.6,1734,0.074386571,1481,"BOI","-","-","Please name all of the ways you could use this object. Keep in mind that one object can have many uses. Separate your responses with a comma.",NA,"y",17024,NA,NA,6535,15267,NA,NA,NA,"clean,watch,cook",1
"W10014082","91wz2bmvos","BOI Norms",1,29,"2021-11-14T16:45:40+00:00",6.3632020950317,25,"updated stim.csv","Version50.csv","Version 50","List 50","cent",NA,1473,5.12,477,0.762430445,1474,"BOI","-","-","Please name all of the ways you could use this object. Keep in mind that one object can have many uses. Separate your responses with a comma.",NA,"y",6052,NA,NA,2153,3689,NA,NA,NA,"money",1
"W10014082","91wz2bmvos","BOI Norms",1,30,"2021-11-14T16:45:54+00:00",14.002399921417,25,"updated stim.csv","Version50.csv","Version 50","List 50","corset",NA,1493,5.44,653,0.182805435,1494,"BOI","-","-","Please name all of the ways you could use this object. Keep in mind that one object can have many uses. Separate your responses with a comma.",NA,"y",12655,NA,NA,2621,10903,NA,NA,NA,"bodice,cinch",1
"W10014082","91wz2bmvos","BOI Norms",1,31,"2021-11-14T16:46:06+00:00",12.494584083557,25,"updated stim.csv","Version50.csv","Version 50","List 50","needle",NA,1495,5.739130435,1745,0.011099069,1496,"BOI","-","-","Please name all of the ways you could use this object. Keep in mind that one object can have many uses. Separate your responses with a comma.",NA,"y",11658,NA,NA,4227,10065,NA,NA,NA,"stitch,create",1
"W10014082","91wz2bmvos","BOI Norms",1,32,"2021-11-14T16:46:18+00:00",11.986347913742,25,"updated stim.csv","Version50.csv","Version 50","List 50","coin",NA,1485,6.4,595,0.12909015,1486,"BOI","-","-","Please name all of the ways you could use this object. Keep in mind that one object can have many uses. Separate your responses with a comma.",NA,"y",11219,NA,NA,4731,7883,NA,NA,NA,"currency",1
"W10014082","91wz2bmvos","BOI Norms",1,33,"2021-11-14T16:46:45+00:00",26.927186965942,25,"updated stim.csv","Version50.csv","Version 50","List 50","councilwoman",NA,1488,4.583333333,664,0.502846209,1489,"BOI","-","-","Please name all of the ways you could use this object. Keep in mind that one object can have many uses. Separate your responses with a comma.",NA,"y",25719,NA,NA,7445,21899,NA,NA,NA,"serve,create",1
"W10014082","91wz2bmvos","BOI Norms",1,34,"2021-11-14T16:46:59+00:00",14.103014945984,25,"updated stim.csv","Version50.csv","Version 50","List 50","muzzle",NA,1490,4.391304348,1730,0.007150831,1491,"BOI","-","-","Please name all of the ways you could use this object. Keep in mind that one object can have many uses. Separate your responses with a comma.",NA,"y",13544,NA,NA,10823,12459,NA,NA,NA,"prevent ",1
"W10014082","91wz2bmvos","BOI Norms",1,35,"2021-11-14T16:47:27+00:00",28.132720947266,25,"updated stim.csv","Version50.csv","Version 50","List 50","shavings",NA,1498,4.6,2325,0.943267903,1499,"BOI","-","-","Please name all of the ways you could use this object. Keep in mind that one object can have many uses. Separate your responses with a comma.",NA,"y",16225,NA,NA,8869,14977,NA,NA,NA,"razor,peeler",1
"W10014082","91wz2bmvos","BOI Norms",1,36,"2021-11-14T16:47:36+00:00",8.6582159996033,25,"updated stim.csv","Version50.csv","Version 50","List 50","joystick",NA,1472,6.12,1392,0.982163105,1473,"BOI","-","-","Please name all of the ways you could use this object. Keep in mind that one object can have many uses. Separate your responses with a comma.",NA,"y",8118,NA,NA,3072,5753,NA,NA,NA,"game,play",1
"W10014082","91wz2bmvos","BOI Norms",1,37,"2021-11-14T16:47:48+00:00",11.729463100433,25,"updated stim.csv","Version50.csv","Version 50","List 50","drywall",NA,1481,5.208333333,858,0.569608208,1482,"BOI","-","-","Please name all of the ways you could use this object. Keep in mind that one object can have many uses. Separate your responses with a comma.",NA,"y",11390,NA,NA,4296,10117,NA,NA,NA,"build, destroy",1
"W10014082","91wz2bmvos","BOI Norms",1,38,"2021-11-14T16:48:01+00:00",12.906892061234,25,"updated stim.csv","Version50.csv","Version 50","List 50","pullover",NA,1476,4.56,2093,0.876188413,1477,"BOI","-","-","Please name all of the ways you could use this object. Keep in mind that one object can have many uses. Separate your responses with a comma.",NA,"y",12539,NA,NA,4917,11264,NA,NA,NA,"hoodie,roadside ",1
"W10014082","91wz2bmvos","BOI Norms",1,39,"2021-11-14T16:48:08+00:00",7.6501040458679,25,"updated stim.csv","Version50.csv","Version 50","List 50","shallot",NA,1479,5.380952381,2319,0.326027795,1480,"BOI","-","-","Please name all of the ways you could use this object. Keep in mind that one object can have many uses. Separate your responses with a comma.",NA,"y",7365,NA,NA,2381,5489,NA,NA,NA,"food",1
"W10014082","91wz2bmvos","BOI Norms",1,40,"2021-11-14T16:48:17+00:00",8.816428899765,25,"updated stim.csv","Version50.csv","Version 50","List 50","geranium",NA,1471,4.695652174,1099,0.007035307,1472,"BOI","-","-","Please name all of the ways you could use this object. Keep in mind that one object can have many uses. Separate your responses with a comma.",NA,"y",7723,NA,NA,5171,6401,NA,NA,NA,"mineral",1
"w10022292_BL","n2a9ftwexd","BOI Norms",1,11,"2021-11-12T16:18:32+00:00",23.084277153015,21,"updated stim.csv","Version46.csv","Version 46","List 46","pompom",NA,1378,5.16,2027,0.794000426,1379,"BOI","-","-","Please name all of the ways you could use this object. Keep in mind that one object can have many uses. Separate your responses with a comma.",NA,"y",22945,NA,NA,1952,20801,NA,NA,NA,"shook, thrown, ",1
"w10022292_BL","n2a9ftwexd","BOI Norms",1,12,"2021-11-12T16:18:43+00:00",10.117914915085,21,"updated stim.csv","Version46.csv","Version 46","List 46","pump",NA,1365,4.347826087,2096,0.763080975,1366,"BOI","-","-","Please name all of the ways you could use this object. Keep in mind that one object can have many uses. Separate your responses with a comma.",NA,"y",9972,NA,NA,2318,9180,NA,NA,NA,"fuel, air up, blow up",1
"w10022292_BL","n2a9ftwexd","BOI Norms",1,13,"2021-11-12T16:19:02+00:00",19.286966085434,21,"updated stim.csv","Version46.csv","Version 46","List 46","washbowl",NA,1374,5.692307692,2897,0.33341444,1375,"BOI","-","-","Please name all of the ways you could use this object. Keep in mind that one object can have many uses. Separate your responses with a comma.",NA,"y",19133,NA,NA,4973,18522,NA,NA,NA,"wash",1
"w10022292_BL","n2a9ftwexd","BOI Norms",1,14,"2021-11-12T16:19:19+00:00",16.642827987671,21,"updated stim.csv","Version46.csv","Version 46","List 46","saleswoman",NA,1362,4.608695652,2223,0.294600073,1363,"BOI","-","-","Please name all of the ways you could use this object. Keep in mind that one object can have many uses. Separate your responses with a comma.",NA,"y",16491,NA,NA,6954,15449,NA,NA,NA,"sell, talk to, inform",1
"w10022292_BL","n2a9ftwexd","BOI Norms",1,15,"2021-11-12T16:19:24+00:00",5.7738709449768,21,"updated stim.csv","Version46.csv","Version 46","List 46","quarter",NA,1366,5.333333333,2110,0.584780359,1367,"BOI","-","-","Please name all of the ways you could use this object. Keep in mind that one object can have many uses. Separate your responses with a comma.",NA,"y",5625,NA,NA,2954,3404,NA,NA,NA,"buy",1
"w10022292_BL","n2a9ftwexd","BOI Norms",1,16,"2021-11-12T16:19:38+00:00",13.460248947144,21,"updated stim.csv","Version46.csv","Version 46","List 46","gardener",NA,1361,4.958333333,1077,0.252611858,1362,"BOI","-","-","Please name all of the ways you could use this object. Keep in mind that one object can have many uses. Separate your responses with a comma.",NA,"y",13313,NA,NA,5411,12505,NA,NA,NA,"yard work, watering",1
"w10022292_BL","n2a9ftwexd","BOI Norms",1,17,"2021-11-12T16:19:56+00:00",17.92014503479,21,"updated stim.csv","Version46.csv","Version 46","List 46","vitamin",NA,1357,5.2,2869,0.600548125,1358,"BOI","-","-","Please name all of the ways you could use this object. Keep in mind that one object can have many uses. Separate your responses with a comma.",NA,"y",17770,NA,NA,2818,16795,NA,NA,NA,"take, for health",1
"w10022292_BL","n2a9ftwexd","BOI Norms",1,18,"2021-11-12T16:20:08+00:00",12.799783945084,21,"updated stim.csv","Version46.csv","Version 46","List 46","arachnid",NA,1368,4.904761905,69,0.222506784,1369,"BOI","-","-","Please name all of the ways you could use this object. Keep in mind that one object can have many uses. Separate your responses with a comma.",NA,"y",12656,NA,NA,3847,12355,NA,NA,NA,"step on, put outside",1
"w10022292_BL","n2a9ftwexd","BOI Norms",1,19,"2021-11-12T16:20:15+00:00",6.5109939575195,21,"updated stim.csv","Version46.csv","Version 46","List 46","treasure",NA,1369,4.666666667,2770,0.74270849,1370,"BOI","-","-","Please name all of the ways you could use this object. Keep in mind that one object can have many uses. Separate your responses with a comma.",NA,"y",6370,NA,NA,1657,5996,NA,NA,NA,"hunt, find, look for",1
"w10022292_BL","n2a9ftwexd","BOI Norms",1,20,"2021-11-12T16:20:18+00:00",3.2660419940948,21,"updated stim.csv","Version46.csv","Version 46","List 46","footpad",NA,1370,5.041666667,1036,0.053650831,1371,"BOI","-","-","Please name all of the ways you could use this object. Keep in mind that one object can have many uses. Separate your responses with a comma.",NA,"y",3122,NA,NA,-1,-1,NA,NA,NA,"",1
"w10022292_BL","n2a9ftwexd","BOI Norms",1,21,"2021-11-12T16:20:23+00:00",4.7882800102234,21,"updated stim.csv","Version46.csv","Version 46","List 46","bouquet",NA,1352,4.909090909,289,0.993143175,1353,"BOI","-","-","Please name all of the ways you could use this object. Keep in mind that one object can have many uses. Separate your responses with a comma.",NA,"y",4654,NA,NA,1985,4035,NA,NA,NA,"hold, make",1
"w10022292_BL","n2a9ftwexd","BOI Norms",1,22,"2021-11-12T16:20:31+00:00",8.1564130783081,21,"updated stim.csv","Version46.csv","Version 46","List 46","broth",NA,1360,5.321428571,334,0.63743797,1361,"BOI","-","-","Please name all of the ways you could use this object. Keep in mind that one object can have many uses. Separate your responses with a comma.",NA,"y",8040,NA,NA,3465,6482,NA,NA,NA,"slurp, eat",1
"w10022292_BL","n2a9ftwexd","BOI Norms",1,23,"2021-11-12T16:20:38+00:00",7.1079640388489,21,"updated stim.csv","Version46.csv","Version 46","List 46","flute",NA,1367,5.75,1019,0.500044032,1368,"BOI","-","-","Please name all of the ways you could use this object. Keep in mind that one object can have many uses. Separate your responses with a comma.",NA,"y",6969,NA,NA,1757,4382,NA,NA,NA,"play",1
"w10022292_BL","n2a9ftwexd","BOI Norms",1,24,"2021-11-12T16:20:47+00:00",9.108246088028,21,"updated stim.csv","Version46.csv","Version 46","List 46","muscle",NA,1354,5.12,1721,0.267441686,1355,"BOI","-","-","Please name all of the ways you could use this object. Keep in mind that one object can have many uses. Separate your responses with a comma.",NA,"y",8982,NA,NA,5456,8431,NA,NA,NA,"lift, climb",1
"w10022292_BL","n2a9ftwexd","BOI Norms",1,25,"2021-11-12T16:20:50+00:00",3.0425679683685,21,"updated stim.csv","Version46.csv","Version 46","List 46","mistress",NA,1377,5,1669,0.146830456,1378,"BOI","-","-","Please name all of the ways you could use this object. Keep in mind that one object can have many uses. Separate your responses with a comma.",NA,"y",2917,NA,NA,2074,2500,NA,NA,NA,"use",1
"w10022292_BL","n2a9ftwexd","BOI Norms",1,26,"2021-11-12T16:20:58+00:00",7.9990448951721,21,"updated stim.csv","Version46.csv","Version 46","List 46","sword",NA,1355,5.461538462,2611,0.743789426,1356,"BOI","-","-","Please name all of the ways you could use this object. Keep in mind that one object can have many uses. Separate your responses with a comma.",NA,"y",7868,NA,NA,2336,6588,NA,NA,NA,"kill, maim ",1
"w10022292_BL","n2a9ftwexd","BOI Norms",1,27,"2021-11-12T16:21:05+00:00",6.6096210479736,21,"updated stim.csv","Version46.csv","Version 46","List 46","cornbread",NA,1371,5.16,645,0.328992842,1372,"BOI","-","-","Please name all of the ways you could use this object. Keep in mind that one object can have many uses. Separate your responses with a comma.",NA,"y",6476,NA,NA,1650,6289,NA,NA,NA,"eat",1
"w10022292_BL","n2a9ftwexd","BOI Norms",1,28,"2021-11-12T16:21:10+00:00",4.7560169696808,21,"updated stim.csv","Version46.csv","Version 46","List 46","mixer",NA,1359,5,1672,0.248643521,1360,"BOI","-","-","Please name all of the ways you could use this object. Keep in mind that one object can have many uses. Separate your responses with a comma.",NA,"y",4625,NA,NA,3108,4323,NA,NA,NA,"mixing",1
"w10022292_BL","n2a9ftwexd","BOI Norms",1,29,"2021-11-12T16:21:13+00:00",3.5327849388123,21,"updated stim.csv","Version46.csv","Version 46","List 46","chairman",NA,1372,4.965517241,486,0.91581293,1373,"BOI","-","-","Please name all of the ways you could use this object. Keep in mind that one object can have many uses. Separate your responses with a comma.",NA,"y",3340,NA,NA,-1,-1,NA,NA,NA,"",1
"w10022292_BL","n2a9ftwexd","BOI Norms",1,30,"2021-11-12T16:21:25+00:00",11.24576997757,21,"updated stim.csv","Version46.csv","Version 46","List 46","antenna",NA,1353,4.695652174,46,0.233105274,1354,"BOI","-","-","Please name all of the ways you could use this object. Keep in mind that one object can have many uses. Separate your responses with a comma.",NA,"y",11100,NA,NA,1999,9848,NA,NA,NA,"amplify",1
"w10022292_BL","n2a9ftwexd","BOI Norms",1,31,"2021-11-12T16:21:30+00:00",5.2475111484528,21,"updated stim.csv","Version46.csv","Version 46","List 46","interviewer",NA,1356,4.75,1365,0.256617028,1357,"BOI","-","-","Please name all of the ways you could use this object. Keep in mind that one object can have many uses. Separate your responses with a comma.",NA,"y",5119,NA,NA,3563,4534,NA,NA,NA,"talk to",1
"w10022292_BL","n2a9ftwexd","BOI Norms",1,32,"2021-11-12T16:21:33+00:00",3.2507259845734,21,"updated stim.csv","Version46.csv","Version 46","List 46","drainpipe",NA,1364,4.875,837,0.225607726,1365,"BOI","-","-","Please name all of the ways you could use this object. Keep in mind that one object can have many uses. Separate your responses with a comma.",NA,"y",3112,NA,NA,1926,2780,NA,NA,NA,"drain",1
"w10022292_BL","n2a9ftwexd","BOI Norms",1,33,"2021-11-12T16:21:39+00:00",5.9914638996124,21,"updated stim.csv","Version46.csv","Version 46","List 46","scratches",NA,1363,4.4,2284,0.10739622,1364,"BOI","-","-","Please name all of the ways you could use this object. Keep in mind that one object can have many uses. Separate your responses with a comma.",NA,"y",5836,NA,NA,-1,-1,NA,NA,NA,"",1
"w10022292_BL","n2a9ftwexd","BOI Norms",1,34,"2021-11-12T16:21:46+00:00",6.823646068573,21,"updated stim.csv","Version46.csv","Version 46","List 46","handclasp",NA,1376,4.681818182,1235,0.118953714,1377,"BOI","-","-","Please name all of the ways you could use this object. Keep in mind that one object can have many uses. Separate your responses with a comma.",NA,"y",6682,NA,NA,3520,4960,NA,NA,NA,"applause ",1
"w10022292_BL","n2a9ftwexd","BOI Norms",1,35,"2021-11-12T16:21:50+00:00",4.3415460586548,21,"updated stim.csv","Version46.csv","Version 46","List 46","boyfriend",NA,1373,6.310344828,297,0.92357551,1374,"BOI","-","-","Please name all of the ways you could use this object. Keep in mind that one object can have many uses. Separate your responses with a comma.",NA,"y",4129,NA,NA,3183,3574,NA,NA,NA,"hug",1
"w10022292_BL","n2a9ftwexd","BOI Norms",1,36,"2021-11-12T16:21:56+00:00",5.9161150455475,21,"updated stim.csv","Version46.csv","Version 46","List 46","golfer",NA,1379,4.583333333,1136,0.852423722,1380,"BOI","-","-","Please name all of the ways you could use this object. Keep in mind that one object can have many uses. Separate your responses with a comma.",NA,"y",5755,NA,NA,4854,5507,NA,NA,NA,"golf",1
"w10022292_BL","n2a9ftwexd","BOI Norms",1,37,"2021-11-12T16:22:00+00:00",3.8727428913116,21,"updated stim.csv","Version46.csv","Version 46","List 46","diner",NA,1358,4.375,794,0.746568942,1359,"BOI","-","-","Please name all of the ways you could use this object. Keep in mind that one object can have many uses. Separate your responses with a comma.",NA,"y",3734,NA,NA,2572,3081,NA,NA,NA,"eat",1
"w10022292_BL","n2a9ftwexd","BOI Norms",1,38,"2021-11-12T16:22:10+00:00",10.034137010574,21,"updated stim.csv","Version46.csv","Version 46","List 46","southerner",NA,1380,5.045454545,2456,0.243218069,1381,"BOI","-","-","Please name all of the ways you could use this object. Keep in mind that one object can have many uses. Separate your responses with a comma.",NA,"y",9893,NA,NA,7366,9578,NA,NA,NA,"talk to",1
"w10022292_BL","n2a9ftwexd","BOI Norms",1,39,"2021-11-12T16:22:19+00:00",8.6330709457397,21,"updated stim.csv","Version46.csv","Version 46","List 46","remote",NA,1351,4.357142857,2154,0.539758417,1352,"BOI","-","-","Please name all of the ways you could use this object. Keep in mind that one object can have many uses. Separate your responses with a comma.",NA,"y",8494,NA,NA,2865,7719,NA,NA,NA,"change channel",1
"w10022292_BL","n2a9ftwexd","BOI Norms",1,40,"2021-11-12T16:22:26+00:00",6.8866939544678,21,"updated stim.csv","Version46.csv","Version 46","List 46","paper",NA,1375,5.695652174,1862,0.888785429,1376,"BOI","-","-","Please name all of the ways you could use this object. Keep in mind that one object can have many uses. Separate your responses with a comma.",NA,"y",6750,NA,NA,2247,4411,NA,NA,NA,"write on",1
"w10030462","gpt2p23nr4","BOI Norms",1,11,"2021-11-10T22:53:05+00:00",42.629150152206,17,"updated stim.csv","Version42.csv","Version 42","List 42","fossil",NA,1245,4.925925926,1049,0.874093482,1246,"BOI","-","-","Please name all of the ways you could use this object. Keep in mind that one object can have many uses. Separate your responses with a comma.",NA,"y",42229,NA,NA,3759,38780,NA,NA,NA,"fuel machines, discover, examine, analyze, piece together, display, clean off, break up",1
"w10030462","gpt2p23nr4","BOI Norms",1,12,"2021-11-10T22:53:59+00:00",53.919736862183,17,"updated stim.csv","Version42.csv","Version 42","List 42","flashlight",NA,1251,5.869565217,1002,0.527294364,1252,"BOI","-","-","Please name all of the ways you could use this object. Keep in mind that one object can have many uses. Separate your responses with a comma.",NA,"y",53516,NA,NA,1862,48133,NA,NA,NA,"see in the dark, use as weapon, leave in drawer, keep in hurricane kit, puppet show, camping",1
"w10030462","gpt2p23nr4","BOI Norms",1,13,"2021-11-10T22:54:56+00:00",57.530038118362,17,"updated stim.csv","Version42.csv","Version 42","List 42","tooth",NA,1241,6.037037037,2731,0.844875472,1242,"BOI","-","-","Please name all of the ways you could use this object. Keep in mind that one object can have many uses. Separate your responses with a comma.",NA,"y",57130,NA,NA,3116,49750,NA,NA,NA,"eat, grind up food, make weird art, keep in tin, clean, bite",1
"w10030462","gpt2p23nr4","BOI Norms",1,14,"2021-11-10T22:56:01+00:00",64.730875015259,17,"updated stim.csv","Version42.csv","Version 42","List 42","label",NA,1250,5.375,1442,0.592697272,1251,"BOI","-","-","Please name all of the ways you could use this object. Keep in mind that one object can have many uses. Separate your responses with a comma.",NA,"y",64326,NA,NA,4698,61873,NA,NA,NA,"label things, wrongly label things, place in container, place on wall, place on door, place on object, art, destroy, change",1
"w10030462","gpt2p23nr4","BOI Norms",1,15,"2021-11-10T22:56:49+00:00",48.037855863571,17,"updated stim.csv","Version42.csv","Version 42","List 42","chaplain",NA,1257,4.72,495,0.966721274,1258,"BOI","-","-","Please name all of the ways you could use this object. Keep in mind that one object can have many uses. Separate your responses with a comma.",NA,"y",47637,NA,NA,8280,46090,NA,NA,NA,"talk to, pray with, hit, ignore, lie to, bring food, give money ",1
"w10030462","gpt2p23nr4","BOI Norms",1,16,"2021-11-10T22:57:56+00:00",67.007282972336,17,"updated stim.csv","Version42.csv","Version 42","List 42","woman",NA,1243,5.333333333,2955,0.245954644,1244,"BOI","-","-","Please name all of the ways you could use this object. Keep in mind that one object can have many uses. Separate your responses with a comma.",NA,"y",66606,NA,NA,5627,64500,NA,NA,NA,"talk to, hang out, eat food with, play game with, sing with, write about, make a video",1
"w10030462","gpt2p23nr4","BOI Norms",1,17,"2021-11-10T22:59:10+00:00",73.940137147903,17,"updated stim.csv","Version42.csv","Version 42","List 42","ashes",NA,1240,4.862068966,83,0.70407494,1241,"BOI","-","-","Please name all of the ways you could use this object. Keep in mind that one object can have many uses. Separate your responses with a comma.",NA,"y",73541,NA,NA,2638,68844,NA,NA,NA,"spread them, clean out, throw away, blow away, gather, mix with water, smear, art",1
"w10030462","gpt2p23nr4","BOI Norms",1,18,"2021-11-10T23:00:08+00:00",58.056488037109,17,"updated stim.csv","Version42.csv","Version 42","List 42","crypt",NA,1254,4.541666667,718,0.045845513,1255,"BOI","-","-","Please name all of the ways you could use this object. Keep in mind that one object can have many uses. Separate your responses with a comma.",NA,"y",57657,NA,NA,2427,46583,NA,NA,NA,"store bodies, write a spooky story about, hang out, clean up, pay respects, talk to the people there, ",1
"w10030462","gpt2p23nr4","BOI Norms",1,19,"2021-11-10T23:01:14+00:00",65.58252286911,17,"updated stim.csv","Version42.csv","Version 42","List 42","fluid",NA,1239,4.923076923,1018,0.626399248,1240,"BOI","-","-","Please name all of the ways you could use this object. Keep in mind that one object can have many uses. Separate your responses with a comma.",NA,"y",65185,NA,NA,3228,61343,NA,NA,NA,"pour, spill, drop, clean up, store, soak up, splash, slosh, waste",1
"w10030462","gpt2p23nr4","BOI Norms",1,20,"2021-11-10T23:02:08+00:00",54.304513931274,17,"updated stim.csv","Version42.csv","Version 42","List 42","cracker",NA,1260,5.24,676,0.510191288,1261,"BOI","-","-","Please name all of the ways you could use this object. Keep in mind that one object can have many uses. Separate your responses with a comma.",NA,"y",53888,NA,NA,5636,44708,NA,NA,NA,"eat, crumble, throw, throw away, put in bag, take for meal, make it a firecracker, set on fire",1
"w10030462","gpt2p23nr4","BOI Norms",1,21,"2021-11-10T23:03:00+00:00",52.555577039719,17,"updated stim.csv","Version42.csv","Version 42","List 42","envelope",NA,1252,5.64,913,0.787642352,1253,"BOI","-","-","Please name all of the ways you could use this object. Keep in mind that one object can have many uses. Separate your responses with a comma.",NA,"y",52132,NA,NA,3061,44387,NA,NA,NA,"put paper in, put other things in, lick, store, send, write on, tear, open, shred, throw away, burn",1
"w10030462","gpt2p23nr4","BOI Norms",1,22,"2021-11-10T23:03:43+00:00",42.159119129181,17,"updated stim.csv","Version42.csv","Version 42","List 42","tightrope",NA,1238,4.590909091,2695,0.5539317,1239,"BOI","-","-","Please name all of the ways you could use this object. Keep in mind that one object can have many uses. Separate your responses with a comma.",NA,"y",41751,NA,NA,1888,40410,NA,NA,NA,"balance, fall, stay on, hold, cut, tie, walk, run, do a flip, do a trick",1
"w10030462","gpt2p23nr4","BOI Norms",1,23,"2021-11-10T23:04:21+00:00",38.897614002228,17,"updated stim.csv","Version42.csv","Version 42","List 42","moneybags",NA,1231,5,1678,0.303590974,1232,"BOI","-","-","Please name all of the ways you could use this object. Keep in mind that one object can have many uses. Separate your responses with a comma.",NA,"y",38484,NA,NA,2824,36351,NA,NA,NA,"own, carry, store, put in bank, burn, spend, swing, hit, ",1
"w10030462","gpt2p23nr4","BOI Norms",1,24,"2021-11-10T23:05:25+00:00",63.513319969177,17,"updated stim.csv","Version42.csv","Version 42","List 42","stallion",NA,1246,4.88,2505,0.27792808,1247,"BOI","-","-","Please name all of the ways you could use this object. Keep in mind that one object can have many uses. Separate your responses with a comma.",NA,"y",63104,NA,NA,2303,58071,NA,NA,NA,"ride, wash, groom, spend time with, talk to, but in stable, watch, put in pasture, pet, hug, kiss, pat, saddle",1
"w10030462","gpt2p23nr4","BOI Norms",1,25,"2021-11-10T23:06:04+00:00",39.380178928375,17,"updated stim.csv","Version42.csv","Version 42","List 42","ramp",NA,1253,4.666666667,2136,0.713067963,1254,"BOI","-","-","Please name all of the ways you could use this object. Keep in mind that one object can have many uses. Separate your responses with a comma.",NA,"y",38974,NA,NA,2156,37099,NA,NA,NA,"go up, go down, wheel up, wheel down, fall, run up, run down, walk on, jump from",1
"w10030462","gpt2p23nr4","BOI Norms",1,26,"2021-11-10T23:06:56+00:00",51.937626123428,17,"updated stim.csv","Version42.csv","Version 42","List 42","commode",NA,1259,5.481481481,610,0.117401626,1260,"BOI","-","-","Please name all of the ways you could use this object. Keep in mind that one object can have many uses. Separate your responses with a comma.",NA,"y",51528,NA,NA,2450,47564,NA,NA,NA,"go to bathroom, pee, poop, throw up, sit, play on phone, clean, shoo animal away from, get rid of, keep",1
"w10030462","gpt2p23nr4","BOI Norms",1,27,"2021-11-10T23:07:11+00:00",14.366424798965,17,"updated stim.csv","Version42.csv","Version 42","List 42","vermouth",NA,1244,4.318181818,2851,0.228104734,1245,"BOI","-","-","Please name all of the ways you could use this object. Keep in mind that one object can have many uses. Separate your responses with a comma.",NA,"y",13973,NA,NA,6866,12778,NA,NA,NA,"Do not know what this is",1
"w10030462","gpt2p23nr4","BOI Norms",1,28,"2021-11-10T23:08:29+00:00",78.187358140945,17,"updated stim.csv","Version42.csv","Version 42","List 42","vendor",NA,1242,5,2847,0.807258877,1243,"BOI","-","-","Please name all of the ways you could use this object. Keep in mind that one object can have many uses. Separate your responses with a comma.",NA,"y",77777,NA,NA,2251,75928,NA,NA,NA,"buy things from, sell, steal from, talk to, scream at, hit, hug, kiss, pat, give money, give bags, give product back, give different product",1
"w10030462","gpt2p23nr4","BOI Norms",1,29,"2021-11-10T23:09:38+00:00",68.708651065826,17,"updated stim.csv","Version42.csv","Version 42","List 42","cornfield",NA,1234,4.739130435,646,0.867365742,1235,"BOI","-","-","Please name all of the ways you could use this object. Keep in mind that one object can have many uses. Separate your responses with a comma.",NA,"y",68305,NA,NA,10921,67218,NA,NA,NA,"run through, make a maze, get lost, children can be in it, everyone can be in it, stand there, walk through it, pick corn, mow down, steal corn, ",1
"w10030462","gpt2p23nr4","BOI Norms",1,30,"2021-11-10T23:10:22+00:00",44.429442882538,17,"updated stim.csv","Version42.csv","Version 42","List 42","portfolio",NA,1256,4.8,2039,0.492204735,1257,"BOI","-","-","Please name all of the ways you could use this object. Keep in mind that one object can have many uses. Separate your responses with a comma.",NA,"y",44032,NA,NA,3335,42530,NA,NA,NA,"hand out, add to, take from, diversify, print, put online, send to employer",1
"w10030462","gpt2p23nr4","BOI Norms",1,31,"2021-11-10T23:11:20+00:00",58.098006010056,17,"updated stim.csv","Version42.csv","Version 42","List 42","beefcake",NA,1249,4.458333333,190,0.594337665,1250,"BOI","-","-","Please name all of the ways you could use this object. Keep in mind that one object can have many uses. Separate your responses with a comma.",NA,"y",57696,NA,NA,12419,48950,NA,NA,NA,"call someone that, wonder if it is a food",1
"w10030462","gpt2p23nr4","BOI Norms",1,32,"2021-11-10T23:12:14+00:00",54.331640958786,17,"updated stim.csv","Version42.csv","Version 42","List 42","deerskin",NA,1258,4.826086957,766,0.793854008,1259,"BOI","-","-","Please name all of the ways you could use this object. Keep in mind that one object can have many uses. Separate your responses with a comma.",NA,"y",53933,NA,NA,6137,52766,NA,NA,NA,"hang, use for clothes, use for other fabric objects like pillows, waste, throw away, leave on deer, tan the hide, clean ",1
"w10030462","gpt2p23nr4","BOI Norms",1,33,"2021-11-10T23:13:14+00:00",59.941045045853,17,"updated stim.csv","Version42.csv","Version 42","List 42","hairbrush",NA,1233,6.48,1210,0.804838118,1234,"BOI","-","-","Please name all of the ways you could use this object. Keep in mind that one object can have many uses. Separate your responses with a comma.",NA,"y",59549,NA,NA,1945,50022,NA,NA,NA,"brush hair, hit, clean it, lay it down, use as mic for singing, brush wig, throw",1
