Username,ID,ExperimentName,Session,Trial,Date,TimeDif,"Condition Number","Stimuli File","Order File","Condition Description","Condition Notes",Stimuli*Cue,Stimuli*Answer,Stimuli*Shuffle,"Stimuli*Stimuli Notes",Stimuli*Value,Stimuli*Rand,Procedure*Item,"Procedure*Trial Type","Procedure*Max Time","Procedure*Min Time",Procedure*Text,"Procedure*Procedure Notes",Procedure*Shuffle,Response*RT,Response*Response,Response*Accuracy,Response*RTfirst,Response*RTlast,Response*strictAcc,Response*lenientAcc,Response*focus,Response*JOL,Response*Focus
5e5e7e81381c27000b1e9cba,uo2gt18r5b,"Affordance Norms_Prolific",1,1,2023-07-27T18:34:12+00:00,54.92547917366,1,"updated stim.csv",Version1.csv,"Version 1","List 1",,,,,,,0,Instruct,-,10,"In this section, you will be presented with a series of objects. Please name as many possible uses for this object as you can think of by typing them in the box below each object.",,Instruct1,54311,,,-1,-1,,,,,1
5e5e7e81381c27000b1e9cba,uo2gt18r5b,"Affordance Norms_Prolific",1,2,2023-07-27T18:34:24+00:00,12.198297023773,1,"updated stim.csv",Version1.csv,"Version 1","List 1",,,,,,,0,Instruct,-,10,"Please keep in mind that a single object will have more than one use. For example, a ball can be thrown or can be bounced or even stepped on. When listing multiple uses for one object, please separate each use with a comma (i.e., thrown, bounced, stepped on)",,Instruct2,11587,,,-1,-1,,,,,1
5e5e7e81381c27000b1e9cba,uo2gt18r5b,"Affordance Norms_Prolific",1,3,2023-07-27T18:34:29+00:00,4.7057609558105,1,"updated stim.csv",Version1.csv,"Version 1","List 1",,,,,,,0,Instruct,-,-,"Before starting the experiment, you will complete a short practice sesstion. Press ENTER when you are ready to begin.",,Instruct3,4103,,,-1,-1,,,,,1
5e5e7e81381c27000b1e9cba,uo2gt18r5b,"Affordance Norms_Prolific",1,4,2023-07-27T18:34:43+00:00,13.866425037384,1,"updated stim.csv",Version1.csv,"Version 1","List 1",paperwork,,632,4.28,439,0.557499565,633,BOI,-,-,"Please name all of the ways you could use this object. Keep in mind that one object can have many uses. Separate your responses with a comma.",,n,13220,,,5498,12941,,,,"Filled in, filed, shredded",1
5e5e7e81381c27000b1e9cba,uo2gt18r5b,"Affordance Norms_Prolific",1,5,2023-07-27T18:34:56+00:00,12.608325958252,1,"updated stim.csv",Version1.csv,"Version 1","List 1",grain,,635,4.708333333,1700,0.685106443,636,BOI,-,-,"Please name all of the ways you could use this object. Keep in mind that one object can have many uses. Separate your responses with a comma.",,n,11993,,,4486,11558,,,,"grind, gather, keep",1
5e5e7e81381c27000b1e9cba,uo2gt18r5b,"Affordance Norms_Prolific",1,6,2023-07-27T18:35:06+00:00,10.404409885406,1,"updated stim.csv",Version1.csv,"Version 1","List 1",spaghetti,,634,4.608695652,2807,0.295026168,635,BOI,-,-,"Please name all of the ways you could use this object. Keep in mind that one object can have many uses. Separate your responses with a comma.",,n,9769,,,1886,9393,,,,"Boil, eat, store",1
5e5e7e81381c27000b1e9cba,uo2gt18r5b,"Affordance Norms_Prolific",1,7,2023-07-27T18:35:19+00:00,13.151246070862,1,"updated stim.csv",Version1.csv,"Version 1","List 1",glove,,631,5.217391304,2788,0.288599309,632,BOI,-,-,"Please name all of the ways you could use this object. Keep in mind that one object can have many uses. Separate your responses with a comma.",,n,12370,,,1310,11793,,,,"wear, pair, remove",1
5e5e7e81381c27000b1e9cba,uo2gt18r5b,"Affordance Norms_Prolific",1,8,2023-07-27T18:35:30+00:00,10.494939088821,1,"updated stim.csv",Version1.csv,"Version 1","List 1",shortening,,633,4.961538462,2303,0.081957919,634,BOI,-,-,"Please name all of the ways you could use this object. Keep in mind that one object can have many uses. Separate your responses with a comma.",,n,9840,,,5337,9345,,,,"cut, fold, tear",1
5e5e7e81381c27000b1e9cba,uo2gt18r5b,"Affordance Norms_Prolific",1,9,2023-07-27T18:35:32+00:00,2.4761419296265,1,"updated stim.csv",Version1.csv,"Version 1","List 1",,,,,,,0,Instruct,-,-,"You have completed this section. Press ENTER to continue",,"Instruct 5",2057,,,-1,-1,,,,,1
5e5e7e81381c27000b1e9cba,uo2gt18r5b,"Affordance Norms_Prolific",1,10,2023-07-27T18:35:34+00:00,1.974319934845,1,"updated stim.csv",Version1.csv,"Version 1","List 1",,,,,,,0,Instruct,-,-,"You will now start the full experiment. Press ENTER when you are ready to begin.",,,1624,,,-1,-1,,,,,1
5e5e7e81381c27000b1e9cba,uo2gt18r5b,"Affordance Norms_Prolific",1,11,2023-07-27T18:35:45+00:00,10.988919973373,1,"updated stim.csv",Version1.csv,"Version 1","List 1",straightedge,,15,4.666666667,1168,0.129741388,16,BOI,-,-,"Please name all of the ways you could use this object. Keep in mind that one object can have many uses. Separate your responses with a comma.",,y,10390,,,2899,10143,,,,"ruler, sideboard, book",1
5e5e7e81381c27000b1e9cba,uo2gt18r5b,"Affordance Norms_Prolific",1,12,2023-07-27T18:36:05+00:00,19.89978313446,1,"updated stim.csv",Version1.csv,"Version 1","List 1",upholstery,,28,5.142857143,2618,0.332046282,29,BOI,-,-,"Please name all of the ways you could use this object. Keep in mind that one object can have many uses. Separate your responses with a comma.",,y,19094,,,1608,14868,,,,"furnature, curtains, ",1
5e5e7e81381c27000b1e9cba,uo2gt18r5b,"Affordance Norms_Prolific",1,13,2023-07-27T18:36:15+00:00,10.413908004761,1,"updated stim.csv",Version1.csv,"Version 1","List 1",juror,,17,5.481481481,1600,0.476399064,18,BOI,-,-,"Please name all of the ways you could use this object. Keep in mind that one object can have many uses. Separate your responses with a comma.",,y,9753,,,4304,9523,,,,"law, justice",1
5e5e7e81381c27000b1e9cba,uo2gt18r5b,"Affordance Norms_Prolific",1,14,2023-07-27T18:36:22+00:00,6.6414759159088,1,"updated stim.csv",Version1.csv,"Version 1","List 1",musket,,14,4.958333333,2722,0.368202979,15,BOI,-,-,"Please name all of the ways you could use this object. Keep in mind that one object can have many uses. Separate your responses with a comma.",,y,5871,,,1291,5728,,,,"gun, old, fire, bullet",1
5e5e7e81381c27000b1e9cba,uo2gt18r5b,"Affordance Norms_Prolific",1,15,2023-07-27T18:36:33+00:00,11.458163022995,1,"updated stim.csv",Version1.csv,"Version 1","List 1",crossbar,,8,5.454545455,1935,0.125396232,9,BOI,-,-,"Please name all of the ways you could use this object. Keep in mind that one object can have many uses. Separate your responses with a comma.",,y,10820,,,6106,10279,,,,"stablise, block",1
5e5e7e81381c27000b1e9cba,uo2gt18r5b,"Affordance Norms_Prolific",1,16,2023-07-27T18:36:40+00:00,6.8082790374756,1,"updated stim.csv",Version1.csv,"Version 1","List 1",tapioca,,18,4.666666667,1815,0.413937663,19,BOI,-,-,"Please name all of the ways you could use this object. Keep in mind that one object can have many uses. Separate your responses with a comma.",,y,5663,,,1396,5413,,,,"eat, drink",1
5e5e7e81381c27000b1e9cba,uo2gt18r5b,"Affordance Norms_Prolific",1,17,2023-07-27T18:36:48+00:00,7.4698498249054,1,"updated stim.csv",Version1.csv,"Version 1","List 1",munitions,,9,4.875,2448,0.423270691,10,BOI,-,-,"Please name all of the ways you could use this object. Keep in mind that one object can have many uses. Separate your responses with a comma.",,y,7076,,,3314,6785,,,,"arm, equip",1
5e5e7e81381c27000b1e9cba,uo2gt18r5b,"Affordance Norms_Prolific",1,18,2023-07-27T18:37:41+00:00,52.898694992065,1,"updated stim.csv",Version1.csv,"Version 1","List 1",capacitor,,3,5.76,1666,0.330502966,4,BOI,-,-,"Please name all of the ways you could use this object. Keep in mind that one object can have many uses. Separate your responses with a comma.",,y,52107,,,50626,51671,,,,holder,1
5e5e7e81381c27000b1e9cba,uo2gt18r5b,"Affordance Norms_Prolific",1,19,2023-07-27T18:37:45+00:00,4.8226211071014,1,"updated stim.csv",Version1.csv,"Version 1","List 1",kumquat,,1,4.538461538,764,0.261476603,2,BOI,-,-,"Please name all of the ways you could use this object. Keep in mind that one object can have many uses. Separate your responses with a comma.",,y,4445,,,4169,4169,,,,.,1
5e5e7e81381c27000b1e9cba,uo2gt18r5b,"Affordance Norms_Prolific",1,20,2023-07-27T18:37:53+00:00,7.5823581218719,1,"updated stim.csv",Version1.csv,"Version 1","List 1",decor,,24,5.347826087,469,0.48837589,25,BOI,-,-,"Please name all of the ways you could use this object. Keep in mind that one object can have many uses. Separate your responses with a comma.",,y,6877,,,1707,6710,,,,"paint, wallpaper, accessories",1
5e5e7e81381c27000b1e9cba,uo2gt18r5b,"Affordance Norms_Prolific",1,21,2023-07-27T18:37:55+00:00,1.801353931427,1,"updated stim.csv",Version1.csv,"Version 1","List 1",gourd,,20,5.458333333,2953,0.249710528,21,BOI,-,-,"Please name all of the ways you could use this object. Keep in mind that one object can have many uses. Separate your responses with a comma.",,y,1422,,,1222,1222,,,,.,1
5e5e7e81381c27000b1e9cba,uo2gt18r5b,"Affordance Norms_Prolific",1,22,2023-07-27T18:38:02+00:00,7.495306968689,1,"updated stim.csv",Version1.csv,"Version 1","List 1",fauna,,25,4.333333333,252,0.347548191,26,BOI,-,-,"Please name all of the ways you could use this object. Keep in mind that one object can have many uses. Separate your responses with a comma.",,y,6861,,,3113,6720,,,,"grass, bush, tree",1
5e5e7e81381c27000b1e9cba,uo2gt18r5b,"Affordance Norms_Prolific",1,23,2023-07-27T18:38:12+00:00,9.5027589797974,1,"updated stim.csv",Version1.csv,"Version 1","List 1",boy,,10,6.25,323,0.73335018,11,BOI,-,-,"Please name all of the ways you could use this object. Keep in mind that one object can have many uses. Separate your responses with a comma.",,y,8870,,,1343,8674,,,,"male, son, father, brother",1
5e5e7e81381c27000b1e9cba,uo2gt18r5b,"Affordance Norms_Prolific",1,24,2023-07-27T18:38:13+00:00,1.6211810112,1,"updated stim.csv",Version1.csv,"Version 1","List 1",hookah,,2,6.416666667,2301,0.945985105,3,BOI,-,-,"Please name all of the ways you could use this object. Keep in mind that one object can have many uses. Separate your responses with a comma.",,y,1244,,,1044,1044,,,,.,1
5e5e7e81381c27000b1e9cba,uo2gt18r5b,"Affordance Norms_Prolific",1,25,2023-07-27T18:38:26+00:00,12.230773925781,1,"updated stim.csv",Version1.csv,"Version 1","List 1",waistcoat,,19,5.227272727,1241,0.629851612,20,BOI,-,-,"Please name all of the ways you could use this object. Keep in mind that one object can have many uses. Separate your responses with a comma.",,y,11616,,,2333,10460,,,,"formal, wedding,",1
5e5e7e81381c27000b1e9cba,uo2gt18r5b,"Affordance Norms_Prolific",1,26,2023-07-27T18:38:39+00:00,12.852558135986,1,"updated stim.csv",Version1.csv,"Version 1","List 1",receptacle,,5,5.833333333,1647,0.48521541,6,BOI,-,-,"Please name all of the ways you could use this object. Keep in mind that one object can have many uses. Separate your responses with a comma.",,y,12216,,,2419,11905,,,,"drinking, holding, filling",1
5e5e7e81381c27000b1e9cba,uo2gt18r5b,"Affordance Norms_Prolific",1,27,2023-07-27T18:38:41+00:00,1.9432339668274,1,"updated stim.csv",Version1.csv,"Version 1","List 1",sod,,6,4.375,1389,0.172930083,7,BOI,-,-,"Please name all of the ways you could use this object. Keep in mind that one object can have many uses. Separate your responses with a comma.",,y,1315,,,1136,1136,,,,.,1
5e5e7e81381c27000b1e9cba,uo2gt18r5b,"Affordance Norms_Prolific",1,28,2023-07-27T18:38:44+00:00,3.7043478488922,1,"updated stim.csv",Version1.csv,"Version 1","List 1",gasket,,4,5.416666667,1464,0.391267155,5,BOI,-,-,"Please name all of the ways you could use this object. Keep in mind that one object can have many uses. Separate your responses with a comma.",,y,3338,,,3133,3133,,,,.,1
5e5e7e81381c27000b1e9cba,uo2gt18r5b,"Affordance Norms_Prolific",1,29,2023-07-27T18:38:52+00:00,7.5476541519165,1,"updated stim.csv",Version1.csv,"Version 1","List 1",kiln,,7,6.230769231,308,0.981109369,8,BOI,-,-,"Please name all of the ways you could use this object. Keep in mind that one object can have many uses. Separate your responses with a comma.",,y,6930,,,1276,6564,,,,"fire, glass, iron",1
5e5e7e81381c27000b1e9cba,uo2gt18r5b,"Affordance Norms_Prolific",1,30,2023-07-27T18:39:02+00:00,10.388954877853,1,"updated stim.csv",Version1.csv,"Version 1","List 1",hailstone,,16,5.565217391,1319,0.287274537,17,BOI,-,-,"Please name all of the ways you could use this object. Keep in mind that one object can have many uses. Separate your responses with a comma.",,y,9500,,,3611,9257,,,,"weather, ice, storm",1
5e5e7e81381c27000b1e9cba,uo2gt18r5b,"Affordance Norms_Prolific",1,31,2023-07-27T18:39:10+00:00,7.761922121048,1,"updated stim.csv",Version1.csv,"Version 1","List 1",cashmere,,23,4.84,1448,0.448711971,24,BOI,-,-,"Please name all of the ways you could use this object. Keep in mind that one object can have many uses. Separate your responses with a comma.",,y,7122,,,1482,6845,,,,"clothing, blanket",1
5e5e7e81381c27000b1e9cba,uo2gt18r5b,"Affordance Norms_Prolific",1,32,2023-07-27T18:39:15+00:00,5.319591999054,1,"updated stim.csv",Version1.csv,"Version 1","List 1",tar,,11,5.92,2708,0.629763414,12,BOI,-,-,"Please name all of the ways you could use this object. Keep in mind that one object can have many uses. Separate your responses with a comma.",,y,4808,,,1865,4637,,,,"road, sticky",1
5e5e7e81381c27000b1e9cba,uo2gt18r5b,"Affordance Norms_Prolific",1,33,2023-07-27T18:39:17+00:00,2.0372219085693,1,"updated stim.csv",Version1.csv,"Version 1","List 1",spool,,30,5.64,2491,0.148115672,31,BOI,-,-,"Please name all of the ways you could use this object. Keep in mind that one object can have many uses. Separate your responses with a comma.",,y,1655,,,1489,1489,,,,.,1
5e5e7e81381c27000b1e9cba,uo2gt18r5b,"Affordance Norms_Prolific",1,34,2023-07-27T18:39:24+00:00,6.6539790630341,1,"updated stim.csv",Version1.csv,"Version 1","List 1",medal,,13,4.444444444,1011,0.860315666,14,BOI,-,-,"Please name all of the ways you could use this object. Keep in mind that one object can have many uses. Separate your responses with a comma.",,y,6027,,,3370,5721,,,,"awarded, worn",1
5e5e7e81381c27000b1e9cba,uo2gt18r5b,"Affordance Norms_Prolific",1,35,2023-07-27T18:39:30+00:00,5.9132270812988,1,"updated stim.csv",Version1.csv,"Version 1","List 1",stirrup,,27,5.434782609,1877,0.096670334,28,BOI,-,-,"Please name all of the ways you could use this object. Keep in mind that one object can have many uses. Separate your responses with a comma.",,y,5209,,,1784,4933,,,,horses,1
5e5e7e81381c27000b1e9cba,uo2gt18r5b,"Affordance Norms_Prolific",1,36,2023-07-27T18:39:34+00:00,4.5998120307922,1,"updated stim.csv",Version1.csv,"Version 1","List 1",dipstick,,22,4.826086957,1618,0.113902737,23,BOI,-,-,"Please name all of the ways you could use this object. Keep in mind that one object can have many uses. Separate your responses with a comma.",,y,4239,,,1360,3896,,,,"oil, insult",1
5e5e7e81381c27000b1e9cba,uo2gt18r5b,"Affordance Norms_Prolific",1,37,2023-07-27T18:39:47+00:00,12.951918840408,1,"updated stim.csv",Version1.csv,"Version 1","List 1",asshole,,29,5.88,1967,0.018459114,30,BOI,-,-,"Please name all of the ways you could use this object. Keep in mind that one object can have many uses. Separate your responses with a comma.",,y,10572,,,2886,10326,,,,"insult, body part, person",1
5e5e7e81381c27000b1e9cba,uo2gt18r5b,"Affordance Norms_Prolific",1,38,2023-07-27T18:39:53+00:00,5.2457640171051,1,"updated stim.csv",Version1.csv,"Version 1","List 1",jaguar,,12,5.777777778,2235,0.168486135,13,BOI,-,-,"Please name all of the ways you could use this object. Keep in mind that one object can have many uses. Separate your responses with a comma.",,y,4227,,,1695,4026,,,,"animal, car",1
5e5e7e81381c27000b1e9cba,uo2gt18r5b,"Affordance Norms_Prolific",1,39,2023-07-27T18:40:05+00:00,12.628755092621,1,"updated stim.csv",Version1.csv,"Version 1","List 1",packet,,26,4.727272727,2510,0.797812576,27,BOI,-,-,"Please name all of the ways you could use this object. Keep in mind that one object can have many uses. Separate your responses with a comma.",,y,11987,,,5235,11801,,,,.,1
5e5e7e81381c27000b1e9cba,uo2gt18r5b,"Affordance Norms_Prolific",1,40,2023-07-27T18:40:18+00:00,12.687515974045,1,"updated stim.csv",Version1.csv,"Version 1","List 1",aunt,,21,4.4,243,0.879020377,22,BOI,-,-,"Please name all of the ways you could use this object. Keep in mind that one object can have many uses. Separate your responses with a comma.",,y,12069,,,3959,11669,,,,"person, help, friend",1
5e5e7e81381c27000b1e9cba,uo2gt18r5b,"Affordance Norms_Prolific",1,41,2023-07-27T18:40:20+00:00,2.3925938606262,1,"updated stim.csv",Version1.csv,"Version 1","List 1",,,,,,,0,Instruct,,,"You will now be asked a few questions about your experience today.",,"Instruct 4",1766,,,-1,-1,,,,,1
