"Username","ID","ExperimentName","Session","Trial","Date","TimeDif","Condition.Number","Stimuli.File","Order.File","Condition.Description","Condition.Notes","Stimuli.Cue","Stimuli.Answer","Stimuli.Shuffle","Stimuli.Stimuli.Notes","Stimuli.Value","Procedure.Item","Procedure.Trial.Type","Procedure.Max.Time","Procedure.Min.Time","Procedure.Text","Procedure.Procedure.Notes","Procedure.Shuffle","Response.RT","Response.Response","Response.Accuracy","Response.RTfirst","Response.RTlast","Response.strictAcc","Response.lenientAcc","Response.focus","Response.JOL","Response.Focus"
"7551","j5xhbgobzf","Affordance Norms_ILSTU",1,11,"2022-09-23T14:11:42+00:00",20.415385961533,43,"updated stim.csv","Version43.csv","Version 43","List 43","doorbell",NA,1263,5.916666667,822,"1264","BOI","-","-","Please name all of the ways you could use this object. Keep in mind that one object can have many uses. Separate your responses with a comma.",NA,"y",20122,NA,NA,1528,19988,NA,NA,NA,"rang, changed, ignored",1
"7551","j5xhbgobzf","Affordance Norms_ILSTU",1,12,"2022-09-23T14:11:50+00:00",7.83971118927,43,"updated stim.csv","Version43.csv","Version 43","List 43","environment",NA,1277,4.52173913,914,"1278","BOI","-","-","Please name all of the ways you could use this object. Keep in mind that one object can have many uses. Separate your responses with a comma.",NA,"y",7545,NA,NA,5122,7181,NA,NA,NA,"visit,clean",1
"7551","j5xhbgobzf","Affordance Norms_ILSTU",1,13,"2022-09-23T14:12:16+00:00",25.492995977402,43,"updated stim.csv","Version43.csv","Version 43","List 43","vaginal",NA,1271,4.36,2833,"1272","BOI","-","-","Please name all of the ways you could use this object. Keep in mind that one object can have many uses. Separate your responses with a comma.",NA,"y",25178,NA,NA,17450,21268,NA,NA,NA,"",1
"7551","j5xhbgobzf","Affordance Norms_ILSTU",1,14,"2022-09-23T14:12:24+00:00",7.9964518547058,43,"updated stim.csv","Version43.csv","Version 43","List 43","daughter",NA,1288,5.192307692,760,"1289","BOI","-","-","Please name all of the ways you could use this object. Keep in mind that one object can have many uses. Separate your responses with a comma.",NA,"y",7712,NA,NA,1600,7248,NA,NA,NA,"raised, grown up",1
"7551","j5xhbgobzf","Affordance Norms_ILSTU",1,15,"2022-09-23T14:12:29+00:00",4.8197391033173,43,"updated stim.csv","Version43.csv","Version 43","List 43","marijuana",NA,1284,6.04,1606,"1285","BOI","-","-","Please name all of the ways you could use this object. Keep in mind that one object can have many uses. Separate your responses with a comma.",NA,"y",4529,NA,NA,1459,4311,NA,NA,NA,"smoked, grown ",1
"7551","j5xhbgobzf","Affordance Norms_ILSTU",1,16,"2022-09-23T14:12:38+00:00",9.3512909412384,43,"updated stim.csv","Version43.csv","Version 43","List 43","ledge",NA,1267,4.541666667,1482,"1268","BOI","-","-","Please name all of the ways you could use this object. Keep in mind that one object can have many uses. Separate your responses with a comma.",NA,"y",9046,NA,NA,4293,8932,NA,NA,NA,"see views, fall off",1
"7551","j5xhbgobzf","Affordance Norms_ILSTU",1,17,"2022-09-23T14:12:43+00:00",4.8192830085754,43,"updated stim.csv","Version43.csv","Version 43","List 43","bathroom",NA,1264,6,169,"1265","BOI","-","-","Please name all of the ways you could use this object. Keep in mind that one object can have many uses. Separate your responses with a comma.",NA,"y",4527,NA,NA,1119,3378,NA,NA,NA,"use, clean, ",1
"7551","j5xhbgobzf","Affordance Norms_ILSTU",1,18,"2022-09-23T14:12:49+00:00",6.0964391231537,43,"updated stim.csv","Version43.csv","Version 43","List 43","waiter",NA,1278,4.48,2883,"1279","BOI","-","-","Please name all of the ways you could use this object. Keep in mind that one object can have many uses. Separate your responses with a comma.",NA,"y",5805,NA,NA,2323,5607,NA,NA,NA,"served, talked to ",1
"7551","j5xhbgobzf","Affordance Norms_ILSTU",1,19,"2022-09-23T14:12:56+00:00",7.4245429039001,43,"updated stim.csv","Version43.csv","Version 43","List 43","granny",NA,1265,5.083333333,1155,"1266","BOI","-","-","Please name all of the ways you could use this object. Keep in mind that one object can have many uses. Separate your responses with a comma.",NA,"y",7133,NA,NA,2983,6968,NA,NA,NA,"cookies, food, love",1
"7551","j5xhbgobzf","Affordance Norms_ILSTU",1,20,"2022-09-23T14:13:04+00:00",7.9445240497589,43,"updated stim.csv","Version43.csv","Version 43","List 43","sink",NA,1287,5.48,2385,"1288","BOI","-","-","Please name all of the ways you could use this object. Keep in mind that one object can have many uses. Separate your responses with a comma.",NA,"y",7629,NA,NA,1355,6792,NA,NA,NA,"wash dishes, wash hands, ",1
"7551","j5xhbgobzf","Affordance Norms_ILSTU",1,21,"2022-09-23T14:13:10+00:00",6.1834778785706,43,"updated stim.csv","Version43.csv","Version 43","List 43","suspenders",NA,1274,5.24,2599,"1275","BOI","-","-","Please name all of the ways you could use this object. Keep in mind that one object can have many uses. Separate your responses with a comma.",NA,"y",5889,NA,NA,1806,5711,NA,NA,NA,"worn as an outfit ",1
"7551","j5xhbgobzf","Affordance Norms_ILSTU",1,22,"2022-09-23T14:13:18+00:00",8.0181059837341,43,"updated stim.csv","Version43.csv","Version 43","List 43","bin",NA,1286,5.260869565,217,"1287","BOI","-","-","Please name all of the ways you could use this object. Keep in mind that one object can have many uses. Separate your responses with a comma.",NA,"y",7722,NA,NA,1430,7357,NA,NA,NA,"throw out trash, carry items ",1
"7551","j5xhbgobzf","Affordance Norms_ILSTU",1,23,"2022-09-23T14:13:42+00:00",23.268575191498,43,"updated stim.csv","Version43.csv","Version 43","List 43","penny",NA,1275,6.448275862,1917,"1276","BOI","-","-","Please name all of the ways you could use this object. Keep in mind that one object can have many uses. Separate your responses with a comma.",NA,"y",22961,NA,NA,2196,22784,NA,NA,NA,"collect, use for payment ",1
"7551","j5xhbgobzf","Affordance Norms_ILSTU",1,24,"2022-09-23T14:13:48+00:00",6.2935078144073,43,"updated stim.csv","Version43.csv","Version 43","List 43","footbath",NA,1276,5.090909091,1032,"1277","BOI","-","-","Please name all of the ways you could use this object. Keep in mind that one object can have many uses. Separate your responses with a comma.",NA,"y",6002,NA,NA,3578,5691,NA,NA,NA,"put feet in ",1
"7551","j5xhbgobzf","Affordance Norms_ILSTU",1,25,"2022-09-23T14:13:50+00:00",2.1228671073914,43,"updated stim.csv","Version43.csv","Version 43","List 43","minister",NA,1280,4.84,1663,"1281","BOI","-","-","Please name all of the ways you could use this object. Keep in mind that one object can have many uses. Separate your responses with a comma.",NA,"y",1939,NA,NA,-1,-1,NA,NA,NA,"",1
"7551","j5xhbgobzf","Affordance Norms_ILSTU",1,26,"2022-09-23T14:13:51+00:00",1.3001139163971,43,"updated stim.csv","Version43.csv","Version 43","List 43","bunkhouse",NA,1273,4.625,361,"1274","BOI","-","-","Please name all of the ways you could use this object. Keep in mind that one object can have many uses. Separate your responses with a comma.",NA,"y",1125,NA,NA,-1,-1,NA,NA,NA,"",1
"7551","j5xhbgobzf","Affordance Norms_ILSTU",1,27,"2022-09-23T14:13:54+00:00",2.3564281463623,43,"updated stim.csv","Version43.csv","Version 43","List 43","motorist",NA,1270,5.12,1698,"1271","BOI","-","-","Please name all of the ways you could use this object. Keep in mind that one object can have many uses. Separate your responses with a comma.",NA,"y",2182,NA,NA,-1,-1,NA,NA,NA,"",1
"7551","j5xhbgobzf","Affordance Norms_ILSTU",1,28,"2022-09-23T14:14:55+00:00",61.500204801559,43,"updated stim.csv","Version43.csv","Version 43","List 43","boulder",NA,1266,4.958333333,288,"1267","BOI","-","-","Please name all of the ways you could use this object. Keep in mind that one object can have many uses. Separate your responses with a comma.",NA,"y",61205,NA,NA,57310,60967,NA,NA,NA,"push",1
"7551","j5xhbgobzf","Affordance Norms_ILSTU",1,29,"2022-09-23T14:15:00+00:00",5.0837562084198,43,"updated stim.csv","Version43.csv","Version 43","List 43","path",NA,1261,4.37037037,1887,"1262","BOI","-","-","Please name all of the ways you could use this object. Keep in mind that one object can have many uses. Separate your responses with a comma.",NA,"y",4778,NA,NA,2543,4340,NA,NA,NA,"walk on, ",1
"7551","j5xhbgobzf","Affordance Norms_ILSTU",1,30,"2022-09-23T14:15:08+00:00",7.3353428840637,43,"updated stim.csv","Version43.csv","Version 43","List 43","maid",NA,1283,4.458333333,1574,"1284","BOI","-","-","Please name all of the ways you could use this object. Keep in mind that one object can have many uses. Separate your responses with a comma.",NA,"y",6729,NA,NA,3709,5417,NA,NA,NA,"clean, cook,",1
"7551","j5xhbgobzf","Affordance Norms_ILSTU",1,31,"2022-09-23T14:15:09+00:00",1.7088649272919,43,"updated stim.csv","Version43.csv","Version 43","List 43","bangle",NA,1289,5.115384615,139,"1290","BOI","-","-","Please name all of the ways you could use this object. Keep in mind that one object can have many uses. Separate your responses with a comma.",NA,"y",1164,NA,NA,-1,-1,NA,NA,NA,"",1
"7551","j5xhbgobzf","Affordance Norms_ILSTU",1,32,"2022-09-23T14:15:13+00:00",4.0047550201416,43,"updated stim.csv","Version43.csv","Version 43","List 43","sling",NA,1285,4.909090909,2413,"1286","BOI","-","-","Please name all of the ways you could use this object. Keep in mind that one object can have many uses. Separate your responses with a comma.",NA,"y",3689,NA,NA,2306,3415,NA,NA,NA,"hold arm ",1
"7551","j5xhbgobzf","Affordance Norms_ILSTU",1,33,"2022-09-23T14:15:17+00:00",4.0585739612579,43,"updated stim.csv","Version43.csv","Version 43","List 43","fountainhead",NA,1272,4.523809524,1051,"1273","BOI","-","-","Please name all of the ways you could use this object. Keep in mind that one object can have many uses. Separate your responses with a comma.",NA,"y",3880,NA,NA,1520,3676,NA,NA,NA,"drink water out of ",1
"7551","j5xhbgobzf","Affordance Norms_ILSTU",1,34,"2022-09-23T14:15:23+00:00",5.5765280723572,43,"updated stim.csv","Version43.csv","Version 43","List 43","crowbar",NA,1268,6.25,710,"1269","BOI","-","-","Please name all of the ways you could use this object. Keep in mind that one object can have many uses. Separate your responses with a comma.",NA,"y",5296,NA,NA,2854,5167,NA,NA,NA,"open things",1
"7551","j5xhbgobzf","Affordance Norms_ILSTU",1,35,"2022-09-23T14:15:26+00:00",2.9893751144409,43,"updated stim.csv","Version43.csv","Version 43","List 43","holster",NA,1279,4.68,1298,"1280","BOI","-","-","Please name all of the ways you could use this object. Keep in mind that one object can have many uses. Separate your responses with a comma.",NA,"y",2806,NA,NA,-1,-1,NA,NA,NA,"",1
"7551","j5xhbgobzf","Affordance Norms_ILSTU",1,36,"2022-09-23T14:15:36+00:00",10.119807004929,43,"updated stim.csv","Version43.csv","Version 43","List 43","gauze",NA,1269,5.88,1088,"1270","BOI","-","-","Please name all of the ways you could use this object. Keep in mind that one object can have many uses. Separate your responses with a comma.",NA,"y",9807,NA,NA,8130,9615,NA,NA,NA,"tighten wound ",1
"7551","j5xhbgobzf","Affordance Norms_ILSTU",1,37,"2022-09-23T14:15:45+00:00",9.337278842926,43,"updated stim.csv","Version43.csv","Version 43","List 43","chrysanthemum",NA,1262,5.727272727,540,"1263","BOI","-","-","Please name all of the ways you could use this object. Keep in mind that one object can have many uses. Separate your responses with a comma.",NA,"y",9033,NA,NA,2763,8776,NA,NA,NA,"grow ",1
"7551","j5xhbgobzf","Affordance Norms_ILSTU",1,38,"2022-09-23T14:15:51+00:00",5.4265329837799,43,"updated stim.csv","Version43.csv","Version 43","List 43","puke",NA,1290,4.5,2091,"1291","BOI","-","-","Please name all of the ways you could use this object. Keep in mind that one object can have many uses. Separate your responses with a comma.",NA,"y",5137,NA,NA,3626,4978,NA,NA,NA,"nothing",1
"7551","j5xhbgobzf","Affordance Norms_ILSTU",1,39,"2022-09-23T14:15:55+00:00",3.9286689758301,43,"updated stim.csv","Version43.csv","Version 43","List 43","axe",NA,1281,6.153846154,106,"1282","BOI","-","-","Please name all of the ways you could use this object. Keep in mind that one object can have many uses. Separate your responses with a comma.",NA,"y",3737,NA,NA,2150,3188,NA,NA,NA,"chop wood ",1
"7551","j5xhbgobzf","Affordance Norms_ILSTU",1,40,"2022-09-23T14:15:57+00:00",2.6520891189575,43,"updated stim.csv","Version43.csv","Version 43","List 43","prosthesis",NA,1282,4.689655172,2079,"1283","BOI","-","-","Please name all of the ways you could use this object. Keep in mind that one object can have many uses. Separate your responses with a comma.",NA,"y",2467,NA,NA,-1,-1,NA,NA,NA,"",1
"ac9377","cs19g78fk0","Affordance Norms_ILSTU",1,11,"2022-09-23T18:44:34+00:00",13.106590032578,47,"updated stim.csv","Version47.csv","Version 47","List 47","sled",NA,1392,6.086956522,2406,"1393","BOI","-","-","Please name all of the ways you could use this object. Keep in mind that one object can have many uses. Separate your responses with a comma.",NA,"y",12889,NA,NA,1805,9936,NA,NA,NA,"snow, drag things",1
"ac9377","cs19g78fk0","Affordance Norms_ILSTU",1,12,"2022-09-23T18:44:46+00:00",12.0320520401,47,"updated stim.csv","Version47.csv","Version 47","List 47","chest",NA,1403,5.851851852,513,"1404","BOI","-","-","Please name all of the ways you could use this object. Keep in mind that one object can have many uses. Separate your responses with a comma.",NA,"y",11822,NA,NA,2318,10736,NA,NA,NA,"push ups, lay",1
"ac9377","cs19g78fk0","Affordance Norms_ILSTU",1,13,"2022-09-23T18:44:54+00:00",7.7334010601044,47,"updated stim.csv","Version47.csv","Version 47","List 47","stream",NA,1391,4.678571429,2562,"1392","BOI","-","-","Please name all of the ways you could use this object. Keep in mind that one object can have many uses. Separate your responses with a comma.",NA,"y",7520,NA,NA,4963,6347,NA,NA,NA,"water",1
"ac9377","cs19g78fk0","Affordance Norms_ILSTU",1,14,"2022-09-23T18:45:04+00:00",9.6656799316406,47,"updated stim.csv","Version47.csv","Version 47","List 47","harpsichord",NA,1386,4.904761905,1255,"1387","BOI","-","-","Please name all of the ways you could use this object. Keep in mind that one object can have many uses. Separate your responses with a comma.",NA,"y",9441,NA,NA,3175,8517,NA,NA,NA,"not sure what that is",1
"ac9377","cs19g78fk0","Affordance Norms_ILSTU",1,15,"2022-09-23T18:45:23+00:00",19.254750013351,47,"updated stim.csv","Version47.csv","Version 47","List 47","handkerchief",NA,1410,5.72,1238,"1411","BOI","-","-","Please name all of the ways you could use this object. Keep in mind that one object can have many uses. Separate your responses with a comma.",NA,"y",19046,NA,NA,3282,18212,NA,NA,NA,"blow your nose, wipe your hands",1
"ac9377","cs19g78fk0","Affordance Norms_ILSTU",1,16,"2022-09-23T18:45:29+00:00",5.6331050395966,47,"updated stim.csv","Version47.csv","Version 47","List 47","headrest",NA,1395,5.346153846,1271,"1396","BOI","-","-","Please name all of the ways you could use this object. Keep in mind that one object can have many uses. Separate your responses with a comma.",NA,"y",5412,NA,NA,2516,4332,NA,NA,NA,"lay down",1
"ac9377","cs19g78fk0","Affordance Norms_ILSTU",1,17,"2022-09-23T18:45:46+00:00",17.783712863922,47,"updated stim.csv","Version47.csv","Version 47","List 47","floorboard",NA,1397,5.791666667,1009,"1398","BOI","-","-","Please name all of the ways you could use this object. Keep in mind that one object can have many uses. Separate your responses with a comma.",NA,"y",17561,NA,NA,11979,16017,NA,NA,NA,"stand on, weapon",1
"ac9377","cs19g78fk0","Affordance Norms_ILSTU",1,18,"2022-09-23T18:46:19+00:00",32.996706008911,47,"updated stim.csv","Version47.csv","Version 47","List 47","firstborn",NA,1394,4.518518519,988,"1395","BOI","-","-","Please name all of the ways you could use this object. Keep in mind that one object can have many uses. Separate your responses with a comma.",NA,"y",32670,NA,NA,29474,31712,NA,NA,NA,"baby sitter",1
"ac9377","cs19g78fk0","Affordance Norms_ILSTU",1,19,"2022-09-23T18:46:27+00:00",7.5718071460724,47,"updated stim.csv","Version47.csv","Version 47","List 47","keepsake",NA,1400,4.75,1403,"1401","BOI","-","-","Please name all of the ways you could use this object. Keep in mind that one object can have many uses. Separate your responses with a comma.",NA,"y",7356,NA,NA,3925,6626,NA,NA,NA,"to remember",1
"ac9377","cs19g78fk0","Affordance Norms_ILSTU",1,20,"2022-09-23T18:46:41+00:00",14.513337850571,47,"updated stim.csv","Version47.csv","Version 47","List 47","kit",NA,1404,4.739130435,1424,"1405","BOI","-","-","Please name all of the ways you could use this object. Keep in mind that one object can have many uses. Separate your responses with a comma.",NA,"y",14301,NA,NA,10857,12351,NA,NA,NA,"first aid",1
"ac9377","cs19g78fk0","Affordance Norms_ILSTU",1,21,"2022-09-23T18:46:47+00:00",5.8998579978943,47,"updated stim.csv","Version47.csv","Version 47","List 47","confetti",NA,1389,4.76,626,"1390","BOI","-","-","Please name all of the ways you could use this object. Keep in mind that one object can have many uses. Separate your responses with a comma.",NA,"y",5680,NA,NA,1804,3335,NA,NA,NA,"party",1
"ac9377","cs19g78fk0","Affordance Norms_ILSTU",1,22,"2022-09-23T18:47:05+00:00",17.703476190567,47,"updated stim.csv","Version47.csv","Version 47","List 47","mink",NA,1381,4.904761905,1664,"1382","BOI","-","-","Please name all of the ways you could use this object. Keep in mind that one object can have many uses. Separate your responses with a comma.",NA,"y",17494,NA,NA,13333,16520,NA,NA,NA,"status symbol",1
"ac9377","cs19g78fk0","Affordance Norms_ILSTU",1,23,"2022-09-23T18:47:30+00:00",24.465167999268,47,"updated stim.csv","Version47.csv","Version 47","List 47","secretary",NA,1405,5.2,2305,"1406","BOI","-","-","Please name all of the ways you could use this object. Keep in mind that one object can have many uses. Separate your responses with a comma.",NA,"y",24135,NA,NA,9958,12570,NA,NA,NA,"to take notes",1
"ac9377","cs19g78fk0","Affordance Norms_ILSTU",1,24,"2022-09-23T18:47:37+00:00",7.3481659889221,47,"updated stim.csv","Version47.csv","Version 47","List 47","apron",NA,1385,5.96,67,"1386","BOI","-","-","Please name all of the ways you could use this object. Keep in mind that one object can have many uses. Separate your responses with a comma.",NA,"y",7102,NA,NA,2540,6253,NA,NA,NA,"to keep clothes clean",1
"ac9377","cs19g78fk0","Affordance Norms_ILSTU",1,25,"2022-09-23T18:47:51+00:00",14.149945020676,47,"updated stim.csv","Version47.csv","Version 47","List 47","newspaper",NA,1406,5.76,1760,"1407","BOI","-","-","Please name all of the ways you could use this object. Keep in mind that one object can have many uses. Separate your responses with a comma.",NA,"y",13939,NA,NA,1534,13073,NA,NA,NA,"read, learn about the current news",1
"ac9377","cs19g78fk0","Affordance Norms_ILSTU",1,26,"2022-09-23T18:48:10+00:00",18.954039812088,47,"updated stim.csv","Version47.csv","Version 47","List 47","pot",NA,1383,6.16,2046,"1384","BOI","-","-","Please name all of the ways you could use this object. Keep in mind that one object can have many uses. Separate your responses with a comma.",NA,"y",18748,NA,NA,16437,17683,NA,NA,NA,"flowers",1
"ac9377","cs19g78fk0","Affordance Norms_ILSTU",1,27,"2022-09-23T18:48:16+00:00",6.212874174118,47,"updated stim.csv","Version47.csv","Version 47","List 47","loin",NA,1393,4.391304348,1543,"1394","BOI","-","-","Please name all of the ways you could use this object. Keep in mind that one object can have many uses. Separate your responses with a comma.",NA,"y",5965,NA,NA,5014,5014,NA,NA,NA,"?",1
"ac9377","cs19g78fk0","Affordance Norms_ILSTU",1,28,"2022-09-23T18:48:23+00:00",6.6155250072479,47,"updated stim.csv","Version47.csv","Version 47","List 47","longbow",NA,1401,5.285714286,1546,"1402","BOI","-","-","Please name all of the ways you could use this object. Keep in mind that one object can have many uses. Separate your responses with a comma.",NA,"y",6344,NA,NA,4439,5635,NA,NA,NA,"to shoot",1
"ac9377","cs19g78fk0","Affordance Norms_ILSTU",1,29,"2022-09-23T18:48:28+00:00",5.2547509670258,47,"updated stim.csv","Version47.csv","Version 47","List 47","comforter",NA,1409,6.16,607,"1410","BOI","-","-","Please name all of the ways you could use this object. Keep in mind that one object can have many uses. Separate your responses with a comma.",NA,"y",4873,NA,NA,2108,3981,NA,NA,NA,"to sleep with",1
"ac9377","cs19g78fk0","Affordance Norms_ILSTU",1,30,"2022-09-23T18:48:32+00:00",3.5802869796753,47,"updated stim.csv","Version47.csv","Version 47","List 47","newt",NA,1396,4.391304348,1765,"1397","BOI","-","-","Please name all of the ways you could use this object. Keep in mind that one object can have many uses. Separate your responses with a comma.",NA,"y",3276,NA,NA,2390,2390,NA,NA,NA,"?",1
"ac9377","cs19g78fk0","Affordance Norms_ILSTU",1,31,"2022-09-23T18:48:43+00:00",11.216544866562,47,"updated stim.csv","Version47.csv","Version 47","List 47","duckweed",NA,1408,4.4,861,"1409","BOI","-","-","Please name all of the ways you could use this object. Keep in mind that one object can have many uses. Separate your responses with a comma.",NA,"y",11006,NA,NA,10182,10182,NA,NA,NA,"?",1
"ac9377","cs19g78fk0","Affordance Norms_ILSTU",1,32,"2022-09-23T18:49:09+00:00",26.196505069733,47,"updated stim.csv","Version47.csv","Version 47","List 47","radiologist",NA,1399,4.913043478,2123,"1400","BOI","-","-","Please name all of the ways you could use this object. Keep in mind that one object can have many uses. Separate your responses with a comma.",NA,"y",25866,NA,NA,23296,25084,NA,NA,NA,"take x rays",0.806
"ac9377","cs19g78fk0","Affordance Norms_ILSTU",1,33,"2022-09-23T18:49:13+00:00",3.8173201084137,47,"updated stim.csv","Version47.csv","Version 47","List 47","axle",NA,1398,4.904761905,108,"1399","BOI","-","-","Please name all of the ways you could use this object. Keep in mind that one object can have many uses. Separate your responses with a comma.",NA,"y",3604,NA,NA,1532,1904,NA,NA,NA,"car",1
"ac9377","cs19g78fk0","Affordance Norms_ILSTU",1,34,"2022-09-23T18:49:20+00:00",6.8512289524078,47,"updated stim.csv","Version47.csv","Version 47","List 47","pet",NA,1384,6.214285714,1932,"1385","BOI","-","-","Please name all of the ways you could use this object. Keep in mind that one object can have many uses. Separate your responses with a comma.",NA,"y",6643,NA,NA,3390,5718,NA,NA,NA,"comfort",1
"ac9377","cs19g78fk0","Affordance Norms_ILSTU",1,35,"2022-09-23T18:49:26+00:00",5.8330209255219,47,"updated stim.csv","Version47.csv","Version 47","List 47","spear",NA,1382,5.208333333,2465,"1383","BOI","-","-","Please name all of the ways you could use this object. Keep in mind that one object can have many uses. Separate your responses with a comma.",NA,"y",5612,NA,NA,2579,4757,NA,NA,NA,"to stab",1
"ac9377","cs19g78fk0","Affordance Norms_ILSTU",1,36,"2022-09-23T18:49:35+00:00",9.9339349269867,47,"updated stim.csv","Version47.csv","Version 47","List 47","tortoise",NA,1402,4.541666667,2741,"1403","BOI","-","-","Please name all of the ways you could use this object. Keep in mind that one object can have many uses. Separate your responses with a comma.",NA,"y",9713,NA,NA,8391,8721,NA,NA,NA,"pet",1
"ac9377","cs19g78fk0","Affordance Norms_ILSTU",1,37,"2022-09-23T18:49:39+00:00",3.4008631706238,47,"updated stim.csv","Version47.csv","Version 47","List 47","hamster",NA,1390,5.583333333,1226,"1391","BOI","-","-","Please name all of the ways you could use this object. Keep in mind that one object can have many uses. Separate your responses with a comma.",NA,"y",3181,NA,NA,2041,2423,NA,NA,NA,"pet",1
"ac9377","cs19g78fk0","Affordance Norms_ILSTU",1,38,"2022-09-23T18:49:43+00:00",3.7689688205719,47,"updated stim.csv","Version47.csv","Version 47","List 47","comb",NA,1387,5.923076923,606,"1388","BOI","-","-","Please name all of the ways you could use this object. Keep in mind that one object can have many uses. Separate your responses with a comma.",NA,"y",3548,NA,NA,1541,2129,NA,NA,NA,"hair",1
"ac9377","cs19g78fk0","Affordance Norms_ILSTU",1,39,"2022-09-23T18:49:49+00:00",6.4072780609131,47,"updated stim.csv","Version47.csv","Version 47","List 47","animal",NA,1407,5.958333333,41,"1408","BOI","-","-","Please name all of the ways you could use this object. Keep in mind that one object can have many uses. Separate your responses with a comma.",NA,"y",6189,NA,NA,3948,5187,NA,NA,NA,"comfort",1
"ac9377","cs19g78fk0","Affordance Norms_ILSTU",1,40,"2022-09-23T18:49:58+00:00",9.1074900627136,47,"updated stim.csv","Version47.csv","Version 47","List 47","gate",NA,1388,5.956521739,1085,"1389","BOI","-","-","Please name all of the ways you could use this object. Keep in mind that one object can have many uses. Separate your responses with a comma.",NA,"y",8893,NA,NA,2408,8187,NA,NA,NA,"to keep people in or out",1
"AF6541","stma9x62ul","Affordance Norms_ILSTU",1,11,"2022-09-22T22:08:45+00:00",21.641294002533,37,"updated stim.csv","Version37.csv","Version 37","List 37","gear",NA,1083,4.695652174,1091,"1084","BOI","-","-","Please name all of the ways you could use this object. Keep in mind that one object can have many uses. Separate your responses with a comma.",NA,"y",21359,NA,NA,4002,17365,NA,NA,NA,"shift, move, turn, slide",1
"AF6541","stma9x62ul","Affordance Norms_ILSTU",1,12,"2022-09-22T22:08:59+00:00",14.697575092316,37,"updated stim.csv","Version37.csv","Version 37","List 37","handle",NA,1086,4.958333333,1239,"1087","BOI","-","-","Please name all of the ways you could use this object. Keep in mind that one object can have many uses. Separate your responses with a comma.",NA,"y",14170,NA,NA,3408,12896,NA,NA,NA,"grab, hold, push, pull, twist",1
"AF6541","stma9x62ul","Affordance Norms_ILSTU",1,13,"2022-09-22T22:09:15+00:00",15.973851919174,37,"updated stim.csv","Version37.csv","Version 37","List 37","scorecard",NA,1090,4.875,2279,"1091","BOI","-","-","Please name all of the ways you could use this object. Keep in mind that one object can have many uses. Separate your responses with a comma.",NA,"y",15695,NA,NA,2196,12768,NA,NA,NA,"tally, keep check, add up",1
"AF6541","stma9x62ul","Affordance Norms_ILSTU",1,14,"2022-09-22T22:09:48+00:00",32.32470703125,37,"updated stim.csv","Version37.csv","Version 37","List 37","lotion",NA,1097,6.28,1548,"1098","BOI","-","-","Please name all of the ways you could use this object. Keep in mind that one object can have many uses. Separate your responses with a comma.",NA,"y",31982,NA,NA,1966,28286,NA,NA,NA,"apply, smear, smell, lift",1
"AF6541","stma9x62ul","Affordance Norms_ILSTU",1,15,"2022-09-22T22:10:28+00:00",40.153680086136,37,"updated stim.csv","Version37.csv","Version 37","List 37","mustard",NA,1104,5.8,1727,"1105","BOI","-","-","Please name all of the ways you could use this object. Keep in mind that one object can have many uses. Separate your responses with a comma.",NA,"y",39677,NA,NA,3245,38255,NA,NA,NA,"apply on sandwiches and hamburger, eat, make food ",1
"AF6541","stma9x62ul","Affordance Norms_ILSTU",1,16,"2022-09-22T22:10:56+00:00",28.198709011078,37,"updated stim.csv","Version37.csv","Version 37","List 37","shirttail",NA,1093,5.333333333,2348,"1094","BOI","-","-","Please name all of the ways you could use this object. Keep in mind that one object can have many uses. Separate your responses with a comma.",NA,"y",27922,NA,NA,11148,16594,NA,NA,NA,"scrunch up, pull down",1
"AF6541","stma9x62ul","Affordance Norms_ILSTU",1,17,"2022-09-22T22:11:19+00:00",22.996365070343,37,"updated stim.csv","Version37.csv","Version 37","List 37","toffee",NA,1091,5.608695652,2716,"1092","BOI","-","-","Please name all of the ways you could use this object. Keep in mind that one object can have many uses. Separate your responses with a comma.",NA,"y",22696,NA,NA,21268,21636,NA,NA,NA,"mix",1
"AF6541","stma9x62ul","Affordance Norms_ILSTU",1,18,"2022-09-22T22:11:33+00:00",13.572287797928,37,"updated stim.csv","Version37.csv","Version 37","List 37","forklift",NA,1094,5.541666667,1048,"1095","BOI","-","-","Please name all of the ways you could use this object. Keep in mind that one object can have many uses. Separate your responses with a comma.",NA,"y",13273,NA,NA,7789,10882,NA,NA,NA,"lift, carry",1
"AF6541","stma9x62ul","Affordance Norms_ILSTU",1,19,"2022-09-22T22:11:52+00:00",19.541923999786,37,"updated stim.csv","Version37.csv","Version 37","List 37","rag",NA,1085,5.666666667,2126,"1086","BOI","-","-","Please name all of the ways you could use this object. Keep in mind that one object can have many uses. Separate your responses with a comma.",NA,"y",19260,NA,NA,2045,18187,NA,NA,NA,"clean, dry up, toss, squeeze",1
"AF6541","stma9x62ul","Affordance Norms_ILSTU",1,20,"2022-09-22T22:12:11+00:00",19.294880151749,37,"updated stim.csv","Version37.csv","Version 37","List 37","jeweler",NA,1100,4.695652174,1385,"1101","BOI","-","-","Please name all of the ways you could use this object. Keep in mind that one object can have many uses. Separate your responses with a comma.",NA,"y",19015,NA,NA,16352,16820,NA,NA,NA,"sell ",0.948
"AF6541","stma9x62ul","Affordance Norms_ILSTU",1,21,"2022-09-22T22:12:26+00:00",14.753046035767,37,"updated stim.csv","Version37.csv","Version 37","List 37","vase",NA,1081,5.36,2838,"1082","BOI","-","-","Please name all of the ways you could use this object. Keep in mind that one object can have many uses. Separate your responses with a comma.",NA,"y",14467,NA,NA,1900,11605,NA,NA,NA,"hold, sit, carry",1
"AF6541","stma9x62ul","Affordance Norms_ILSTU",1,22,"2022-09-22T22:12:38+00:00",11.797210931778,37,"updated stim.csv","Version37.csv","Version 37","List 37","lid",NA,1107,5.428571429,1503,"1108","BOI","-","-","Please name all of the ways you could use this object. Keep in mind that one object can have many uses. Separate your responses with a comma.",NA,"y",11512,NA,NA,2422,10290,NA,NA,NA,"close, open, crack ",1
"AF6541","stma9x62ul","Affordance Norms_ILSTU",1,23,"2022-09-22T22:13:05+00:00",26.872539043427,37,"updated stim.csv","Version37.csv","Version 37","List 37","chair",NA,1110,6.88,485,"1111","BOI","-","-","Please name all of the ways you could use this object. Keep in mind that one object can have many uses. Separate your responses with a comma.",NA,"y",26593,NA,NA,1981,23047,NA,NA,NA,"sit, lay, block, swirl, rock back and forth ",1
"AF6541","stma9x62ul","Affordance Norms_ILSTU",1,24,"2022-09-22T22:13:16+00:00",10.745322942734,37,"updated stim.csv","Version37.csv","Version 37","List 37","jet",NA,1084,5.041666667,1383,"1085","BOI","-","-","Please name all of the ways you could use this object. Keep in mind that one object can have many uses. Separate your responses with a comma.",NA,"y",10469,NA,NA,7404,8656,NA,NA,NA,"spray",1
"AF6541","stma9x62ul","Affordance Norms_ILSTU",1,25,"2022-09-22T22:13:24+00:00",8.4510450363159,37,"updated stim.csv","Version37.csv","Version 37","List 37","dressing",NA,1098,5.08,845,"1099","BOI","-","-","Please name all of the ways you could use this object. Keep in mind that one object can have many uses. Separate your responses with a comma.",NA,"y",8175,NA,NA,4681,7269,NA,NA,NA,"on salads",1
"AF6541","stma9x62ul","Affordance Norms_ILSTU",1,26,"2022-09-22T22:13:49+00:00",24.493667840958,37,"updated stim.csv","Version37.csv","Version 37","List 37","greenery",NA,1103,4.375,1170,"1104","BOI","-","-","Please name all of the ways you could use this object. Keep in mind that one object can have many uses. Separate your responses with a comma.",NA,"y",23961,NA,NA,15088,22939,NA,NA,NA,"look pretty, decorate ",1
"AF6541","stma9x62ul","Affordance Norms_ILSTU",1,27,"2022-09-22T22:14:11+00:00",22.724992990494,37,"updated stim.csv","Version37.csv","Version 37","List 37","clover",NA,1089,4.695652174,574,"1090","BOI","-","-","Please name all of the ways you could use this object. Keep in mind that one object can have many uses. Separate your responses with a comma.",NA,"y",22121,NA,NA,12417,20999,NA,NA,NA,"wish, hold, collect, pull",1
"AF6541","stma9x62ul","Affordance Norms_ILSTU",1,28,"2022-09-22T22:14:40+00:00",28.941845178604,37,"updated stim.csv","Version37.csv","Version 37","List 37","rosary",NA,1082,5.791666667,2193,"1083","BOI","-","-","Please name all of the ways you could use this object. Keep in mind that one object can have many uses. Separate your responses with a comma.",NA,"y",28524,NA,NA,26248,27535,NA,NA,NA,"not sure ",1
"AF6541","stma9x62ul","Affordance Norms_ILSTU",1,29,"2022-09-22T22:14:55+00:00",14.583714962006,37,"updated stim.csv","Version37.csv","Version 37","List 37","critter",NA,1087,4.863636364,697,"1088","BOI","-","-","Please name all of the ways you could use this object. Keep in mind that one object can have many uses. Separate your responses with a comma.",NA,"y",14311,NA,NA,2665,4319,NA,NA,NA,"crawl",1
"AF6541","stma9x62ul","Affordance Norms_ILSTU",1,30,"2022-09-22T22:15:06+00:00",11.420697927475,37,"updated stim.csv","Version37.csv","Version 37","List 37","kneecap",NA,1092,5.714285714,1434,"1093","BOI","-","-","Please name all of the ways you could use this object. Keep in mind that one object can have many uses. Separate your responses with a comma.",NA,"y",11149,NA,NA,2577,7121,NA,NA,NA,"move, kneel",1
"AF6541","stma9x62ul","Affordance Norms_ILSTU",1,31,"2022-09-22T22:15:28+00:00",21.374716997147,37,"updated stim.csv","Version37.csv","Version 37","List 37","tummy",NA,1105,5.125,2796,"1106","BOI","-","-","Please name all of the ways you could use this object. Keep in mind that one object can have many uses. Separate your responses with a comma.",NA,"y",21094,NA,NA,3416,20104,NA,NA,NA,"squeeze, pull, push out, lay on, fill up ",1
"AF6541","stma9x62ul","Affordance Norms_ILSTU",1,32,"2022-09-22T22:15:48+00:00",19.991212129593,37,"updated stim.csv","Version37.csv","Version 37","List 37","elephant",NA,1108,4.36,900,"1109","BOI","-","-","Please name all of the ways you could use this object. Keep in mind that one object can have many uses. Separate your responses with a comma.",NA,"y",19626,NA,NA,7194,18719,NA,NA,NA,"ride, look at, play with",1
"AF6541","stma9x62ul","Affordance Norms_ILSTU",1,33,"2022-09-22T22:16:14+00:00",26.642536878586,37,"updated stim.csv","Version37.csv","Version 37","List 37","twig",NA,1109,5.28,2811,"1110","BOI","-","-","Please name all of the ways you could use this object. Keep in mind that one object can have many uses. Separate your responses with a comma.",NA,"y",26368,NA,NA,23393,25429,NA,NA,NA,"pull, grab",1
"AF6541","stma9x62ul","Affordance Norms_ILSTU",1,34,"2022-09-22T22:16:21+00:00",7.1585891246796,37,"updated stim.csv","Version37.csv","Version 37","List 37","locket",NA,1088,5.333333333,1537,"1089","BOI","-","-","Please name all of the ways you could use this object. Keep in mind that one object can have many uses. Separate your responses with a comma.",NA,"y",6878,NA,NA,5268,5654,NA,NA,NA,"lock",1
"AF6541","stma9x62ul","Affordance Norms_ILSTU",1,35,"2022-09-22T22:16:54+00:00",32.881592988968,37,"updated stim.csv","Version37.csv","Version 37","List 37","auto",NA,1096,4.391304348,100,"1097","BOI","-","-","Please name all of the ways you could use this object. Keep in mind that one object can have many uses. Separate your responses with a comma.",NA,"y",32606,NA,NA,22732,30080,NA,NA,NA,"mobile, do yourself ",1
"AF6541","stma9x62ul","Affordance Norms_ILSTU",1,36,"2022-09-22T22:17:08+00:00",13.457144975662,37,"updated stim.csv","Version37.csv","Version 37","List 37","stereo",NA,1102,5.68,2531,"1103","BOI","-","-","Please name all of the ways you could use this object. Keep in mind that one object can have many uses. Separate your responses with a comma.",NA,"y",13189,NA,NA,2563,10331,NA,NA,NA,"listen, play, dance",1
"AF6541","stma9x62ul","Affordance Norms_ILSTU",1,37,"2022-09-22T22:17:23+00:00",15.551610946655,37,"updated stim.csv","Version37.csv","Version 37","List 37","lamplight",NA,1095,4.291666667,1456,"1096","BOI","-","-","Please name all of the ways you could use this object. Keep in mind that one object can have many uses. Separate your responses with a comma.",NA,"y",15167,NA,NA,2566,10886,NA,NA,NA,"turn on and off, set down",1
"AF6541","stma9x62ul","Affordance Norms_ILSTU",1,38,"2022-09-22T22:17:38+00:00",15.003488063812,37,"updated stim.csv","Version37.csv","Version 37","List 37","tub",NA,1099,6.086956522,2789,"1100","BOI","-","-","Please name all of the ways you could use this object. Keep in mind that one object can have many uses. Separate your responses with a comma.",NA,"y",14721,NA,NA,4745,13832,NA,NA,NA,"put things in, lay in, store items ",1
"AF6541","stma9x62ul","Affordance Norms_ILSTU",1,39,"2022-09-22T22:17:53+00:00",15.001806974411,37,"updated stim.csv","Version37.csv","Version 37","List 37","pistachio",NA,1101,5.541666667,1978,"1102","BOI","-","-","Please name all of the ways you could use this object. Keep in mind that one object can have many uses. Separate your responses with a comma.",NA,"y",14725,NA,NA,3315,11584,NA,NA,NA,"eat, crack, spit, chew ",1
"AF6541","stma9x62ul","Affordance Norms_ILSTU",1,40,"2022-09-22T22:18:06+00:00",12.703233957291,37,"updated stim.csv","Version37.csv","Version 37","List 37","glue",NA,1106,5.043478261,1118,"1107","BOI","-","-","Please name all of the ways you could use this object. Keep in mind that one object can have many uses. Separate your responses with a comma.",NA,"y",12410,NA,NA,2313,10566,NA,NA,NA,"stick, hold together ",1
"AR0075","qkrdkpz92n","Affordance Norms_ILSTU",1,11,"2022-09-23T01:19:15+00:00",43.327024936676,41,"updated stim.csv","Version41.csv","Version 41","List 41","suitcase",NA,1202,6.08,2583,"1203","BOI","-","-","Please name all of the ways you could use this object. Keep in mind that one object can have many uses. Separate your responses with a comma.",NA,"y",43004,NA,NA,6618,25636,NA,NA,NA,"hold clothes, travel easily, storage",1
"AR0075","qkrdkpz92n","Affordance Norms_ILSTU",1,12,"2022-09-23T01:19:39+00:00",23.255821943283,41,"updated stim.csv","Version41.csv","Version 41","List 41","germ",NA,1220,4.333333333,1100,"1221","BOI","-","-","Please name all of the ways you could use this object. Keep in mind that one object can have many uses. Separate your responses with a comma.",NA,"y",22948,NA,NA,10306,15068,NA,NA,NA,"infection",1
"AR0075","qkrdkpz92n","Affordance Norms_ILSTU",1,13,"2022-09-23T01:20:36+00:00",57.101871013641,41,"updated stim.csv","Version41.csv","Version 41","List 41","taxi",NA,1226,5.464285714,2639,"1227","BOI","-","-","Please name all of the ways you could use this object. Keep in mind that one object can have many uses. Separate your responses with a comma.",NA,"y",56782,NA,NA,7054,50393,NA,NA,NA,"transport people, provide a wage, hold luggage, keep people safe",1
"AR0075","qkrdkpz92n","Affordance Norms_ILSTU",1,14,"2022-09-23T01:21:59+00:00",83.480870962143,41,"updated stim.csv","Version41.csv","Version 41","List 41","dildo",NA,1218,6.52173913,792,"1219","BOI","-","-","Please name all of the ways you could use this object. Keep in mind that one object can have many uses. Separate your responses with a comma.",NA,"y",83156,NA,NA,11693,81485,NA,NA,NA,"masturbation, sex",1
"AR0075","qkrdkpz92n","Affordance Norms_ILSTU",1,15,"2022-09-23T01:24:08+00:00",129.25043416023,41,"updated stim.csv","Version41.csv","Version 41","List 41","narcotics",NA,1225,4.956521739,1736,"1226","BOI","-","-","Please name all of the ways you could use this object. Keep in mind that one object can have many uses. Separate your responses with a comma.",NA,"y",128943,NA,NA,88633,123682,NA,NA,NA,"recreational drug use, changes mood, makes people feel good",1
"AR0075","qkrdkpz92n","Affordance Norms_ILSTU",1,16,"2022-09-23T01:25:57+00:00",108.81721401215,41,"updated stim.csv","Version41.csv","Version 41","List 41","chairwoman",NA,1219,4.347826087,488,"1220","BOI","-","-","Please name all of the ways you could use this object. Keep in mind that one object can have many uses. Separate your responses with a comma.",NA,"y",108509,NA,NA,78271,104296,NA,NA,NA,"leadership, participate on a committee, make decisions",1
"AR0075","qkrdkpz92n","Affordance Norms_ILSTU",1,17,"2022-09-23T01:26:34+00:00",36.739939928055,41,"updated stim.csv","Version41.csv","Version 41","List 41","backgammon",NA,1209,4.869565217,115,"1210","BOI","-","-","Please name all of the ways you could use this object. Keep in mind that one object can have many uses. Separate your responses with a comma.",NA,"y",36424,NA,NA,9213,35171,NA,NA,NA,"have fun, build community",1
"AR0075","qkrdkpz92n","Affordance Norms_ILSTU",1,18,"2022-09-23T01:27:24+00:00",49.836530923843,41,"updated stim.csv","Version41.csv","Version 41","List 41","gift",NA,1208,5.380952381,1102,"1209","BOI","-","-","Please name all of the ways you could use this object. Keep in mind that one object can have many uses. Separate your responses with a comma.",NA,"y",49521,NA,NA,4073,44893,NA,NA,NA,"show love and appreciation, celebrate ",1
"AR0075","qkrdkpz92n","Affordance Norms_ILSTU",1,19,"2022-09-23T01:28:11+00:00",47.695240974426,41,"updated stim.csv","Version41.csv","Version 41","List 41","train",NA,1201,5.333333333,2756,"1202","BOI","-","-","Please name all of the ways you could use this object. Keep in mind that one object can have many uses. Separate your responses with a comma.",NA,"y",47376,NA,NA,2034,43396,NA,NA,NA,"transport people and things, provide peoples salaries, store stuff",1
"AR0075","qkrdkpz92n","Affordance Norms_ILSTU",1,20,"2022-09-23T01:29:10+00:00",58.124278068542,41,"updated stim.csv","Version41.csv","Version 41","List 41","brickwork",NA,1215,4.777777778,319,"1216","BOI","-","-","Please name all of the ways you could use this object. Keep in mind that one object can have many uses. Separate your responses with a comma.",NA,"y",57791,NA,NA,27946,36571,NA,NA,NA,"keep structures up, decoration",1
"AR0075","qkrdkpz92n","Affordance Norms_ILSTU",1,21,"2022-09-23T01:30:15+00:00",65.130039930344,41,"updated stim.csv","Version41.csv","Version 41","List 41","broccoli",NA,1217,5.04,327,"1218","BOI","-","-","Please name all of the ways you could use this object. Keep in mind that one object can have many uses. Separate your responses with a comma.",NA,"y",64826,NA,NA,15227,63831,NA,NA,NA,"cooking, eating, nutrition, keeps people healthy",1
"AR0075","qkrdkpz92n","Affordance Norms_ILSTU",1,22,"2022-09-23T01:31:36+00:00",81.415202140808,41,"updated stim.csv","Version41.csv","Version 41","List 41","roommate",NA,1207,5.16,2189,"1208","BOI","-","-","Please name all of the ways you could use this object. Keep in mind that one object can have many uses. Separate your responses with a comma.",NA,"y",81106,NA,NA,28166,79905,NA,NA,NA,"split rent, companionship, cleaning, safety ",1
"AR0075","qkrdkpz92n","Affordance Norms_ILSTU",1,23,"2022-09-23T01:32:04+00:00",28.335606813431,41,"updated stim.csv","Version41.csv","Version 41","List 41","binoculars",NA,1205,6.16,218,"1206","BOI","-","-","Please name all of the ways you could use this object. Keep in mind that one object can have many uses. Separate your responses with a comma.",NA,"y",27983,NA,NA,12509,26958,NA,NA,NA,"make things easier to see, prop",1
"AR0075","qkrdkpz92n","Affordance Norms_ILSTU",1,24,"2022-09-23T01:32:49+00:00",44.292197227478,41,"updated stim.csv","Version41.csv","Version 41","List 41","bridegroom",NA,1213,4.384615385,320,"1214","BOI","-","-","Please name all of the ways you could use this object. Keep in mind that one object can have many uses. Separate your responses with a comma.",NA,"y",43981,NA,NA,37817,42546,NA,NA,NA,"married",1
"AR0075","qkrdkpz92n","Affordance Norms_ILSTU",1,25,"2022-09-23T01:33:49+00:00",60.353678941727,41,"updated stim.csv","Version41.csv","Version 41","List 41","game",NA,1214,4.518518519,1071,"1215","BOI","-","-","Please name all of the ways you could use this object. Keep in mind that one object can have many uses. Separate your responses with a comma.",NA,"y",60043,NA,NA,2016,54867,NA,NA,NA,"entertainment, education, form relationships, exercise",1
"AR0075","qkrdkpz92n","Affordance Norms_ILSTU",1,26,"2022-09-23T01:34:02+00:00",13.012438058853,41,"updated stim.csv","Version41.csv","Version 41","List 41","tricycle",NA,1210,6.173913043,2775,"1211","BOI","-","-","Please name all of the ways you could use this object. Keep in mind that one object can have many uses. Separate your responses with a comma.",NA,"y",12799,NA,NA,2820,5860,NA,NA,NA,"transportation",1
"AR0075","qkrdkpz92n","Affordance Norms_ILSTU",1,27,"2022-09-23T01:34:22+00:00",20.206959962845,41,"updated stim.csv","Version41.csv","Version 41","List 41","broach",NA,1228,5.041666667,326,"1229","BOI","-","-","Please name all of the ways you could use this object. Keep in mind that one object can have many uses. Separate your responses with a comma.",NA,"y",19899,NA,NA,2791,8824,NA,NA,NA,"decoration",1
"AR0075","qkrdkpz92n","Affordance Norms_ILSTU",1,28,"2022-09-23T01:35:33+00:00",70.756088972092,41,"updated stim.csv","Version41.csv","Version 41","List 41","salt",NA,1230,5.260869565,2227,"1231","BOI","-","-","Please name all of the ways you could use this object. Keep in mind that one object can have many uses. Separate your responses with a comma.",NA,"y",70440,NA,NA,8686,69004,NA,NA,NA,"provide electrolytes, season food, keep snow from sticking, make ice cream",1
"AR0075","qkrdkpz92n","Affordance Norms_ILSTU",1,29,"2022-09-23T01:35:56+00:00",22.548691987991,41,"updated stim.csv","Version41.csv","Version 41","List 41","tepee",NA,1206,4.916666667,2665,"1207","BOI","-","-","Please name all of the ways you could use this object. Keep in mind that one object can have many uses. Separate your responses with a comma.",NA,"y",22243,NA,NA,15888,21252,NA,NA,NA,"housing, cultural symbol",1
"AR0075","qkrdkpz92n","Affordance Norms_ILSTU",1,30,"2022-09-23T01:36:10+00:00",13.953269004822,41,"updated stim.csv","Version41.csv","Version 41","List 41","cologne",NA,1222,5.541666667,604,"1223","BOI","-","-","Please name all of the ways you could use this object. Keep in mind that one object can have many uses. Separate your responses with a comma.",NA,"y",13716,NA,NA,2974,12504,NA,NA,NA,"make people smell good, attract attention",1
"AR0075","qkrdkpz92n","Affordance Norms_ILSTU",1,31,"2022-09-23T01:36:31+00:00",21.084855079651,41,"updated stim.csv","Version41.csv","Version 41","List 41","horseshoe",NA,1223,5.2,1316,"1224","BOI","-","-","Please name all of the ways you could use this object. Keep in mind that one object can have many uses. Separate your responses with a comma.",NA,"y",20777,NA,NA,15692,19229,NA,NA,NA,"protect a horse foot",1
"AR0075","qkrdkpz92n","Affordance Norms_ILSTU",1,32,"2022-09-23T01:39:26+00:00",175.02818989754,41,"updated stim.csv","Version41.csv","Version 41","List 41","mammal",NA,1224,5.291666667,1585,"1225","BOI","-","-","Please name all of the ways you could use this object. Keep in mind that one object can have many uses. Separate your responses with a comma.",NA,"y",174708,NA,NA,142159,171519,NA,NA,NA,"pet, zoo animal, food chain",1
"AR0075","qkrdkpz92n","Affordance Norms_ILSTU",1,33,"2022-09-23T01:39:54+00:00",28.122689008713,41,"updated stim.csv","Version41.csv","Version 41","List 41","bulb",NA,1211,5.391304348,351,"1212","BOI","-","-","Please name all of the ways you could use this object. Keep in mind that one object can have many uses. Separate your responses with a comma.",NA,"y",27807,NA,NA,4365,7667,NA,NA,NA,"light rooms",1
"AR0075","qkrdkpz92n","Affordance Norms_ILSTU",1,34,"2022-09-23T01:40:15+00:00",21.328149080276,41,"updated stim.csv","Version41.csv","Version 41","List 41","calipers",NA,1204,4.666666667,403,"1205","BOI","-","-","Please name all of the ways you could use this object. Keep in mind that one object can have many uses. Separate your responses with a comma.",NA,"y",21012,NA,NA,16955,19875,NA,NA,NA,"measure things",1
"AR0075","qkrdkpz92n","Affordance Norms_ILSTU",1,35,"2022-09-23T01:42:12+00:00",116.66363692284,41,"updated stim.csv","Version41.csv","Version 41","List 41","damsel",NA,1203,4.652173913,752,"1204","BOI","-","-","Please name all of the ways you could use this object. Keep in mind that one object can have many uses. Separate your responses with a comma.",NA,"y",116340,NA,NA,110654,115182,NA,NA,NA,"women arent objects",1
"AR0075","qkrdkpz92n","Affordance Norms_ILSTU",1,36,"2022-09-23T01:43:16+00:00",63.908179998398,41,"updated stim.csv","Version41.csv","Version 41","List 41","lei",NA,1221,5.058823529,1488,"1222","BOI","-","-","Please name all of the ways you could use this object. Keep in mind that one object can have many uses. Separate your responses with a comma.",NA,"y",63567,NA,NA,16477,59820,NA,NA,NA,"cultural symbol, accessory",1
"AR0075","qkrdkpz92n","Affordance Norms_ILSTU",1,37,"2022-09-23T01:43:49+00:00",33.255359888077,41,"updated stim.csv","Version41.csv","Version 41","List 41","snail",NA,1227,4.52173913,2426,"1228","BOI","-","-","Please name all of the ways you could use this object. Keep in mind that one object can have many uses. Separate your responses with a comma.",NA,"y",32936,NA,NA,16951,30510,NA,NA,NA,"eating, cleaning fish tanks, pet",1
"AR0075","qkrdkpz92n","Affordance Norms_ILSTU",1,38,"2022-09-23T01:44:04+00:00",15.398415088654,41,"updated stim.csv","Version41.csv","Version 41","List 41","fedora",NA,1212,6.291666667,958,"1213","BOI","-","-","Please name all of the ways you could use this object. Keep in mind that one object can have many uses. Separate your responses with a comma.",NA,"y",15177,NA,NA,3749,11532,NA,NA,NA,"protect head, accessory",1
"AR0075","qkrdkpz92n","Affordance Norms_ILSTU",1,39,"2022-09-23T01:45:43+00:00",98.270838022232,41,"updated stim.csv","Version41.csv","Version 41","List 41","offspring",NA,1216,4.913043478,1801,"1217","BOI","-","-","Please name all of the ways you could use this object. Keep in mind that one object can have many uses. Separate your responses with a comma.",NA,"y",97932,NA,NA,69387,96152,NA,NA,NA,"taken care of, financial support in future",1
"AR0075","qkrdkpz92n","Affordance Norms_ILSTU",1,40,"2022-09-23T01:46:09+00:00",26.397469043732,41,"updated stim.csv","Version41.csv","Version 41","List 41","nutcracker",NA,1229,5.36,1790,"1230","BOI","-","-","Please name all of the ways you could use this object. Keep in mind that one object can have many uses. Separate your responses with a comma.",NA,"y",25119,NA,NA,3729,23084,NA,NA,NA,"open nuts, christmas decoration, entertainment",1
"BE3674","hb4idiog66","Affordance Norms_ILSTU",1,11,"2022-09-23T18:50:10+00:00",32.168519020081,44,"updated stim.csv","Version44.csv","Version 44","List 44","sauna",NA,1295,5.363636364,2251,"1296","BOI","-","-","Please name all of the ways you could use this object. Keep in mind that one object can have many uses. Separate your responses with a comma.",NA,"y",31985,NA,NA,2210,31773,NA,NA,NA,"steam, relax, meditate",1
"BE3674","hb4idiog66","Affordance Norms_ILSTU",1,12,"2022-09-23T18:50:18+00:00",8.3419330120087,44,"updated stim.csv","Version44.csv","Version 44","List 44","compass",NA,1308,5.538461538,612,"1309","BOI","-","-","Please name all of the ways you could use this object. Keep in mind that one object can have many uses. Separate your responses with a comma.",NA,"y",8224,NA,NA,1563,6207,NA,NA,NA,"direct, center, guide",1
"BE3674","hb4idiog66","Affordance Norms_ILSTU",1,13,"2022-09-23T18:50:33+00:00",14.923440933228,44,"updated stim.csv","Version44.csv","Version 44","List 44","watermelon",NA,1291,5.869565217,2911,"1292","BOI","-","-","Please name all of the ways you could use this object. Keep in mind that one object can have many uses. Separate your responses with a comma.",NA,"y",14802,NA,NA,1427,11043,NA,NA,NA,"eat, cut, refrigerate ",1
"BE3674","hb4idiog66","Affordance Norms_ILSTU",1,14,"2022-09-23T18:50:54+00:00",20.867181062698,44,"updated stim.csv","Version44.csv","Version 44","List 44","glassware",NA,1303,5.964285714,1113,"1304","BOI","-","-","Please name all of the ways you could use this object. Keep in mind that one object can have many uses. Separate your responses with a comma.",NA,"y",20679,NA,NA,3388,19508,NA,NA,NA,"clean, display, eat with",1
"BE3674","hb4idiog66","Affordance Norms_ILSTU",1,15,"2022-09-23T18:51:08+00:00",13.642420053482,44,"updated stim.csv","Version44.csv","Version 44","List 44","lyre",NA,1317,4.45,1561,"1318","BOI","-","-","Please name all of the ways you could use this object. Keep in mind that one object can have many uses. Separate your responses with a comma.",NA,"y",13519,NA,NA,8506,12897,NA,NA,NA,"compose, music",1
"BE3674","hb4idiog66","Affordance Norms_ILSTU",1,16,"2022-09-23T18:51:29+00:00",21.890257835388,44,"updated stim.csv","Version44.csv","Version 44","List 44","shortbread",NA,1314,5.416666667,2356,"1315","BOI","-","-","Please name all of the ways you could use this object. Keep in mind that one object can have many uses. Separate your responses with a comma.",NA,"y",21710,NA,NA,18411,20918,NA,NA,NA,"cook, bake, eat",1
"BE3674","hb4idiog66","Affordance Norms_ILSTU",1,17,"2022-09-23T18:51:41+00:00",11.538967132568,44,"updated stim.csv","Version44.csv","Version 44","List 44","cow",NA,1320,5.434782609,671,"1321","BOI","-","-","Please name all of the ways you could use this object. Keep in mind that one object can have many uses. Separate your responses with a comma.",NA,"y",11422,NA,NA,3521,11172,NA,NA,NA,"herd, farm, raise, pet, play",1
"BE3674","hb4idiog66","Affordance Norms_ILSTU",1,18,"2022-09-23T18:51:49+00:00",7.9186730384827,44,"updated stim.csv","Version44.csv","Version 44","List 44","cradle",NA,1306,5.652173913,678,"1307","BOI","-","-","Please name all of the ways you could use this object. Keep in mind that one object can have many uses. Separate your responses with a comma.",NA,"y",7798,NA,NA,3738,7543,NA,NA,NA,"crib, sleep, hold",1
"BE3674","hb4idiog66","Affordance Norms_ILSTU",1,19,"2022-09-23T18:51:55+00:00",6.1905348300934,44,"updated stim.csv","Version44.csv","Version 44","List 44","braid",NA,1318,5.64,301,"1319","BOI","-","-","Please name all of the ways you could use this object. Keep in mind that one object can have many uses. Separate your responses with a comma.",NA,"y",6071,NA,NA,2494,4854,NA,NA,NA,"hair, rope",1
"BE3674","hb4idiog66","Affordance Norms_ILSTU",1,20,"2022-09-23T18:52:00+00:00",4.8565440177917,44,"updated stim.csv","Version44.csv","Version 44","List 44","vodka",NA,1312,5.56,2872,"1313","BOI","-","-","Please name all of the ways you could use this object. Keep in mind that one object can have many uses. Separate your responses with a comma.",NA,"y",4735,NA,NA,1757,2569,NA,NA,NA,"drink",1
"BE3674","hb4idiog66","Affordance Norms_ILSTU",1,21,"2022-09-23T18:52:07+00:00",6.7966771125793,44,"updated stim.csv","Version44.csv","Version 44","List 44","carpeting",NA,1297,5.115384615,438,"1298","BOI","-","-","Please name all of the ways you could use this object. Keep in mind that one object can have many uses. Separate your responses with a comma.",NA,"y",6683,NA,NA,1550,6528,NA,NA,NA,"install, purchase",1
"BE3674","hb4idiog66","Affordance Norms_ILSTU",1,22,"2022-09-23T18:52:15+00:00",8.0671148300171,44,"updated stim.csv","Version44.csv","Version 44","List 44","yearbook",NA,1294,5.56,2992,"1295","BOI","-","-","Please name all of the ways you could use this object. Keep in mind that one object can have many uses. Separate your responses with a comma.",NA,"y",7944,NA,NA,1460,7693,NA,NA,NA,"sign, view, create",1
"BE3674","hb4idiog66","Affordance Norms_ILSTU",1,23,"2022-09-23T18:52:18+00:00",3.6953201293945,44,"updated stim.csv","Version44.csv","Version 44","List 44","cellophane",NA,1315,4.703703704,475,"1316","BOI","-","-","Please name all of the ways you could use this object. Keep in mind that one object can have many uses. Separate your responses with a comma.",NA,"y",3578,NA,NA,2639,3188,NA,NA,NA,"wrap",1
"BE3674","hb4idiog66","Affordance Norms_ILSTU",1,24,"2022-09-23T18:52:27+00:00",8.1989278793335,44,"updated stim.csv","Version44.csv","Version 44","List 44","oregano",NA,1302,5.64,1819,"1303","BOI","-","-","Please name all of the ways you could use this object. Keep in mind that one object can have many uses. Separate your responses with a comma.",NA,"y",8085,NA,NA,1471,7930,NA,NA,NA,"season, garnish, include",1
"BE3674","hb4idiog66","Affordance Norms_ILSTU",1,25,"2022-09-23T18:52:32+00:00",5.2305181026459,44,"updated stim.csv","Version44.csv","Version 44","List 44","handbag",NA,1293,6,1229,"1294","BOI","-","-","Please name all of the ways you could use this object. Keep in mind that one object can have many uses. Separate your responses with a comma.",NA,"y",5124,NA,NA,1260,4614,NA,NA,NA,"use, carry, buy",1
"BE3674","hb4idiog66","Affordance Norms_ILSTU",1,26,"2022-09-23T18:52:39+00:00",6.875077009201,44,"updated stim.csv","Version44.csv","Version 44","List 44","pillar",NA,1299,5.041666667,1961,"1300","BOI","-","-","Please name all of the ways you could use this object. Keep in mind that one object can have many uses. Separate your responses with a comma.",NA,"y",6753,NA,NA,1955,6338,NA,NA,NA,"support, contruct",1
"BE3674","hb4idiog66","Affordance Norms_ILSTU",1,27,"2022-09-23T18:52:42+00:00",3.4872479438782,44,"updated stim.csv","Version44.csv","Version 44","List 44","caviar",NA,1307,4.818181818,468,"1308","BOI","-","-","Please name all of the ways you could use this object. Keep in mind that one object can have many uses. Separate your responses with a comma.",NA,"y",3373,NA,NA,2113,2863,NA,NA,NA,"eat",1
"BE3674","hb4idiog66","Affordance Norms_ILSTU",1,28,"2022-09-23T18:52:47+00:00",5.0790121555328,44,"updated stim.csv","Version44.csv","Version 44","List 44","extinguisher",NA,1296,5.043478261,928,"1297","BOI","-","-","Please name all of the ways you could use this object. Keep in mind that one object can have many uses. Separate your responses with a comma.",NA,"y",4942,NA,NA,1602,4483,NA,NA,NA,"use, store",1
"BE3674","hb4idiog66","Affordance Norms_ILSTU",1,29,"2022-09-23T18:52:55+00:00",8.0364179611206,44,"updated stim.csv","Version44.csv","Version 44","List 44","porch",NA,1313,4.44,2036,"1314","BOI","-","-","Please name all of the ways you could use this object. Keep in mind that one object can have many uses. Separate your responses with a comma.",NA,"y",7848,NA,NA,1542,7386,NA,NA,NA,"sit, relax, talk, build",1
"BE3674","hb4idiog66","Affordance Norms_ILSTU",1,30,"2022-09-23T18:53:00+00:00",5.1250560283661,44,"updated stim.csv","Version44.csv","Version 44","List 44","barricade",NA,1319,4.28,155,"1320","BOI","-","-","Please name all of the ways you could use this object. Keep in mind that one object can have many uses. Separate your responses with a comma.",NA,"y",5015,NA,NA,1793,4765,NA,NA,NA,"create, protect",1
"BE3674","hb4idiog66","Affordance Norms_ILSTU",1,31,"2022-09-23T18:53:06+00:00",5.3052549362183,44,"updated stim.csv","Version44.csv","Version 44","List 44","pepper",NA,1298,5.875,1921,"1299","BOI","-","-","Please name all of the ways you could use this object. Keep in mind that one object can have many uses. Separate your responses with a comma.",NA,"y",5197,NA,NA,1138,4931,NA,NA,NA,"season, garnish",1
"BE3674","hb4idiog66","Affordance Norms_ILSTU",1,32,"2022-09-23T18:53:12+00:00",6.3919289112091,44,"updated stim.csv","Version44.csv","Version 44","List 44","residence",NA,1304,4.333333333,2157,"1305","BOI","-","-","Please name all of the ways you could use this object. Keep in mind that one object can have many uses. Separate your responses with a comma.",NA,"y",6268,NA,NA,1463,5878,NA,NA,NA,"live, build, buy, sell",1
"BE3674","hb4idiog66","Affordance Norms_ILSTU",1,33,"2022-09-23T18:53:25+00:00",12.750849962234,44,"updated stim.csv","Version44.csv","Version 44","List 44","headdress",NA,1305,5.541666667,1265,"1306","BOI","-","-","Please name all of the ways you could use this object. Keep in mind that one object can have many uses. Separate your responses with a comma.",NA,"y",12637,NA,NA,7283,11934,NA,NA,NA,"wear, ceremony",1
"BE3674","hb4idiog66","Affordance Norms_ILSTU",1,34,"2022-09-23T18:53:33+00:00",8.4575481414795,44,"updated stim.csv","Version44.csv","Version 44","List 44","footstool",NA,1311,6.304347826,1039,"1312","BOI","-","-","Please name all of the ways you could use this object. Keep in mind that one object can have many uses. Separate your responses with a comma.",NA,"y",8338,NA,NA,1675,7141,NA,NA,NA,"step-on",1
"BE3674","hb4idiog66","Affordance Norms_ILSTU",1,35,"2022-09-23T18:53:48+00:00",15.023661851883,44,"updated stim.csv","Version44.csv","Version 44","List 44","divorcee",NA,1301,4.5,807,"1302","BOI","-","-","Please name all of the ways you could use this object. Keep in mind that one object can have many uses. Separate your responses with a comma.",NA,"y",14902,NA,NA,11929,14496,NA,NA,NA,"manage, rethink",1
"BE3674","hb4idiog66","Affordance Norms_ILSTU",1,36,"2022-09-23T18:53:57+00:00",8.9138131141663,44,"updated stim.csv","Version44.csv","Version 44","List 44","cabin",NA,1316,4.56,388,"1317","BOI","-","-","Please name all of the ways you could use this object. Keep in mind that one object can have many uses. Separate your responses with a comma.",NA,"y",8793,NA,NA,2281,8602,NA,NA,NA,"build, create, live, decorate",1
"BE3674","hb4idiog66","Affordance Norms_ILSTU",1,37,"2022-09-23T18:54:03+00:00",5.1655149459839,44,"updated stim.csv","Version44.csv","Version 44","List 44","beer",NA,1309,5.791666667,192,"1310","BOI","-","-","Please name all of the ways you could use this object. Keep in mind that one object can have many uses. Separate your responses with a comma.",NA,"y",5054,NA,NA,1168,4623,NA,NA,NA,"drink, brew",1
"BE3674","hb4idiog66","Affordance Norms_ILSTU",1,38,"2022-09-23T18:54:16+00:00",13.220839977264,44,"updated stim.csv","Version44.csv","Version 44","List 44","pliers",NA,1300,6.086956522,2007,"1301","BOI","-","-","Please name all of the ways you could use this object. Keep in mind that one object can have many uses. Separate your responses with a comma.",NA,"y",13070,NA,NA,4053,12841,NA,NA,NA,"construction, trades, build",1
"BE3674","hb4idiog66","Affordance Norms_ILSTU",1,39,"2022-09-23T18:54:21+00:00",5.4606020450592,44,"updated stim.csv","Version44.csv","Version 44","List 44","newsman",NA,1310,4.285714286,1759,"1311","BOI","-","-","Please name all of the ways you could use this object. Keep in mind that one object can have many uses. Separate your responses with a comma.",NA,"y",5342,NA,NA,2156,4968,NA,NA,NA,"broadcast, inform",1
"BE3674","hb4idiog66","Affordance Norms_ILSTU",1,40,"2022-09-23T18:54:28+00:00",6.4469330310822,44,"updated stim.csv","Version44.csv","Version 44","List 44","racehorse",NA,1292,5.208333333,2118,"1293","BOI","-","-","Please name all of the ways you could use this object. Keep in mind that one object can have many uses. Separate your responses with a comma.",NA,"y",6319,NA,NA,1375,5260,NA,NA,NA,"race, run, complete",1
"CM1875","b9lsovh45f","Affordance Norms_ILSTU",1,11,"2022-09-23T19:45:37+00:00",20.122031927109,49,"updated stim.csv","Version49.csv","Version 49","List 49","washstand",NA,1446,4.652173913,2902,"1447","BOI","-","-","Please name all of the ways you could use this object. Keep in mind that one object can have many uses. Separate your responses with a comma.",NA,"y",19885,NA,NA,2417,18611,NA,NA,NA,"wash hands, clean, do make up, brush teeth",1
"CM1875","b9lsovh45f","Affordance Norms_ILSTU",1,12,"2022-09-23T19:45:52+00:00",15.04172205925,49,"updated stim.csv","Version49.csv","Version 49","List 49","wounds",NA,1464,4.391304348,2977,"1465","BOI","-","-","Please name all of the ways you could use this object. Keep in mind that one object can have many uses. Separate your responses with a comma.",NA,"y",14889,NA,NA,2105,13858,NA,NA,NA,"clean, dress, open, wrap, heal",1
"CM1875","b9lsovh45f","Affordance Norms_ILSTU",1,13,"2022-09-23T19:46:07+00:00",14.739526987076,49,"updated stim.csv","Version49.csv","Version 49","List 49","tugboat",NA,1457,4.555555556,2793,"1458","BOI","-","-","Please name all of the ways you could use this object. Keep in mind that one object can have many uses. Separate your responses with a comma.",NA,"y",14589,NA,NA,8045,13368,NA,NA,NA,"tow, row",1
"CM1875","b9lsovh45f","Affordance Norms_ILSTU",1,14,"2022-09-23T19:46:20+00:00",13.390820026398,49,"updated stim.csv","Version49.csv","Version 49","List 49","sneaker",NA,1443,6.48,2427,"1444","BOI","-","-","Please name all of the ways you could use this object. Keep in mind that one object can have many uses. Separate your responses with a comma.",NA,"y",13241,NA,NA,1656,12378,NA,NA,NA,"wear, tie, run, put on, take off",1
"CM1875","b9lsovh45f","Affordance Norms_ILSTU",1,15,"2022-09-23T19:49:00+00:00",159.817029953,49,"updated stim.csv","Version49.csv","Version 49","List 49","pillowcase",NA,1453,5.92,1963,"1454","BOI","-","-","Please name all of the ways you could use this object. Keep in mind that one object can have many uses. Separate your responses with a comma.",NA,"y",159365,NA,NA,13910,158263,NA,NA,NA,"sleep on, wash, put on, dry",1
"CM1875","b9lsovh45f","Affordance Norms_ILSTU",1,16,"2022-09-23T19:49:25+00:00",24.949249982834,49,"updated stim.csv","Version49.csv","Version 49","List 49","lawyer",NA,1452,4.625,1475,"1453","BOI","-","-","Please name all of the ways you could use this object. Keep in mind that one object can have many uses. Separate your responses with a comma.",NA,"y",24701,NA,NA,8163,23664,NA,NA,NA,"defend yourself, financial help",1
"CM1875","b9lsovh45f","Affordance Norms_ILSTU",1,17,"2022-09-23T19:49:31+00:00",5.684839963913,49,"updated stim.csv","Version49.csv","Version 49","List 49","lobe",NA,1447,4.47826087,1533,"1448","BOI","-","-","Please name all of the ways you could use this object. Keep in mind that one object can have many uses. Separate your responses with a comma.",NA,"y",5532,NA,NA,2993,4362,NA,NA,NA,"listen",1
"CM1875","b9lsovh45f","Affordance Norms_ILSTU",1,18,"2022-09-23T19:49:53+00:00",21.637233018875,49,"updated stim.csv","Version49.csv","Version 49","List 49","absinthe",NA,1468,4.590909091,3,"1469","BOI","-","-","Please name all of the ways you could use this object. Keep in mind that one object can have many uses. Separate your responses with a comma.",NA,"y",21400,NA,NA,4943,20440,NA,NA,NA,"drink, die, drunk",1
"CM1875","b9lsovh45f","Affordance Norms_ILSTU",1,19,"2022-09-23T19:50:25+00:00",32.138436079025,49,"updated stim.csv","Version49.csv","Version 49","List 49","lady",NA,1448,5.32,1449,"1449","BOI","-","-","Please name all of the ways you could use this object. Keep in mind that one object can have many uses. Separate your responses with a comma.",NA,"y",31893,NA,NA,26065,31205,NA,NA,NA,"marry, befriend",1
"CM1875","b9lsovh45f","Affordance Norms_ILSTU",1,20,"2022-09-23T19:50:37+00:00",12.5825278759,49,"updated stim.csv","Version49.csv","Version 49","List 49","Food",NA,1459,6.470350404,1027,"1460","BOI","-","-","Please name all of the ways you could use this object. Keep in mind that one object can have many uses. Separate your responses with a comma.",NA,"y",12432,NA,NA,1658,8272,NA,NA,NA,"eat, cook, throw out, heat up",1
"CM1875","b9lsovh45f","Affordance Norms_ILSTU",1,21,"2022-09-23T19:50:52+00:00",15.141528129578,49,"updated stim.csv","Version49.csv","Version 49","List 49","pushcart",NA,1470,5.272727273,2106,"1471","BOI","-","-","Please name all of the ways you could use this object. Keep in mind that one object can have many uses. Separate your responses with a comma.",NA,"y",14923,NA,NA,3595,14057,NA,NA,NA,"carry things, haul, push",1
"CM1875","b9lsovh45f","Affordance Norms_ILSTU",1,22,"2022-09-23T19:51:04+00:00",11.971176862717,49,"updated stim.csv","Version49.csv","Version 49","List 49","scissor",NA,1467,6.173913043,2275,"1468","BOI","-","-","Please name all of the ways you could use this object. Keep in mind that one object can have many uses. Separate your responses with a comma.",NA,"y",11816,NA,NA,2445,8985,NA,NA,NA,"cut, stab, open things",1
"CM1875","b9lsovh45f","Affordance Norms_ILSTU",1,23,"2022-09-23T19:51:17+00:00",12.660994052887,49,"updated stim.csv","Version49.csv","Version 49","List 49","soles",NA,1462,4.913043478,2447,"1463","BOI","-","-","Please name all of the ways you could use this object. Keep in mind that one object can have many uses. Separate your responses with a comma.",NA,"y",12510,NA,NA,3363,11678,NA,NA,NA,"walk on, run on",1
"CM1875","b9lsovh45f","Affordance Norms_ILSTU",1,24,"2022-09-23T19:51:28+00:00",10.840297937393,49,"updated stim.csv","Version49.csv","Version 49","List 49","maple",NA,1455,4.32,1601,"1456","BOI","-","-","Please name all of the ways you could use this object. Keep in mind that one object can have many uses. Separate your responses with a comma.",NA,"y",10691,NA,NA,2192,10015,NA,NA,NA,"syrup, leaves",1
"CM1875","b9lsovh45f","Affordance Norms_ILSTU",1,25,"2022-09-23T19:51:47+00:00",19.598398208618,49,"updated stim.csv","Version49.csv","Version 49","List 49","eyedrop",NA,1442,5.48,932,"1443","BOI","-","-","Please name all of the ways you could use this object. Keep in mind that one object can have many uses. Separate your responses with a comma.",NA,"y",19445,NA,NA,5032,18418,NA,NA,NA,"fix, wet eyes, relieve pain",1
"CM1875","b9lsovh45f","Affordance Norms_ILSTU",1,26,"2022-09-23T19:51:56+00:00",8.2423269748688,49,"updated stim.csv","Version49.csv","Version 49","List 49","doghouse",NA,1445,5.076923077,813,"1446","BOI","-","-","Please name all of the ways you could use this object. Keep in mind that one object can have many uses. Separate your responses with a comma.",NA,"y",8093,NA,NA,2282,6468,NA,NA,NA,"sleep in, build",1
"CM1875","b9lsovh45f","Affordance Norms_ILSTU",1,27,"2022-09-23T19:52:06+00:00",10.757033824921,49,"updated stim.csv","Version49.csv","Version 49","List 49","neckwear",NA,1466,5.652173913,1743,"1467","BOI","-","-","Please name all of the ways you could use this object. Keep in mind that one object can have many uses. Separate your responses with a comma.",NA,"y",10607,NA,NA,1879,9673,NA,NA,NA,"wear, style, take off",1
"CM1875","b9lsovh45f","Affordance Norms_ILSTU",1,28,"2022-09-23T19:52:18+00:00",11.040760040283,49,"updated stim.csv","Version49.csv","Version 49","List 49","boathouse",NA,1469,4.52173913,256,"1470","BOI","-","-","Please name all of the ways you could use this object. Keep in mind that one object can have many uses. Separate your responses with a comma.",NA,"y",10891,NA,NA,2569,10170,NA,NA,NA,"store boat, live in, clean, build",1
"CM1875","b9lsovh45f","Affordance Norms_ILSTU",1,29,"2022-09-23T19:52:32+00:00",14.103778123856,49,"updated stim.csv","Version49.csv","Version 49","List 49","thumb",NA,1465,6.357142857,2687,"1466","BOI","-","-","Please name all of the ways you could use this object. Keep in mind that one object can have many uses. Separate your responses with a comma.",NA,"y",13947,NA,NA,2576,13164,NA,NA,NA,"poke, cut nail, move",1
"CM1875","b9lsovh45f","Affordance Norms_ILSTU",1,30,"2022-09-23T19:53:06+00:00",34.491209030151,49,"updated stim.csv","Version49.csv","Version 49","List 49","sweetener",NA,1449,5.2,2606,"1450","BOI","-","-","Please name all of the ways you could use this object. Keep in mind that one object can have many uses. Separate your responses with a comma.",NA,"y",34241,NA,NA,25170,33342,NA,NA,NA,"use in coffee, eat, ingest",1
"CM1875","b9lsovh45f","Affordance Norms_ILSTU",1,31,"2022-09-23T19:53:17+00:00",10.690552949905,49,"updated stim.csv","Version49.csv","Version 49","List 49","icing",NA,1460,4.76,1348,"1461","BOI","-","-","Please name all of the ways you could use this object. Keep in mind that one object can have many uses. Separate your responses with a comma.",NA,"y",10531,NA,NA,2793,9426,NA,NA,NA,"lick, decorate",1
"CM1875","b9lsovh45f","Affordance Norms_ILSTU",1,32,"2022-09-23T19:53:52+00:00",35.660950899124,49,"updated stim.csv","Version49.csv","Version 49","List 49","Leaf",NA,1450,5.584345479,1477,"1451","BOI","-","-","Please name all of the ways you could use this object. Keep in mind that one object can have many uses. Separate your responses with a comma.",NA,"y",35398,NA,NA,4169,34446,NA,NA,NA,"pick, throw, make a pile, crush",1
"CM1875","b9lsovh45f","Affordance Norms_ILSTU",1,33,"2022-09-23T19:54:02+00:00",9.8689570426941,49,"updated stim.csv","Version49.csv","Version 49","List 49","fixture",NA,1451,5,994,"1452","BOI","-","-","Please name all of the ways you could use this object. Keep in mind that one object can have many uses. Separate your responses with a comma.",NA,"y",9710,NA,NA,1946,8569,NA,NA,NA,"turn on, turn off, put up",1
"CM1875","b9lsovh45f","Affordance Norms_ILSTU",1,34,"2022-09-23T19:54:27+00:00",24.747447013855,49,"updated stim.csv","Version49.csv","Version 49","List 49","staff",NA,1454,4.928571429,2496,"1455","BOI","-","-","Please name all of the ways you could use this object. Keep in mind that one object can have many uses. Separate your responses with a comma.",NA,"y",24497,NA,NA,18426,23510,NA,NA,NA,"hold things up, hire, fire",1
"CM1875","b9lsovh45f","Affordance Norms_ILSTU",1,35,"2022-09-23T19:54:35+00:00",8.2955861091614,49,"updated stim.csv","Version49.csv","Version 49","List 49","stomp",NA,1444,4.321428571,2544,"1445","BOI","-","-","Please name all of the ways you could use this object. Keep in mind that one object can have many uses. Separate your responses with a comma.",NA,"y",8132,NA,NA,-1,-1,NA,NA,NA,"",1
"CM1875","b9lsovh45f","Affordance Norms_ILSTU",1,36,"2022-09-23T19:54:41+00:00",6.0961418151855,49,"updated stim.csv","Version49.csv","Version 49","List 49","gavel",NA,1463,4.545454545,1089,"1464","BOI","-","-","Please name all of the ways you could use this object. Keep in mind that one object can have many uses. Separate your responses with a comma.",NA,"y",5776,NA,NA,2912,3447,NA,NA,NA,"bang",1
"CM1875","b9lsovh45f","Affordance Norms_ILSTU",1,37,"2022-09-23T19:54:50+00:00",8.2110509872437,49,"updated stim.csv","Version49.csv","Version 49","List 49","opium",NA,1441,4.269230769,1812,"1442","BOI","-","-","Please name all of the ways you could use this object. Keep in mind that one object can have many uses. Separate your responses with a comma.",NA,"y",7953,NA,NA,2435,6933,NA,NA,NA,"smoke, cook, ingest",1
"CM1875","b9lsovh45f","Affordance Norms_ILSTU",1,38,"2022-09-23T19:54:53+00:00",2.8597211837769,49,"updated stim.csv","Version49.csv","Version 49","List 49","latrine",NA,1458,6.333333333,1471,"1459","BOI","-","-","Please name all of the ways you could use this object. Keep in mind that one object can have many uses. Separate your responses with a comma.",NA,"y",2700,NA,NA,-1,-1,NA,NA,NA,"",1
"CM1875","b9lsovh45f","Affordance Norms_ILSTU",1,39,"2022-09-23T19:55:08+00:00",15.210451841354,49,"updated stim.csv","Version49.csv","Version 49","List 49","abdomen",NA,1456,5.434782609,2,"1457","BOI","-","-","Please name all of the ways you could use this object. Keep in mind that one object can have many uses. Separate your responses with a comma.",NA,"y",15052,NA,NA,3508,14187,NA,NA,NA,"work out, pierce, surgery",1
"CM1875","b9lsovh45f","Affordance Norms_ILSTU",1,40,"2022-09-23T19:55:15+00:00",7.554486989975,49,"updated stim.csv","Version49.csv","Version 49","List 49","finger",NA,1461,6,977,"1462","BOI","-","-","Please name all of the ways you could use this object. Keep in mind that one object can have many uses. Separate your responses with a comma.",NA,"y",7379,NA,NA,1766,6500,NA,NA,NA,"point, bend, break",1
"CW5888","hoee3wdo8x","Affordance Norms_ILSTU",1,11,"2022-09-22T20:54:03+00:00",13.012174844742,34,"updated stim.csv","Version34.csv","Version 34","List 34","wallpaper",NA,1000,4.875,2889,"1001","BOI","-","-","Please name all of the ways you could use this object. Keep in mind that one object can have many uses. Separate your responses with a comma.",NA,"y",12606,NA,NA,2080,9524,NA,NA,NA,"plaster, hang, stick",1
"CW5888","hoee3wdo8x","Affordance Norms_ILSTU",1,12,"2022-09-22T20:54:25+00:00",22.059739112854,34,"updated stim.csv","Version34.csv","Version 34","List 34","gravy",NA,1019,5.333333333,1167,"1020","BOI","-","-","Please name all of the ways you could use this object. Keep in mind that one object can have many uses. Separate your responses with a comma.",NA,"y",21602,NA,NA,2821,20440,NA,NA,NA,"pour, scoop, warm, cook",1
"CW5888","hoee3wdo8x","Affordance Norms_ILSTU",1,13,"2022-09-22T20:54:35+00:00",9.9707300662994,34,"updated stim.csv","Version34.csv","Version 34","List 34","pinwheel",NA,1002,5.8,1975,"1003","BOI","-","-","Please name all of the ways you could use this object. Keep in mind that one object can have many uses. Separate your responses with a comma.",NA,"y",9527,NA,NA,4893,8547,NA,NA,NA,"wind, decoration",1
"CW5888","hoee3wdo8x","Affordance Norms_ILSTU",1,14,"2022-09-22T20:55:02+00:00",27.295591831207,34,"updated stim.csv","Version34.csv","Version 34","List 34","gold",NA,1004,4.75,1132,"1005","BOI","-","-","Please name all of the ways you could use this object. Keep in mind that one object can have many uses. Separate your responses with a comma.",NA,"y",26808,NA,NA,1697,26614,NA,NA,NA,"wear, make, decorate, money, mine",1
"CW5888","hoee3wdo8x","Affordance Norms_ILSTU",1,15,"2022-09-22T20:55:08+00:00",5.2632410526276,34,"updated stim.csv","Version34.csv","Version 34","List 34","mandolin",NA,1011,5.304347826,1587,"1012","BOI","-","-","Please name all of the ways you could use this object. Keep in mind that one object can have many uses. Separate your responses with a comma.",NA,"y",4824,NA,NA,3781,4486,NA,NA,NA,"play",1
"CW5888","hoee3wdo8x","Affordance Norms_ILSTU",1,17,"2022-09-22T20:55:52+00:00",34.364048957825,34,"updated stim.csv","Version34.csv","Version 34","List 34","wafer",NA,1017,5.909090909,2877,"1018","BOI","-","-","Please name all of the ways you could use this object. Keep in mind that one object can have many uses. Separate your responses with a comma.",NA,"y",33987,NA,NA,1601,2660,NA,NA,NA,"eat",1
"CW5888","hoee3wdo8x","Affordance Norms_ILSTU",1,19,"2022-09-22T20:57:12+00:00",70.648890972137,34,"updated stim.csv","Version34.csv","Version 34","List 34","jaw",NA,1009,5.5,1376,"1010","BOI","-","-","Please name all of the ways you could use this object. Keep in mind that one object can have many uses. Separate your responses with a comma.",NA,"y",70237,NA,NA,64445,68396,NA,NA,NA,"chew, talk, move, pop",1
"CW5888","hoee3wdo8x","Affordance Norms_ILSTU",1,21,"2022-09-22T20:57:30+00:00",9.1614520549774,34,"updated stim.csv","Version34.csv","Version 34","List 34","anklet",NA,1020,5.708333333,43,"1021","BOI","-","-","Please name all of the ways you could use this object. Keep in mind that one object can have many uses. Separate your responses with a comma.",NA,"y",8761,NA,NA,1453,8552,NA,NA,NA,"wear, style, design",1
"CW5888","hoee3wdo8x","Affordance Norms_ILSTU",1,22,"2022-09-22T20:57:40+00:00",9.5338349342346,34,"updated stim.csv","Version34.csv","Version 34","List 34","hammock",NA,1008,6.166666667,1224,"1009","BOI","-","-","Please name all of the ways you could use this object. Keep in mind that one object can have many uses. Separate your responses with a comma.",NA,"y",9108,NA,NA,1461,8739,NA,NA,NA,"lay, rock, sit, relax",1
"CW5888","hoee3wdo8x","Affordance Norms_ILSTU",1,23,"2022-09-22T20:57:46+00:00",6.1452171802521,34,"updated stim.csv","Version34.csv","Version 34","List 34","catfish",NA,1016,5,459,"1017","BOI","-","-","Please name all of the ways you could use this object. Keep in mind that one object can have many uses. Separate your responses with a comma.",NA,"y",5743,NA,NA,1383,5520,NA,NA,NA,"eat, catch, boil, bake, cook",1
"CW5888","hoee3wdo8x","Affordance Norms_ILSTU",1,26,"2022-09-22T20:58:18+00:00",8.560800075531,34,"updated stim.csv","Version34.csv","Version 34","List 34","mutt",NA,1014,4.958333333,1728,"1015","BOI","-","-","Please name all of the ways you could use this object. Keep in mind that one object can have many uses. Separate your responses with a comma.",NA,"y",8178,NA,NA,1996,7877,NA,NA,NA,"walk, bark, run, pant",1
"CW5888","hoee3wdo8x","Affordance Norms_ILSTU",1,27,"2022-09-22T20:58:35+00:00",17.56094789505,34,"updated stim.csv","Version34.csv","Version 34","List 34","nectar",NA,1005,4.608695652,1744,"1006","BOI","-","-","Please name all of the ways you could use this object. Keep in mind that one object can have many uses. Separate your responses with a comma.",NA,"y",17229,NA,NA,7677,17123,NA,NA,NA,"eat, harvest, drizzle",1
"CW5888","hoee3wdo8x","Affordance Norms_ILSTU",1,28,"2022-09-22T20:58:38+00:00",2.4299011230469,34,"updated stim.csv","Version34.csv","Version 34","List 34","lobbyist",NA,1012,4.4,1532,"1013","BOI","-","-","Please name all of the ways you could use this object. Keep in mind that one object can have many uses. Separate your responses with a comma.",NA,"y",2216,NA,NA,1846,2027,NA,NA,NA,"idk",1
"CW5888","hoee3wdo8x","Affordance Norms_ILSTU",1,29,"2022-09-22T20:58:52+00:00",14.227293014526,34,"updated stim.csv","Version34.csv","Version 34","List 34","shelf",NA,1018,4.782608696,2332,"1019","BOI","-","-","Please name all of the ways you could use this object. Keep in mind that one object can have many uses. Separate your responses with a comma.",NA,"y",13737,NA,NA,1599,13564,NA,NA,NA,"rest, fill, decorate, store",1
"CW5888","hoee3wdo8x","Affordance Norms_ILSTU",1,30,"2022-09-22T20:59:05+00:00",12.965246915817,34,"updated stim.csv","Version34.csv","Version 34","List 34","labrador",NA,1001,5.074074074,1444,"1002","BOI","-","-","Please name all of the ways you could use this object. Keep in mind that one object can have many uses. Separate your responses with a comma.",NA,"y",12636,NA,NA,3928,10338,NA,NA,NA,"bark, run, walk, pant, drink, eat",1
"CW5888","hoee3wdo8x","Affordance Norms_ILSTU",1,31,"2022-09-22T20:59:12+00:00",7.2366569042206,34,"updated stim.csv","Version34.csv","Version 34","List 34","tongue",NA,1013,5.928571429,2728,"1014","BOI","-","-","Please name all of the ways you could use this object. Keep in mind that one object can have many uses. Separate your responses with a comma.",NA,"y",6747,NA,NA,2143,6495,NA,NA,NA,"eat, chew, move, talk",1
"CW5888","hoee3wdo8x","Affordance Norms_ILSTU",1,32,"2022-09-22T20:59:15+00:00",2.7233381271362,34,"updated stim.csv","Version34.csv","Version 34","List 34","loincloth",NA,1007,4.833333333,1544,"1008","BOI","-","-","Please name all of the ways you could use this object. Keep in mind that one object can have many uses. Separate your responses with a comma.",NA,"y",2486,NA,NA,1669,1912,NA,NA,NA,"idk",1
"CW5888","hoee3wdo8x","Affordance Norms_ILSTU",1,34,"2022-09-22T20:59:31+00:00",4.4574599266052,34,"updated stim.csv","Version34.csv","Version 34","List 34","phonograph",NA,1006,4.423076923,1941,"1007","BOI","-","-","Please name all of the ways you could use this object. Keep in mind that one object can have many uses. Separate your responses with a comma.",NA,"y",4049,NA,NA,2856,3871,NA,NA,NA,"message",1
"CW5888","hoee3wdo8x","Affordance Norms_ILSTU",1,36,"2022-09-22T20:59:53+00:00",9.9744758605957,34,"updated stim.csv","Version34.csv","Version 34","List 34","bellflower",NA,1010,4.428571429,198,"1011","BOI","-","-","Please name all of the ways you could use this object. Keep in mind that one object can have many uses. Separate your responses with a comma.",NA,"y",9651,NA,NA,3503,8079,NA,NA,NA,"decor, grow",1
"CW5888","hoee3wdo8x","Affordance Norms_ILSTU",1,38,"2022-09-22T21:00:10+00:00",4.1448562145233,34,"updated stim.csv","Version34.csv","Version 34","List 34","macaroon",NA,1003,4.346153846,1563,"1004","BOI","-","-","Please name all of the ways you could use this object. Keep in mind that one object can have many uses. Separate your responses with a comma.",NA,"y",3849,NA,NA,2419,2782,NA,NA,NA,"eat",1
"CW5888","hoee3wdo8x","Affordance Norms_ILSTU",1,39,"2022-09-22T21:00:27+00:00",16.794479846954,34,"updated stim.csv","Version34.csv","Version 34","List 34","shower",NA,1015,5.391304348,2364,"1016","BOI","-","-","Please name all of the ways you could use this object. Keep in mind that one object can have many uses. Separate your responses with a comma.",NA,"y",16449,NA,NA,1606,16160,NA,NA,NA,"wash, clean, water",1
"CW5888","hoee3wdo8x","Affordance Norms_ILSTU",1,40,"2022-09-22T21:00:37+00:00",10.345015048981,34,"updated stim.csv","Version34.csv","Version 34","List 34","scoop",NA,999,4.28,2277,"1000","BOI","-","-","Please name all of the ways you could use this object. Keep in mind that one object can have many uses. Separate your responses with a comma.",NA,"y",9961,NA,NA,7012,8236,NA,NA,NA,"pick up",1
"EB2483","9a6a96k1lq","Affordance Norms_ILSTU",1,11,"2022-09-22T02:34:16+00:00",35.373997926712,7,"updated stim.csv","Version7.csv","Version 7","List 7","people",NA,205,6.076923077,1920,"206","BOI","-","-","Please name all of the ways you could use this object. Keep in mind that one object can have many uses. Separate your responses with a comma.",NA,"y",35161,NA,NA,23605,34588,NA,NA,NA,"experiments, friends, family, experience",1
"EB2483","9a6a96k1lq","Affordance Norms_ILSTU",1,12,"2022-09-22T02:34:43+00:00",26.963640213013,7,"updated stim.csv","Version7.csv","Version 7","List 7","conductor",NA,203,4.75,624,"204","BOI","-","-","Please name all of the ways you could use this object. Keep in mind that one object can have many uses. Separate your responses with a comma.",NA,"y",26714,NA,NA,1642,26023,NA,NA,NA,"train, music, electricity?",1
"EB2483","9a6a96k1lq","Affordance Norms_ILSTU",1,13,"2022-09-22T02:35:12+00:00",29.400970935822,7,"updated stim.csv","Version7.csv","Version 7","List 7","storeroom",NA,191,4.655172414,2553,"192","BOI","-","-","Please name all of the ways you could use this object. Keep in mind that one object can have many uses. Separate your responses with a comma.",NA,"y",29144,NA,NA,15358,28615,NA,NA,NA,"storage",1
"EB2483","9a6a96k1lq","Affordance Norms_ILSTU",1,14,"2022-09-22T02:35:26+00:00",14.293427944183,7,"updated stim.csv","Version7.csv","Version 7","List 7","silk",NA,181,4.8,2381,"182","BOI","-","-","Please name all of the ways you could use this object. Keep in mind that one object can have many uses. Separate your responses with a comma.",NA,"y",14152,NA,NA,2434,13376,NA,NA,NA,"trade, sheets, shirts, robes, dresses",1
"EB2483","9a6a96k1lq","Affordance Norms_ILSTU",1,15,"2022-09-22T02:35:51+00:00",24.343652963638,7,"updated stim.csv","Version7.csv","Version 7","List 7","motorboat",NA,182,5.304347826,1695,"183","BOI","-","-","Please name all of the ways you could use this object. Keep in mind that one object can have many uses. Separate your responses with a comma.",NA,"y",24128,NA,NA,20332,22818,NA,NA,NA,"summer activity",1
"EB2483","9a6a96k1lq","Affordance Norms_ILSTU",1,16,"2022-09-22T02:36:30+00:00",39.704350948334,7,"updated stim.csv","Version7.csv","Version 7","List 7","radish",NA,188,5.846153846,2124,"189","BOI","-","-","Please name all of the ways you could use this object. Keep in mind that one object can have many uses. Separate your responses with a comma.",NA,"y",39498,NA,NA,4812,38126,NA,NA,NA,"food, medicine",1
"EB2483","9a6a96k1lq","Affordance Norms_ILSTU",1,17,"2022-09-22T02:37:02+00:00",31.865327119827,7,"updated stim.csv","Version7.csv","Version 7","List 7","grapevine",NA,186,4.869565217,1158,"187","BOI","-","-","Please name all of the ways you could use this object. Keep in mind that one object can have many uses. Separate your responses with a comma.",NA,"y",31651,NA,NA,22250,30533,NA,NA,NA,"gossip,plant",1
"EB2483","9a6a96k1lq","Affordance Norms_ILSTU",1,18,"2022-09-22T02:37:14+00:00",11.374269962311,7,"updated stim.csv","Version7.csv","Version 7","List 7","controller",NA,202,5.458333333,630,"203","BOI","-","-","Please name all of the ways you could use this object. Keep in mind that one object can have many uses. Separate your responses with a comma.",NA,"y",11242,NA,NA,2408,9739,NA,NA,NA,"gaming, tv",1
"EB2483","9a6a96k1lq","Affordance Norms_ILSTU",1,19,"2022-09-22T02:37:27+00:00",13.192821025848,7,"updated stim.csv","Version7.csv","Version 7","List 7","banquet",NA,201,4.538461538,145,"202","BOI","-","-","Please name all of the ways you could use this object. Keep in mind that one object can have many uses. Separate your responses with a comma.",NA,"y",13080,NA,NA,3777,12692,NA,NA,NA,"dances, birthdays, events",1
"EB2483","9a6a96k1lq","Affordance Norms_ILSTU",1,20,"2022-09-22T02:37:33+00:00",6.4121699333191,7,"updated stim.csv","Version7.csv","Version 7","List 7","eyelid",NA,196,5.52173913,936,"197","BOI","-","-","Please name all of the ways you could use this object. Keep in mind that one object can have many uses. Separate your responses with a comma.",NA,"y",6299,NA,NA,2419,5778,NA,NA,NA,"closing, opening",1
"EB2483","9a6a96k1lq","Affordance Norms_ILSTU",1,21,"2022-09-22T02:38:17+00:00",44.197251081467,7,"updated stim.csv","Version7.csv","Version 7","List 7","peanut",NA,185,6.192307692,1893,"186","BOI","-","-","Please name all of the ways you could use this object. Keep in mind that one object can have many uses. Separate your responses with a comma.",NA,"y",43996,NA,NA,5122,42507,NA,NA,NA,"peanut butter, birdseed, food",1
"EB2483","9a6a96k1lq","Affordance Norms_ILSTU",1,22,"2022-09-22T02:38:25+00:00",7.4909811019897,7,"updated stim.csv","Version7.csv","Version 7","List 7","salesman",NA,206,4.84,2222,"207","BOI","-","-","Please name all of the ways you could use this object. Keep in mind that one object can have many uses. Separate your responses with a comma.",NA,"y",7348,NA,NA,1482,4695,NA,NA,NA,"selling things",1
"EB2483","9a6a96k1lq","Affordance Norms_ILSTU",1,23,"2022-09-22T02:38:43+00:00",18.082333803177,7,"updated stim.csv","Version7.csv","Version 7","List 7","medic",NA,207,5.217391304,1636,"208","BOI","-","-","Please name all of the ways you could use this object. Keep in mind that one object can have many uses. Separate your responses with a comma.",NA,"y",17955,NA,NA,12229,17077,NA,NA,NA,"when you or someone needs help",1
"EB2483","9a6a96k1lq","Affordance Norms_ILSTU",1,24,"2022-09-22T02:39:08+00:00",24.761528015137,7,"updated stim.csv","Version7.csv","Version 7","List 7","daddy",NA,183,5.24,745,"184","BOI","-","-","Please name all of the ways you could use this object. Keep in mind that one object can have many uses. Separate your responses with a comma.",NA,"y",24583,NA,NA,16881,23793,NA,NA,NA,"not sure",1
"EB2483","9a6a96k1lq","Affordance Norms_ILSTU",1,25,"2022-09-22T02:39:40+00:00",32.122596979141,7,"updated stim.csv","Version7.csv","Version 7","List 7","mulch",NA,208,4.625,1715,"209","BOI","-","-","Please name all of the ways you could use this object. Keep in mind that one object can have many uses. Separate your responses with a comma.",NA,"y",31911,NA,NA,23083,30375,NA,NA,NA,"gardening, landscaping",1
"EB2483","9a6a96k1lq","Affordance Norms_ILSTU",1,26,"2022-09-22T02:39:55+00:00",14.77646112442,7,"updated stim.csv","Version7.csv","Version 7","List 7","cushion",NA,190,5.75,733,"191","BOI","-","-","Please name all of the ways you could use this object. Keep in mind that one object can have many uses. Separate your responses with a comma.",NA,"y",14666,NA,NA,1669,14303,NA,NA,NA,"couch, bed, chair, outside furniture",1
"EB2483","9a6a96k1lq","Affordance Norms_ILSTU",1,27,"2022-09-22T02:40:10+00:00",15.543370962143,7,"updated stim.csv","Version7.csv","Version 7","List 7","Guitar",NA,193,6.293243243,1193,"194","BOI","-","-","Please name all of the ways you could use this object. Keep in mind that one object can have many uses. Separate your responses with a comma.",NA,"y",15413,NA,NA,2821,14939,NA,NA,NA,"instrument, decoration, playing, singing",1
"EB2483","9a6a96k1lq","Affordance Norms_ILSTU",1,28,"2022-09-22T02:40:26+00:00",16.11496090889,7,"updated stim.csv","Version7.csv","Version 7","List 7","kilt",NA,195,5.04,1418,"196","BOI","-","-","Please name all of the ways you could use this object. Keep in mind that one object can have many uses. Separate your responses with a comma.",NA,"y",15983,NA,NA,4777,11246,NA,NA,NA,"fashion, Irish dancing",0.975
"EB2483","9a6a96k1lq","Affordance Norms_ILSTU",1,29,"2022-09-22T02:40:56+00:00",29.47995018959,7,"updated stim.csv","Version7.csv","Version 7","List 7","eyebath",NA,199,4.368421053,931,"200","BOI","-","-","Please name all of the ways you could use this object. Keep in mind that one object can have many uses. Separate your responses with a comma.",NA,"y",29304,NA,NA,21840,27084,NA,NA,NA,"medication, cleaning",0.993
"EB2483","9a6a96k1lq","Affordance Norms_ILSTU",1,30,"2022-09-22T02:41:05+00:00",9.2383389472961,7,"updated stim.csv","Version7.csv","Version 7","List 7","pine",NA,200,4.347826087,1970,"201","BOI","-","-","Please name all of the ways you could use this object. Keep in mind that one object can have many uses. Separate your responses with a comma.",NA,"y",9104,NA,NA,7990,8440,NA,NA,NA,"tree",1
"EB2483","9a6a96k1lq","Affordance Norms_ILSTU",1,31,"2022-09-22T02:41:18+00:00",13.271769046783,7,"updated stim.csv","Version7.csv","Version 7","List 7","tent",NA,189,5.5,2664,"190","BOI","-","-","Please name all of the ways you could use this object. Keep in mind that one object can have many uses. Separate your responses with a comma.",NA,"y",13112,NA,NA,1815,11200,NA,NA,NA,"camping, black friday, concerts",1
"EB2483","9a6a96k1lq","Affordance Norms_ILSTU",1,32,"2022-09-22T02:41:36+00:00",17.373459815979,7,"updated stim.csv","Version7.csv","Version 7","List 7","person",NA,198,6.12,1930,"199","BOI","-","-","Please name all of the ways you could use this object. Keep in mind that one object can have many uses. Separate your responses with a comma.",NA,"y",17245,NA,NA,10758,16262,NA,NA,NA,"friends, family",1
"EB2483","9a6a96k1lq","Affordance Norms_ILSTU",1,33,"2022-09-22T02:41:45+00:00",9.6006350517273,7,"updated stim.csv","Version7.csv","Version 7","List 7","goldfish",NA,197,4.739130435,1133,"198","BOI","-","-","Please name all of the ways you could use this object. Keep in mind that one object can have many uses. Separate your responses with a comma.",NA,"y",9475,NA,NA,2717,8870,NA,NA,NA,"snack, actual fish, pet",1
"EB2483","9a6a96k1lq","Affordance Norms_ILSTU",1,34,"2022-09-22T02:42:23+00:00",38.05366396904,7,"updated stim.csv","Version7.csv","Version 7","List 7","mucous",NA,184,5.04,1708,"185","BOI","-","-","Please name all of the ways you could use this object. Keep in mind that one object can have many uses. Separate your responses with a comma.",NA,"y",37847,NA,NA,35841,37326,NA,NA,NA,"adjective",1
"EB2483","9a6a96k1lq","Affordance Norms_ILSTU",1,35,"2022-09-22T02:42:29+00:00",6.0317220687866,7,"updated stim.csv","Version7.csv","Version 7","List 7","funnel",NA,209,4.833333333,1065,"210","BOI","-","-","Please name all of the ways you could use this object. Keep in mind that one object can have many uses. Separate your responses with a comma.",NA,"y",5922,NA,NA,1255,5225,NA,NA,NA,"cake, tornado",1
"EB2483","9a6a96k1lq","Affordance Norms_ILSTU",1,36,"2022-09-22T02:42:36+00:00",7.0315539836884,7,"updated stim.csv","Version7.csv","Version 7","List 7","suspender",NA,194,5.76,2598,"195","BOI","-","-","Please name all of the ways you could use this object. Keep in mind that one object can have many uses. Separate your responses with a comma.",NA,"y",6922,NA,NA,2145,6381,NA,NA,NA,"fashion, suits",1
"EB2483","9a6a96k1lq","Affordance Norms_ILSTU",1,37,"2022-09-22T02:42:39+00:00",2.9373230934143,7,"updated stim.csv","Version7.csv","Version 7","List 7","pad",NA,210,5.217391304,1840,"211","BOI","-","-","Please name all of the ways you could use this object. Keep in mind that one object can have many uses. Separate your responses with a comma.",NA,"y",2833,NA,NA,1980,2375,NA,NA,NA,"ipad",1
"EB2483","9a6a96k1lq","Affordance Norms_ILSTU",1,38,"2022-09-22T02:43:00+00:00",20.482594966888,7,"updated stim.csv","Version7.csv","Version 7","List 7","cheese",NA,187,6.391304348,506,"188","BOI","-","-","Please name all of the ways you could use this object. Keep in mind that one object can have many uses. Separate your responses with a comma.",NA,"y",20293,NA,NA,2769,19738,NA,NA,NA,"pizza, queso, tacos, pasta",1
"EB2483","9a6a96k1lq","Affordance Norms_ILSTU",1,39,"2022-09-22T02:43:15+00:00",15.666666984558,7,"updated stim.csv","Version7.csv","Version 7","List 7","grandniece",NA,192,4.708333333,1150,"193","BOI","-","-","Please name all of the ways you could use this object. Keep in mind that one object can have many uses. Separate your responses with a comma.",NA,"y",15525,NA,NA,14926,14926,NA,NA,NA,"?",1
"EB2483","9a6a96k1lq","Affordance Norms_ILSTU",1,40,"2022-09-22T02:43:19+00:00",3.9767570495605,7,"updated stim.csv","Version7.csv","Version 7","List 7","store",NA,204,5.739130435,2550,"205","BOI","-","-","Please name all of the ways you could use this object. Keep in mind that one object can have many uses. Separate your responses with a comma.",NA,"y",3838,NA,NA,1602,2961,NA,NA,NA,"shopping",1
"EL2514","mn83axrkkv","Affordance Norms_ILSTU",1,11,"2022-09-24T20:14:33+00:00",29.279597043991,6,"updated stim.csv","Version6.csv","Version 6","List 6","pilaf",NA,157,4.7,1959,"158","BOI","-","-","Please name all of the ways you could use this object. Keep in mind that one object can have many uses. Separate your responses with a comma.",NA,"y",28883,NA,NA,3633,27575,NA,NA,NA,"cook, play, plate, eat, burn",1
"EL2514","mn83axrkkv","Affordance Norms_ILSTU",1,12,"2022-09-24T20:14:53+00:00",20.668298006058,6,"updated stim.csv","Version6.csv","Version 6","List 6","balcony",NA,176,4.739130435,127,"177","BOI","-","-","Please name all of the ways you could use this object. Keep in mind that one object can have many uses. Separate your responses with a comma.",NA,"y",20296,NA,NA,3674,17713,NA,NA,NA,"climb, build, stand, feel, fall, jump, ",1
"EL2514","mn83axrkkv","Affordance Norms_ILSTU",1,13,"2022-09-24T20:15:31+00:00",38.0169069767,6,"updated stim.csv","Version6.csv","Version 6","List 6","desert",NA,160,4.291666667,779,"161","BOI","-","-","Please name all of the ways you could use this object. Keep in mind that one object can have many uses. Separate your responses with a comma.",NA,"y",37653,NA,NA,3743,28547,NA,NA,NA,"walk, travel, dry",1
"EL2514","mn83axrkkv","Affordance Norms_ILSTU",1,14,"2022-09-24T20:16:18+00:00",46.1793820858,6,"updated stim.csv","Version6.csv","Version 6","List 6","bathe",NA,156,5.214285714,168,"157","BOI","-","-","Please name all of the ways you could use this object. Keep in mind that one object can have many uses. Separate your responses with a comma.",NA,"y",45803,NA,NA,1381,45530,NA,NA,NA,"lather, cleaning, wet, drown, fill, soak",1
"EL2514","mn83axrkkv","Affordance Norms_ILSTU",1,15,"2022-09-24T20:16:50+00:00",32.578351020813,6,"updated stim.csv","Version6.csv","Version 6","List 6","tofu",NA,180,5.555555556,2717,"181","BOI","-","-","Please name all of the ways you could use this object. Keep in mind that one object can have many uses. Separate your responses with a comma.",NA,"y",32104,NA,NA,1268,31953,NA,NA,NA,"cook, crumble, cut, throw, squish, clean, squeeze, play, create, bake, blend",1
"EL2514","mn83axrkkv","Affordance Norms_ILSTU",1,16,"2022-09-24T20:17:28+00:00",38.085551023483,6,"updated stim.csv","Version6.csv","Version 6","List 6","van",NA,163,6.28,2836,"164","BOI","-","-","Please name all of the ways you could use this object. Keep in mind that one object can have many uses. Separate your responses with a comma.",NA,"y",37620,NA,NA,1943,37338,NA,NA,NA,"drive, crash, live, clean, paint, renovate, sleep",1
"EL2514","mn83axrkkv","Affordance Norms_ILSTU",1,17,"2022-09-24T20:17:56+00:00",28.024168968201,6,"updated stim.csv","Version6.csv","Version 6","List 6","whisky",NA,174,5.857142857,2931,"175","BOI","-","-","Please name all of the ways you could use this object. Keep in mind that one object can have many uses. Separate your responses with a comma.",NA,"y",27654,NA,NA,1075,22333,NA,NA,NA,"drink, pour, mix, create, shake",1
