Username,ID,ExperimentName,Session,Trial,Date,TimeDif,"Condition Number","Stimuli File","Order File","Condition Description","Condition Notes",Stimuli*Cue,Stimuli*Answer,Stimuli*Shuffle,"Stimuli*Stimuli Notes",Stimuli*Value,Procedure*Item,"Procedure*Trial Type","Procedure*Max Time","Procedure*Min Time",Procedure*Text,"Procedure*Procedure Notes",Procedure*Shuffle,Response*RT,Response*Response,Response*Accuracy,Response*RTfirst,Response*RTlast,Response*strictAcc,Response*lenientAcc,Response*focus,Response*JOL,Response*Focus
AU1755,nvjm88b363,"Affordance Norms_ILSTU",1,1,2022-09-22T03:03:01+00:00,12.389094114304,11,"updated stim.csv",Version11.csv,"Version 11","List 11",,,,,,0,Instruct,-,10,"In this section, you will be presented with a series of objects. Please name as many possible uses for this object as you can think of by typing them in the box below each object.",,Instruct1,12311,,,-1,-1,,,,,1
AU1755,nvjm88b363,"Affordance Norms_ILSTU",1,2,2022-09-22T03:03:14+00:00,13.177917957306,11,"updated stim.csv",Version11.csv,"Version 11","List 11",,,,,,0,Instruct,-,10,"Please keep in mind that a single object will have more than one use. For example, a ball can be thrown or can be bounced or even stepped on. When listing multiple uses for one object, please separate each use with a comma (i.e., thrown, bounced, stepped on)",,Instruct2,13064,,,-1,-1,,,,,1
AU1755,nvjm88b363,"Affordance Norms_ILSTU",1,3,2022-09-22T03:03:22+00:00,8.0691890716553,11,"updated stim.csv",Version11.csv,"Version 11","List 11",,,,,,0,Instruct,-,-,"Before starting the experiment, you will complete a short practice sesstion. Press ENTER when you are ready to begin.",,Instruct3,7936,,,-1,-1,,,,,1
AU1755,nvjm88b363,"Affordance Norms_ILSTU",1,4,2022-09-22T03:04:06+00:00,43.993927001953,11,"updated stim.csv",Version11.csv,"Version 11","List 11",shortening,,3002,4.92,2358,3003,BOI,-,-,"Please name all of the ways you could use this object. Keep in mind that one object can have many uses. Separate your responses with a comma.",,n,43731,,,9201,42435,,,,"cutting, breaking, hitting",0.916
AU1755,nvjm88b363,"Affordance Norms_ILSTU",1,5,2022-09-22T03:04:19+00:00,13.094285011292,11,"updated stim.csv",Version11.csv,"Version 11","List 11",paperwork,,3001,5.625,1866,3002,BOI,-,-,"Please name all of the ways you could use this object. Keep in mind that one object can have many uses. Separate your responses with a comma.",,n,12964,,,5587,10435,,,,"write, staple, type",1
AU1755,nvjm88b363,"Affordance Norms_ILSTU",1,6,2022-09-22T03:04:27+00:00,7.4342229366302,11,"updated stim.csv",Version11.csv,"Version 11","List 11",saucer,,3005,5.777777778,2249,3006,BOI,-,-,"Please name all of the ways you could use this object. Keep in mind that one object can have many uses. Separate your responses with a comma.",,n,7326,,,2793,3588,,,,mix,1
AU1755,nvjm88b363,"Affordance Norms_ILSTU",1,7,2022-09-22T03:04:37+00:00,10.768978118896,11,"updated stim.csv",Version11.csv,"Version 11","List 11",grain,,3004,5.217391304,1143,3005,BOI,-,-,"Please name all of the ways you could use this object. Keep in mind that one object can have many uses. Separate your responses with a comma.",,n,10663,,,2594,9678,,,,"cook, pick, collect",1
AU1755,nvjm88b363,"Affordance Norms_ILSTU",1,8,2022-09-22T03:04:54+00:00,16.621219873428,11,"updated stim.csv",Version11.csv,"Version 11","List 11",spaghetti,,3003,6,2461,3004,BOI,-,-,"Please name all of the ways you could use this object. Keep in mind that one object can have many uses. Separate your responses with a comma.",,n,16507,,,1567,15263,,,,"eat, twirl, mix, separate",1
AU1755,nvjm88b363,"Affordance Norms_ILSTU",1,9,2022-09-22T03:04:56+00:00,2.2033231258392,11,"updated stim.csv",Version11.csv,"Version 11","List 11",,,,,,0,Instruct,-,-,"You have completed this section. Press ENTER to continue",,"Instruct 5",2070,,,-1,-1,,,,,1
AU1755,nvjm88b363,"Affordance Norms_ILSTU",1,10,2022-09-22T03:04:59+00:00,3.1579358577728,11,"updated stim.csv",Version11.csv,"Version 11","List 11",,,,,,0,Instruct,-,-,"You will now start the full experiment. Press ENTER when you are ready to begin.",,,3042,,,-1,-1,,,,,1
AU1755,nvjm88b363,"Affordance Norms_ILSTU",1,11,2022-09-22T03:05:08+00:00,8.6288750171661,11,"updated stim.csv",Version11.csv,"Version 11","List 11",kettledrum,,304,4.916666667,1410,305,BOI,-,-,"Please name all of the ways you could use this object. Keep in mind that one object can have many uses. Separate your responses with a comma.",,y,8516,,,3225,7349,,,,"bang, hit, throw",1
AU1755,nvjm88b363,"Affordance Norms_ILSTU",1,12,2022-09-22T03:05:27+00:00,18.536852121353,11,"updated stim.csv",Version11.csv,"Version 11","List 11",pan,,326,6.409090909,1856,327,BOI,-,-,"Please name all of the ways you could use this object. Keep in mind that one object can have many uses. Separate your responses with a comma.",,y,18408,,,2310,17585,,,,"bang, hit, throw, cook, clean, drop, hit",1
AU1755,nvjm88b363,"Affordance Norms_ILSTU",1,13,2022-09-22T03:05:51+00:00,24.163723945618,11,"updated stim.csv",Version11.csv,"Version 11","List 11",grandchild,,315,5.24,1145,316,BOI,-,-,"Please name all of the ways you could use this object. Keep in mind that one object can have many uses. Separate your responses with a comma.",,y,23965,,,2084,21073,,,,"play, laugh, teach, help",1
AU1755,nvjm88b363,"Affordance Norms_ILSTU",1,14,2022-09-22T03:06:22+00:00,31.533796072006,11,"updated stim.csv",Version11.csv,"Version 11","List 11",flatiron,,310,5.590909091,1004,311,BOI,-,-,"Please name all of the ways you could use this object. Keep in mind that one object can have many uses. Separate your responses with a comma.",,y,31339,,,9484,29376,,,,straighten,1
AU1755,nvjm88b363,"Affordance Norms_ILSTU",1,15,2022-09-22T03:06:52+00:00,29.79355096817,11,"updated stim.csv",Version11.csv,"Version 11","List 11",billiards,,327,4.925925926,216,328,BOI,-,-,"Please name all of the ways you could use this object. Keep in mind that one object can have many uses. Separate your responses with a comma.",,y,29600,,,19962,22319,,,,"play, compete",1
AU1755,nvjm88b363,"Affordance Norms_ILSTU",1,16,2022-09-22T03:07:20+00:00,27.747540950775,11,"updated stim.csv",Version11.csv,"Version 11","List 11",nut,,306,5.555555556,1789,307,BOI,-,-,"Please name all of the ways you could use this object. Keep in mind that one object can have many uses. Separate your responses with a comma.",,y,27542,,,1351,26411,,,,"eat, cook, crush, chew, throw, collect",1
AU1755,nvjm88b363,"Affordance Norms_ILSTU",1,17,2022-09-22T03:07:28+00:00,8.5554718971252,11,"updated stim.csv",Version11.csv,"Version 11","List 11",raincoat,,325,5.954545455,2130,326,BOI,-,-,"Please name all of the ways you could use this object. Keep in mind that one object can have many uses. Separate your responses with a comma.",,y,8436,,,3421,5729,,,,protect,1
AU1755,nvjm88b363,"Affordance Norms_ILSTU",1,18,2022-09-22T03:07:43+00:00,14.930828094482,11,"updated stim.csv",Version11.csv,"Version 11","List 11",parakeet,,328,5.12,1870,329,BOI,-,-,"Please name all of the ways you could use this object. Keep in mind that one object can have many uses. Separate your responses with a comma.",,y,14814,,,1968,13577,,,,"talk, take care, love, play with",1
AU1755,nvjm88b363,"Affordance Norms_ILSTU",1,19,2022-09-22T03:07:52+00:00,8.645879983902,11,"updated stim.csv",Version11.csv,"Version 11","List 11",mongoose,,329,4.5,1679,330,BOI,-,-,"Please name all of the ways you could use this object. Keep in mind that one object can have many uses. Separate your responses with a comma.",,y,8527,,,2011,7051,,,,"play with, feed, chase",1
AU1755,nvjm88b363,"Affordance Norms_ILSTU",1,20,2022-09-22T03:07:59+00:00,7.4164969921112,11,"updated stim.csv",Version11.csv,"Version 11","List 11",teaspoonful,,322,4.4,2654,323,BOI,-,-,"Please name all of the ways you could use this object. Keep in mind that one object can have many uses. Separate your responses with a comma.",,y,7302,,,2907,5473,,,,"cook, measure",1
AU1755,nvjm88b363,"Affordance Norms_ILSTU",1,21,2022-09-22T03:08:08+00:00,8.4695870876312,11,"updated stim.csv",Version11.csv,"Version 11","List 11",trigger,,319,5.16,2776,320,BOI,-,-,"Please name all of the ways you could use this object. Keep in mind that one object can have many uses. Separate your responses with a comma.",,y,8349,,,6145,6709,,,,shoot,1
AU1755,nvjm88b363,"Affordance Norms_ILSTU",1,22,2022-09-22T03:08:17+00:00,9.5171828269958,11,"updated stim.csv",Version11.csv,"Version 11","List 11",village,,321,4.44,2858,322,BOI,-,-,"Please name all of the ways you could use this object. Keep in mind that one object can have many uses. Separate your responses with a comma.",,y,9398,,,2726,7573,,,,"communicate, explore",1
AU1755,nvjm88b363,"Affordance Norms_ILSTU",1,23,2022-09-22T03:08:24+00:00,6.6794791221619,11,"updated stim.csv",Version11.csv,"Version 11","List 11",butt,,311,5.652173913,374,312,BOI,-,-,"Please name all of the ways you could use this object. Keep in mind that one object can have many uses. Separate your responses with a comma.",,y,6561,,,3895,4624,,,,fart,1
AU1755,nvjm88b363,"Affordance Norms_ILSTU",1,24,2022-09-22T03:08:37+00:00,13.261362075806,11,"updated stim.csv",Version11.csv,"Version 11","List 11",bondsman,,307,4.416666667,266,308,BOI,-,-,"Please name all of the ways you could use this object. Keep in mind that one object can have many uses. Separate your responses with a comma.",,y,13145,,,3648,11683,,,,"contact, communicate",1
AU1755,nvjm88b363,"Affordance Norms_ILSTU",1,25,2022-09-22T03:09:06+00:00,29.132513999939,11,"updated stim.csv",Version11.csv,"Version 11","List 11",acupuncture,,301,5.285714286,12,302,BOI,-,-,"Please name all of the ways you could use this object. Keep in mind that one object can have many uses. Separate your responses with a comma.",,y,28942,,,18830,28031,,,,"stab, relax",1
AU1755,nvjm88b363,"Affordance Norms_ILSTU",1,26,2022-09-22T03:09:25+00:00,18.819430828094,11,"updated stim.csv",Version11.csv,"Version 11","List 11",molasses,,320,5,1675,321,BOI,-,-,"Please name all of the ways you could use this object. Keep in mind that one object can have many uses. Separate your responses with a comma.",,y,18712,,,13983,17222,,,,"bake, cook",1
AU1755,nvjm88b363,"Affordance Norms_ILSTU",1,27,2022-09-22T03:09:35+00:00,10.167966127396,11,"updated stim.csv",Version11.csv,"Version 11","List 11",crust,,303,5.125,716,304,BOI,-,-,"Please name all of the ways you could use this object. Keep in mind that one object can have many uses. Separate your responses with a comma.",,y,10064,,,1625,5993,,,,"eat, throw, chew",1
AU1755,nvjm88b363,"Affordance Norms_ILSTU",1,28,2022-09-22T03:10:00+00:00,24.350493907928,11,"updated stim.csv",Version11.csv,"Version 11","List 11",rectum,,308,5.041666667,2150,309,BOI,-,-,"Please name all of the ways you could use this object. Keep in mind that one object can have many uses. Separate your responses with a comma.",,y,24169,,,23082,23605,,,,poop,1
AU1755,nvjm88b363,"Affordance Norms_ILSTU",1,29,2022-09-22T03:10:16+00:00,15.734337091446,11,"updated stim.csv",Version11.csv,"Version 11","List 11",flowerpot,,314,5,1017,315,BOI,-,-,"Please name all of the ways you could use this object. Keep in mind that one object can have many uses. Separate your responses with a comma.",,y,15605,,,2100,8437,,,,"plant, change, throw",1
AU1755,nvjm88b363,"Affordance Norms_ILSTU",1,30,2022-09-22T03:10:27+00:00,11.109513998032,11,"updated stim.csv",Version11.csv,"Version 11","List 11",stepdaughter,,313,4.72,2525,314,BOI,-,-,"Please name all of the ways you could use this object. Keep in mind that one object can have many uses. Separate your responses with a comma.",,y,10991,,,2173,9010,,,,"play, have fun, teach, love",1
AU1755,nvjm88b363,"Affordance Norms_ILSTU",1,31,2022-09-22T03:10:36+00:00,9.7995090484619,11,"updated stim.csv",Version11.csv,"Version 11","List 11",dirt,,324,5.08,801,325,BOI,-,-,"Please name all of the ways you could use this object. Keep in mind that one object can have many uses. Separate your responses with a comma.",,y,9688,,,2377,5793,,,,"step on, throw",1
AU1755,nvjm88b363,"Affordance Norms_ILSTU",1,32,2022-09-22T03:10:44+00:00,7.044921875,11,"updated stim.csv",Version11.csv,"Version 11","List 11",casserole,,305,5.88,452,306,BOI,-,-,"Please name all of the ways you could use this object. Keep in mind that one object can have many uses. Separate your responses with a comma.",,y,6922,,,1534,5625,,,,"eat, throw",1
AU1755,nvjm88b363,"Affordance Norms_ILSTU",1,33,2022-09-22T03:10:55+00:00,11.188038110733,11,"updated stim.csv",Version11.csv,"Version 11","List 11",furnace,,330,4.68,1066,331,BOI,-,-,"Please name all of the ways you could use this object. Keep in mind that one object can have many uses. Separate your responses with a comma.",,y,11075,,,2576,9365,,,,"sit, bounce, throw",1
AU1755,nvjm88b363,"Affordance Norms_ILSTU",1,34,2022-09-22T03:10:59+00:00,3.8832759857178,11,"updated stim.csv",Version11.csv,"Version 11","List 11",mullets,,318,4.304347826,1718,319,BOI,-,-,"Please name all of the ways you could use this object. Keep in mind that one object can have many uses. Separate your responses with a comma.",,y,3771,,,1834,2567,,,,style,1
AU1755,nvjm88b363,"Affordance Norms_ILSTU",1,35,2022-09-22T03:11:07+00:00,8.2752389907837,11,"updated stim.csv",Version11.csv,"Version 11","List 11",apartments,,309,4.851851852,56,310,BOI,-,-,"Please name all of the ways you could use this object. Keep in mind that one object can have many uses. Separate your responses with a comma.",,y,8159,,,2113,6741,,,,"enjoy, clean, live",1
AU1755,nvjm88b363,"Affordance Norms_ILSTU",1,36,2022-09-22T03:11:23+00:00,15.658447980881,11,"updated stim.csv",Version11.csv,"Version 11","List 11",taffy,,323,4.6,2622,324,BOI,-,-,"Please name all of the ways you could use this object. Keep in mind that one object can have many uses. Separate your responses with a comma.",,y,15542,,,10292,14077,,,,"eat, share, enjoy",1
AU1755,nvjm88b363,"Affordance Norms_ILSTU",1,37,2022-09-22T03:11:45+00:00,22.838453054428,11,"updated stim.csv",Version11.csv,"Version 11","List 11",hibachi,,312,4.666666667,1284,313,BOI,-,-,"Please name all of the ways you could use this object. Keep in mind that one object can have many uses. Separate your responses with a comma.",,y,22639,,,19087,21325,,,,"eat, enjoy",1
AU1755,nvjm88b363,"Affordance Norms_ILSTU",1,38,2022-09-22T03:11:57+00:00,11.243565797806,11,"updated stim.csv",Version11.csv,"Version 11","List 11",belt,,317,5.80952381,202,318,BOI,-,-,"Please name all of the ways you could use this object. Keep in mind that one object can have many uses. Separate your responses with a comma.",,y,11111,,,4595,9929,,,,"hit, protect, style",1
AU1755,nvjm88b363,"Affordance Norms_ILSTU",1,39,2022-09-22T03:12:03+00:00,6.7151021957397,11,"updated stim.csv",Version11.csv,"Version 11","List 11",device,,302,5.75,784,303,BOI,-,-,"Please name all of the ways you could use this object. Keep in mind that one object can have many uses. Separate your responses with a comma.",,y,6597,,,2825,4450,,,,communicate,1
AU1755,nvjm88b363,"Affordance Norms_ILSTU",1,40,2022-09-22T03:12:12+00:00,8.9975049495697,11,"updated stim.csv",Version11.csv,"Version 11","List 11",corn,,316,6,644,317,BOI,-,-,"Please name all of the ways you could use this object. Keep in mind that one object can have many uses. Separate your responses with a comma.",,y,8884,,,1248,8289,,,,"eat, plant",1
AU1755,nvjm88b363,"Affordance Norms_ILSTU",1,41,2022-09-22T03:12:15+00:00,2.9252209663391,11,"updated stim.csv",Version11.csv,"Version 11","List 11",,,,,,0,Instruct,,,"You will now be asked a few questions about your experience today.",,"Instruct 4",2802,,,-1,-1,,,,,1
