Username,ID,ExperimentName,Session,Trial,Date,TimeDif,Condition.Number,Stimuli.File,Order.File,Condition.Description,Condition.Notes,Stimuli.Cue,Stimuli.Answer,Stimuli.Shuffle,Stimuli.Stimuli.Notes,Stimuli.Value,Stimuli.Rand,Procedure.Item,Procedure.Trial.Type,Procedure.Max.Time,Procedure.Min.Time,Procedure.Text,Procedure.Procedure.Notes,Procedure.Shuffle,Response.RT,Response.Response,Response.Accuracy,Response.RTfirst,Response.RTlast,Response.strictAcc,Response.lenientAcc,Response.focus,Response.JOL,Response.Focus
56a930c711926500056e6eed,dwb47xqx27,Affordance Norms_Prolific,1,11,2023-05-09T18:02:36+00:00,20.241961,9,updated stim.csv,Version9.csv,Version 9,List 9,rancher,NA,243,4.68,2137,0.77966363,244,BOI,-,-,Please name all of the ways you could use this object. Keep in mind that one object can have many uses. Separate your responses with a comma.,NA,y,19356,NA,NA,6664,15849,NA,NA,NA,"farm, care for animals",1
56a930c711926500056e6eed,dwb47xqx27,Affordance Norms_Prolific,1,12,2023-05-09T18:02:54+00:00,18.02053595,9,updated stim.csv,Version9.csv,Version 9,List 9,goblet,NA,262,5.826086957,1125,0.285427589,263,BOI,-,-,Please name all of the ways you could use this object. Keep in mind that one object can have many uses. Separate your responses with a comma.,NA,y,17264,NA,NA,5795,12777,NA,NA,NA,"drink out of, decoration",1
56a930c711926500056e6eed,dwb47xqx27,Affordance Norms_Prolific,1,13,2023-05-09T18:03:27+00:00,33.41180706,9,updated stim.csv,Version9.csv,Version 9,List 9,cane,NA,257,6.068965517,413,0.55347765,258,BOI,-,-,Please name all of the ways you could use this object. Keep in mind that one object can have many uses. Separate your responses with a comma.,NA,y,32759,NA,NA,22067,31490,NA,NA,NA,"for walking, dance",1
56a930c711926500056e6eed,dwb47xqx27,Affordance Norms_Prolific,1,14,2023-05-09T18:03:48+00:00,20.68125296,9,updated stim.csv,Version9.csv,Version 9,List 9,altarpiece,NA,269,4.80952381,31,0.560695239,270,BOI,-,-,Please name all of the ways you could use this object. Keep in mind that one object can have many uses. Separate your responses with a comma.,NA,y,19758,NA,NA,16695,17995,NA,NA,NA,decoration,1
56a930c711926500056e6eed,dwb47xqx27,Affordance Norms_Prolific,1,15,2023-05-09T18:04:06+00:00,17.64117908,9,updated stim.csv,Version9.csv,Version 9,List 9,platter,NA,268,5.75,1998,0.769402376,269,BOI,-,-,Please name all of the ways you could use this object. Keep in mind that one object can have many uses. Separate your responses with a comma.,NA,y,16529,NA,NA,8704,15047,NA,NA,NA,"eat food off, decoration",0.973
56a930c711926500056e6eed,dwb47xqx27,Affordance Norms_Prolific,1,16,2023-05-09T18:04:27+00:00,21.27568889,9,updated stim.csv,Version9.csv,Version 9,List 9,asparagus,NA,251,5.56,85,0.630185252,252,BOI,-,-,Please name all of the ways you could use this object. Keep in mind that one object can have many uses. Separate your responses with a comma.,NA,y,20027,NA,NA,1332,18445,NA,NA,NA,"eat, side decoration on a plate, cook",1
56a930c711926500056e6eed,dwb47xqx27,Affordance Norms_Prolific,1,17,2023-05-09T18:04:49+00:00,22.17812204,9,updated stim.csv,Version9.csv,Version 9,List 9,wrapper,NA,266,5.791666667,2978,0.869670923,267,BOI,-,-,Please name all of the ways you could use this object. Keep in mind that one object can have many uses. Separate your responses with a comma.,NA,y,20777,NA,NA,10976,19529,NA,NA,NA,"cover, to keep warm",1
56a930c711926500056e6eed,dwb47xqx27,Affordance Norms_Prolific,1,18,2023-05-09T18:05:19+00:00,29.57613206,9,updated stim.csv,Version9.csv,Version 9,List 9,veal,NA,260,4.5,2840,0.767300611,261,BOI,-,-,Please name all of the ways you could use this object. Keep in mind that one object can have many uses. Separate your responses with a comma.,NA,y,28743,NA,NA,24614,27404,NA,NA,NA,"eat, cook",1
56a930c711926500056e6eed,dwb47xqx27,Affordance Norms_Prolific,1,19,2023-05-09T18:08:55+00:00,215.898596,9,updated stim.csv,Version9.csv,Version 9,List 9,wound,NA,256,4.583333333,2976,0.28598123,257,BOI,-,-,Please name all of the ways you could use this object. Keep in mind that one object can have many uses. Separate your responses with a comma.,NA,y,11391,NA,NA,5966,9033,NA,NA,NA,"cut, graze",1
56a930c711926500056e6eed,dwb47xqx27,Affordance Norms_Prolific,1,20,2023-05-09T18:09:11+00:00,16.126297,9,updated stim.csv,Version9.csv,Version 9,List 9,chemicals,NA,259,5.04,510,0.869697856,260,BOI,-,-,Please name all of the ways you could use this object. Keep in mind that one object can have many uses. Separate your responses with a comma.,NA,y,15412,NA,NA,10178,12824,NA,NA,NA,cleaning,1
56a930c711926500056e6eed,dwb47xqx27,Affordance Norms_Prolific,1,21,2023-05-09T18:09:47+00:00,36.17329097,9,updated stim.csv,Version9.csv,Version 9,List 9,clay,NA,263,5.52,551,0.620791367,264,BOI,-,-,Please name all of the ways you could use this object. Keep in mind that one object can have many uses. Separate your responses with a comma.,NA,y,35491,NA,NA,27183,33999,NA,NA,NA,"pottery, building",1
56a930c711926500056e6eed,dwb47xqx27,Affordance Norms_Prolific,1,22,2023-05-09T18:11:11+00:00,84.50945902,9,updated stim.csv,Version9.csv,Version 9,List 9,tube,NA,247,4.916666667,2791,0.621648514,248,BOI,-,-,Please name all of the ways you could use this object. Keep in mind that one object can have many uses. Separate your responses with a comma.,NA,y,83808,NA,NA,74635,82365,NA,NA,NA,"transport, storage",1
56a930c711926500056e6eed,dwb47xqx27,Affordance Norms_Prolific,1,23,2023-05-09T18:12:36+00:00,84.32592392,9,updated stim.csv,Version9.csv,Version 9,List 9,block,NA,244,5.413793103,239,0.767968501,245,BOI,-,-,Please name all of the ways you could use this object. Keep in mind that one object can have many uses. Separate your responses with a comma.,NA,y,83456,NA,NA,39981,81813,NA,NA,NA,"build, throw",1
56a930c711926500056e6eed,dwb47xqx27,Affordance Norms_Prolific,1,24,2023-05-09T18:12:53+00:00,17.00656295,9,updated stim.csv,Version9.csv,Version 9,List 9,suit,NA,249,6.52173913,2582,0.02685761,250,BOI,-,-,Please name all of the ways you could use this object. Keep in mind that one object can have many uses. Separate your responses with a comma.,NA,y,15994,NA,NA,5509,14654,NA,NA,NA,"wear, sell, buy",1
56a930c711926500056e6eed,dwb47xqx27,Affordance Norms_Prolific,1,25,2023-05-09T18:14:03+00:00,70.3082962,9,updated stim.csv,Version9.csv,Version 9,List 9,bench,NA,242,6.166666667,203,0.96821643,243,BOI,-,-,Please name all of the ways you could use this object. Keep in mind that one object can have many uses. Separate your responses with a comma.,NA,y,69568,NA,NA,60515,63735,NA,NA,NA,"sit, lie",1
56a930c711926500056e6eed,dwb47xqx27,Affordance Norms_Prolific,1,26,2023-05-09T18:15:09+00:00,65.56152081,9,updated stim.csv,Version9.csv,Version 9,List 9,token,NA,255,5.2,2721,0.805795808,256,BOI,-,-,Please name all of the ways you could use this object. Keep in mind that one object can have many uses. Separate your responses with a comma.,NA,y,64280,NA,NA,4362,11462,NA,NA,NA,"pay, keep",1
56a930c711926500056e6eed,dwb47xqx27,Affordance Norms_Prolific,1,27,2023-05-09T18:17:36+00:00,147.012815,9,updated stim.csv,Version9.csv,Version 9,List 9,saleslady,NA,264,4.28,2221,0.151974823,265,BOI,-,-,Please name all of the ways you could use this object. Keep in mind that one object can have many uses. Separate your responses with a comma.,NA,y,146080,NA,NA,20049,143496,NA,NA,NA,selling,1
56a930c711926500056e6eed,dwb47xqx27,Affordance Norms_Prolific,1,28,2023-05-09T18:18:07+00:00,31.06246614,9,updated stim.csv,Version9.csv,Version 9,List 9,shell,NA,261,5.291666667,2333,0.088519981,262,BOI,-,-,Please name all of the ways you could use this object. Keep in mind that one object can have many uses. Separate your responses with a comma.,NA,y,30063,NA,NA,20025,25355,NA,NA,NA,"decorate, listen",1
56a930c711926500056e6eed,dwb47xqx27,Affordance Norms_Prolific,1,29,2023-05-09T18:20:52+00:00,165.4503949,9,updated stim.csv,Version9.csv,Version 9,List 9,belly,NA,250,5.846153846,200,0.99406305,251,BOI,-,-,Please name all of the ways you could use this object. Keep in mind that one object can have many uses. Separate your responses with a comma.,NA,y,164772,NA,NA,159419,160374,NA,NA,NA,feed,1
56a930c711926500056e6eed,dwb47xqx27,Affordance Norms_Prolific,1,30,2023-05-09T18:21:01+00:00,8.851803064,9,updated stim.csv,Version9.csv,Version 9,List 9,coleslaw,NA,254,4.72,599,0.022418683,255,BOI,-,-,Please name all of the ways you could use this object. Keep in mind that one object can have many uses. Separate your responses with a comma.,NA,y,7888,NA,NA,2251,3768,NA,NA,NA,"eat,",1
56a930c711926500056e6eed,dwb47xqx27,Affordance Norms_Prolific,1,31,2023-05-09T18:23:08+00:00,126.5727789,9,updated stim.csv,Version9.csv,Version 9,List 9,tyke,NA,245,5.05,2813,0.492849182,246,BOI,-,-,Please name all of the ways you could use this object. Keep in mind that one object can have many uses. Separate your responses with a comma.,NA,y,125865,NA,NA,119171,121531,NA,NA,NA,unsure,1
56a930c711926500056e6eed,dwb47xqx27,Affordance Norms_Prolific,1,32,2023-05-09T18:23:21+00:00,13.10254812,9,updated stim.csv,Version9.csv,Version 9,List 9,hardware,NA,267,5.52,1249,0.839198693,268,BOI,-,-,Please name all of the ways you could use this object. Keep in mind that one object can have many uses. Separate your responses with a comma.,NA,y,12258,NA,NA,2265,5050,NA,NA,NA,"build, ",1
56a930c711926500056e6eed,dwb47xqx27,Affordance Norms_Prolific,1,33,2023-05-09T18:24:32+00:00,71.23502898,9,updated stim.csv,Version9.csv,Version 9,List 9,strainer,NA,253,4.875,2557,0.13601316,254,BOI,-,-,Please name all of the ways you could use this object. Keep in mind that one object can have many uses. Separate your responses with a comma.,NA,y,70476,NA,NA,27440,31044,NA,NA,NA,"drain, shake",1
56a930c711926500056e6eed,dwb47xqx27,Affordance Norms_Prolific,1,34,2023-05-09T18:25:25+00:00,52.65827298,9,updated stim.csv,Version9.csv,Version 9,List 9,vessel,NA,248,4.925925926,2852,0.127753764,249,BOI,-,-,Please name all of the ways you could use this object. Keep in mind that one object can have many uses. Separate your responses with a comma.,NA,y,51925,NA,NA,44341,49989,NA,NA,NA,"cook, sail",1
56a930c711926500056e6eed,dwb47xqx27,Affordance Norms_Prolific,1,35,2023-05-09T18:25:50+00:00,25.11658597,9,updated stim.csv,Version9.csv,Version 9,List 9,duck,NA,246,5.041666667,859,0.394435726,247,BOI,-,-,Please name all of the ways you could use this object. Keep in mind that one object can have many uses. Separate your responses with a comma.,NA,y,24393,NA,NA,4767,13456,NA,NA,NA,"play, cook, stroke",1
56a930c711926500056e6eed,dwb47xqx27,Affordance Norms_Prolific,1,36,2023-05-09T18:26:43+00:00,53.66649508,9,updated stim.csv,Version9.csv,Version 9,List 9,purse,NA,265,6.291666667,2105,0.327813639,266,BOI,-,-,Please name all of the ways you could use this object. Keep in mind that one object can have many uses. Separate your responses with a comma.,NA,y,52845,NA,NA,8350,13407,NA,NA,NA,"hold money, storage",1
56a930c711926500056e6eed,dwb47xqx27,Affordance Norms_Prolific,1,37,2023-05-09T18:30:44+00:00,240.869257,9,updated stim.csv,Version9.csv,Version 9,List 9,landscape,NA,252,4.384615385,1462,0.792855773,253,BOI,-,-,Please name all of the ways you could use this object. Keep in mind that one object can have many uses. Separate your responses with a comma.,NA,y,240057,NA,NA,232007,233425,NA,NA,NA,decorate,1
56a930c711926500056e6eed,dwb47xqx27,Affordance Norms_Prolific,1,38,2023-05-09T18:31:25+00:00,40.471946,9,updated stim.csv,Version9.csv,Version 9,List 9,elbow,NA,258,6.458333333,896,0.003681913,259,BOI,-,-,Please name all of the ways you could use this object. Keep in mind that one object can have many uses. Separate your responses with a comma.,NA,y,39411,NA,NA,26527,28266,NA,NA,NA,bend,1
56a930c711926500056e6eed,dwb47xqx27,Affordance Norms_Prolific,1,39,2023-05-09T18:31:39+00:00,14.78370094,9,updated stim.csv,Version9.csv,Version 9,List 9,orchard,NA,270,4.333333333,1816,0.055847864,271,BOI,-,-,Please name all of the ways you could use this object. Keep in mind that one object can have many uses. Separate your responses with a comma.,NA,y,13842,NA,NA,3723,8845,NA,NA,NA,"pick fruit, climb",1
56a930c711926500056e6eed,dwb47xqx27,Affordance Norms_Prolific,1,40,2023-05-09T18:31:51+00:00,11.355793,9,updated stim.csv,Version9.csv,Version 9,List 9,mayor,NA,241,4.28,1629,0.300205289,242,BOI,-,-,Please name all of the ways you could use this object. Keep in mind that one object can have many uses. Separate your responses with a comma.,NA,y,9733,NA,NA,5522,6491,NA,NA,NA,lead,1
56cf3dce31a5bc000de1bec8,0xu1kabrru,Affordance Norms_Prolific,1,11,2023-05-09T20:24:44+00:00,26.02119398,44,updated stim.csv,Version44.csv,Version 44,List 44,beer,NA,1309,5.791666667,192,0.863265294,1310,BOI,-,-,Please name all of the ways you could use this object. Keep in mind that one object can have many uses. Separate your responses with a comma.,NA,y,25596,NA,NA,1928,24909,NA,NA,NA,"drink, social events, in food",1
56cf3dce31a5bc000de1bec8,0xu1kabrru,Affordance Norms_Prolific,1,12,2023-05-09T20:25:23+00:00,38.8641212,44,updated stim.csv,Version44.csv,Version 44,List 44,pillar,NA,1299,5.041666667,1961,0.56170011,1300,BOI,-,-,Please name all of the ways you could use this object. Keep in mind that one object can have many uses. Separate your responses with a comma.,NA,y,38434,NA,NA,3087,35411,NA,NA,NA,"decoration, structural support for building",1
56cf3dce31a5bc000de1bec8,0xu1kabrru,Affordance Norms_Prolific,1,13,2023-05-09T20:25:42+00:00,18.352947,44,updated stim.csv,Version44.csv,Version 44,List 44,residence,NA,1304,4.333333333,2157,0.416081032,1305,BOI,-,-,Please name all of the ways you could use this object. Keep in mind that one object can have many uses. Separate your responses with a comma.,NA,y,17910,NA,NA,6090,15443,NA,NA,NA,"to live in, for shelter",1
56cf3dce31a5bc000de1bec8,0xu1kabrru,Affordance Norms_Prolific,1,14,2023-05-09T20:26:20+00:00,38.91169977,44,updated stim.csv,Version44.csv,Version 44,List 44,yearbook,NA,1294,5.56,2992,0.3747712,1295,BOI,-,-,Please name all of the ways you could use this object. Keep in mind that one object can have many uses. Separate your responses with a comma.,NA,y,38454,NA,NA,10703,37752,NA,NA,NA,"memories, to commemorate an era in a persons life",1
56cf3dce31a5bc000de1bec8,0xu1kabrru,Affordance Norms_Prolific,1,15,2023-05-09T20:27:03+00:00,42.51785517,44,updated stim.csv,Version44.csv,Version 44,List 44,compass,NA,1308,5.538461538,612,0.979445035,1309,BOI,-,-,Please name all of the ways you could use this object. Keep in mind that one object can have many uses. Separate your responses with a comma.,NA,y,42082,NA,NA,20095,40860,NA,NA,NA,"to direct a person in a direction, to know where north is, to help a person navigate",1
56cf3dce31a5bc000de1bec8,0xu1kabrru,Affordance Norms_Prolific,1,16,2023-05-09T20:28:44+00:00,100.7080359,44,updated stim.csv,Version44.csv,Version 44,List 44,pliers,NA,1300,6.086956522,2007,0.303050186,1301,BOI,-,-,Please name all of the ways you could use this object. Keep in mind that one object can have many uses. Separate your responses with a comma.,NA,y,100060,NA,NA,4180,97568,NA,NA,NA,"a tool to grip something, to twist things, some cut wires",1
56cf3dce31a5bc000de1bec8,0xu1kabrru,Affordance Norms_Prolific,1,17,2023-05-09T20:29:42+00:00,58.11624908,44,updated stim.csv,Version44.csv,Version 44,List 44,pepper,NA,1298,5.875,1921,0.51260415,1299,BOI,-,-,Please name all of the ways you could use this object. Keep in mind that one object can have many uses. Separate your responses with a comma.,NA,y,57687,NA,NA,2883,56794,NA,NA,NA,"in food recipes, on chips, as a deterrent",1
56cf3dce31a5bc000de1bec8,0xu1kabrru,Affordance Norms_Prolific,1,18,2023-05-09T20:29:54+00:00,12.19177198,44,updated stim.csv,Version44.csv,Version 44,List 44,headdress,NA,1305,5.541666667,1265,0.112210064,1306,BOI,-,-,Please name all of the ways you could use this object. Keep in mind that one object can have many uses. Separate your responses with a comma.,NA,y,11752,NA,NA,2605,10809,NA,NA,NA,"as decoration, as a costume",1
56cf3dce31a5bc000de1bec8,0xu1kabrru,Affordance Norms_Prolific,1,19,2023-05-09T20:30:00+00:00,6.439723015,44,updated stim.csv,Version44.csv,Version 44,List 44,watermelon,NA,1291,5.869565217,2911,0.101416445,1292,BOI,-,-,Please name all of the ways you could use this object. Keep in mind that one object can have many uses. Separate your responses with a comma.,NA,y,5867,NA,NA,1652,5671,NA,NA,NA,as food,1
56cf3dce31a5bc000de1bec8,0xu1kabrru,Affordance Norms_Prolific,1,20,2023-05-09T20:30:13+00:00,12.43989992,44,updated stim.csv,Version44.csv,Version 44,List 44,cellophane,NA,1315,4.703703704,475,0.725467962,1316,BOI,-,-,Please name all of the ways you could use this object. Keep in mind that one object can have many uses. Separate your responses with a comma.,NA,y,12031,NA,NA,3956,10942,NA,NA,NA,"to wrap food, to cover food",1
56cf3dce31a5bc000de1bec8,0xu1kabrru,Affordance Norms_Prolific,1,21,2023-05-09T20:30:21+00:00,8.474085093,44,updated stim.csv,Version44.csv,Version 44,List 44,racehorse,NA,1292,5.208333333,2118,0.754913971,1293,BOI,-,-,Please name all of the ways you could use this object. Keep in mind that one object can have many uses. Separate your responses with a comma.,NA,y,8053,NA,NA,4719,7304,NA,NA,NA,to win races,1
56cf3dce31a5bc000de1bec8,0xu1kabrru,Affordance Norms_Prolific,1,22,2023-05-09T20:30:34+00:00,12.8782258,44,updated stim.csv,Version44.csv,Version 44,List 44,cabin,NA,1316,4.56,388,0.925507739,1317,BOI,-,-,Please name all of the ways you could use this object. Keep in mind that one object can have many uses. Separate your responses with a comma.,NA,y,12473,NA,NA,4397,10751,NA,NA,NA,"shelter, as a getaway",1
56cf3dce31a5bc000de1bec8,0xu1kabrru,Affordance Norms_Prolific,1,23,2023-05-09T20:30:59+00:00,24.66353917,44,updated stim.csv,Version44.csv,Version 44,List 44,handbag,NA,1293,6,1229,0.494065236,1294,BOI,-,-,Please name all of the ways you could use this object. Keep in mind that one object can have many uses. Separate your responses with a comma.,NA,y,24237,NA,NA,2102,23559,NA,NA,NA,"to keep personal items in, to transport items, to hold everyday items",1
56cf3dce31a5bc000de1bec8,0xu1kabrru,Affordance Norms_Prolific,1,24,2023-05-09T20:32:43+00:00,103.8633449,44,updated stim.csv,Version44.csv,Version 44,List 44,porch,NA,1313,4.44,2036,0.064521605,1314,BOI,-,-,Please name all of the ways you could use this object. Keep in mind that one object can have many uses. Separate your responses with a comma.,NA,y,103205,NA,NA,74427,102101,NA,NA,NA,"shelter for brief guests, as shelter from bad weather",1
56cf3dce31a5bc000de1bec8,0xu1kabrru,Affordance Norms_Prolific,1,25,2023-05-09T20:32:55+00:00,12.52831292,44,updated stim.csv,Version44.csv,Version 44,List 44,vodka,NA,1312,5.56,2872,0.424897598,1313,BOI,-,-,Please name all of the ways you could use this object. Keep in mind that one object can have many uses. Separate your responses with a comma.,NA,y,12085,NA,NA,2877,10816,NA,NA,NA,"todrink, toget drunk",1
56cf3dce31a5bc000de1bec8,0xu1kabrru,Affordance Norms_Prolific,1,26,2023-05-09T20:34:19+00:00,83.7459662,44,updated stim.csv,Version44.csv,Version 44,List 44,cow,NA,1320,5.434782609,671,0.696277817,1321,BOI,-,-,Please name all of the ways you could use this object. Keep in mind that one object can have many uses. Separate your responses with a comma.,NA,y,83105,NA,NA,50965,82210,NA,NA,NA,"as a dairy farm animal, as a beef farm animal, as a pet",1
56cf3dce31a5bc000de1bec8,0xu1kabrru,Affordance Norms_Prolific,1,27,2023-05-09T20:34:40+00:00,21.0178318,44,updated stim.csv,Version44.csv,Version 44,List 44,shortbread,NA,1314,5.416666667,2356,0.792275281,1315,BOI,-,-,Please name all of the ways you could use this object. Keep in mind that one object can have many uses. Separate your responses with a comma.,NA,y,20596,NA,NA,2530,18638,NA,NA,NA,"as a snack, for dipping in tea or coffee",1
56cf3dce31a5bc000de1bec8,0xu1kabrru,Affordance Norms_Prolific,1,28,2023-05-09T20:35:30+00:00,49.64941311,44,updated stim.csv,Version44.csv,Version 44,List 44,braid,NA,1318,5.64,301,0.361765589,1319,BOI,-,-,Please name all of the ways you could use this object. Keep in mind that one object can have many uses. Separate your responses with a comma.,NA,y,49217,NA,NA,4281,48143,NA,NA,NA,"a hairstyle, a way to ti something",1
56cf3dce31a5bc000de1bec8,0xu1kabrru,Affordance Norms_Prolific,1,29,2023-05-09T20:36:45+00:00,75.02845788,44,updated stim.csv,Version44.csv,Version 44,List 44,caviar,NA,1307,4.818181818,468,0.271405967,1308,BOI,-,-,Please name all of the ways you could use this object. Keep in mind that one object can have many uses. Separate your responses with a comma.,NA,y,74328,NA,NA,5344,13264,NA,NA,NA,fish eggs which are food,1
56cf3dce31a5bc000de1bec8,0xu1kabrru,Affordance Norms_Prolific,1,30,2023-05-09T20:37:10+00:00,25.35400915,44,updated stim.csv,Version44.csv,Version 44,List 44,newsman,NA,1310,4.285714286,1759,0.857043945,1311,BOI,-,-,Please name all of the ways you could use this object. Keep in mind that one object can have many uses. Separate your responses with a comma.,NA,y,24880,NA,NA,2943,23418,NA,NA,NA,to inform on the events of the world,1
56cf3dce31a5bc000de1bec8,0xu1kabrru,Affordance Norms_Prolific,1,31,2023-05-09T20:38:09+00:00,58.89196205,44,updated stim.csv,Version44.csv,Version 44,List 44,cradle,NA,1306,5.652173913,678,0.526019594,1307,BOI,-,-,Please name all of the ways you could use this object. Keep in mind that one object can have many uses. Separate your responses with a comma.,NA,y,58445,NA,NA,9294,57438,NA,NA,NA,a place for a baby to sleep or rest,1
56cf3dce31a5bc000de1bec8,0xu1kabrru,Affordance Norms_Prolific,1,32,2023-05-09T20:38:38+00:00,29.18973899,44,updated stim.csv,Version44.csv,Version 44,List 44,glassware,NA,1303,5.964285714,1113,0.538524364,1304,BOI,-,-,Please name all of the ways you could use this object. Keep in mind that one object can have many uses. Separate your responses with a comma.,NA,y,28708,NA,NA,14194,27442,NA,NA,NA,"to hold drinks, for decoration",1
56cf3dce31a5bc000de1bec8,0xu1kabrru,Affordance Norms_Prolific,1,33,2023-05-09T20:39:15+00:00,36.80251193,44,updated stim.csv,Version44.csv,Version 44,List 44,barricade,NA,1319,4.28,155,0.883498007,1320,BOI,-,-,Please name all of the ways you could use this object. Keep in mind that one object can have many uses. Separate your responses with a comma.,NA,y,36305,NA,NA,1739,32576,NA,NA,NA,"to protest, to protect roadworkers, to block a way ",1
56cf3dce31a5bc000de1bec8,0xu1kabrru,Affordance Norms_Prolific,1,34,2023-05-09T20:39:42+00:00,27.19509602,44,updated stim.csv,Version44.csv,Version 44,List 44,extinguisher,NA,1296,5.043478261,928,0.866025303,1297,BOI,-,-,Please name all of the ways you could use this object. Keep in mind that one object can have many uses. Separate your responses with a comma.,NA,y,26726,NA,NA,12900,23044,NA,NA,NA,to extinguish a fire,1
56cf3dce31a5bc000de1bec8,0xu1kabrru,Affordance Norms_Prolific,1,35,2023-05-09T20:40:13+00:00,30.97792196,44,updated stim.csv,Version44.csv,Version 44,List 44,carpeting,NA,1297,5.115384615,438,0.900071999,1298,BOI,-,-,Please name all of the ways you could use this object. Keep in mind that one object can have many uses. Separate your responses with a comma.,NA,y,30205,NA,NA,6251,28365,NA,NA,NA,"for comfort, for warmth, or insulation",1
56cf3dce31a5bc000de1bec8,0xu1kabrru,Affordance Norms_Prolific,1,36,2023-05-09T20:40:34+00:00,21.02910709,44,updated stim.csv,Version44.csv,Version 44,List 44,lyre,NA,1317,4.45,1561,0.008434586,1318,BOI,-,-,Please name all of the ways you could use this object. Keep in mind that one object can have many uses. Separate your responses with a comma.,NA,y,20558,NA,NA,5001,19304,NA,NA,NA,I am not sure what this is,1
56cf3dce31a5bc000de1bec8,0xu1kabrru,Affordance Norms_Prolific,1,37,2023-05-09T20:42:16+00:00,101.9901459,44,updated stim.csv,Version44.csv,Version 44,List 44,sauna,NA,1295,5.363636364,2251,0.802464898,1296,BOI,-,-,Please name all of the ways you could use this object. Keep in mind that one object can have many uses. Separate your responses with a comma.,NA,y,101274,NA,NA,7766,100035,NA,NA,NA,"for relaxation, for warmth, for therapy",1
56cf3dce31a5bc000de1bec8,0xu1kabrru,Affordance Norms_Prolific,1,38,2023-05-09T20:43:35+00:00,78.68961811,44,updated stim.csv,Version44.csv,Version 44,List 44,footstool,NA,1311,6.304347826,1039,0.950781043,1312,BOI,-,-,Please name all of the ways you could use this object. Keep in mind that one object can have many uses. Separate your responses with a comma.,NA,y,78009,NA,NA,39309,76821,NA,NA,NA,"for comfort, for relaxation, for decoration",1
56cf3dce31a5bc000de1bec8,0xu1kabrru,Affordance Norms_Prolific,1,39,2023-05-09T20:44:25+00:00,49.85316396,44,updated stim.csv,Version44.csv,Version 44,List 44,oregano,NA,1302,5.64,1819,0.948711001,1303,BOI,-,-,Please name all of the ways you could use this object. Keep in mind that one object can have many uses. Separate your responses with a comma.,NA,y,49389,NA,NA,7105,43253,NA,NA,NA,"in food recipes, in herbs treathments",0.987
56cf3dce31a5bc000de1bec8,0xu1kabrru,Affordance Norms_Prolific,1,40,2023-05-09T20:45:08+00:00,43.08915401,44,updated stim.csv,Version44.csv,Version 44,List 44,divorcee,NA,1301,4.5,807,0.882392822,1302,BOI,-,-,Please name all of the ways you could use this object. Keep in mind that one object can have many uses. Separate your responses with a comma.,NA,y,42604,NA,NA,7569,41497,NA,NA,NA,as a title for a woman who has been divorced,1
57165ba7c5aca2000a8d32ca,v6wn803xfi,Affordance Norms_Prolific,1,11,2023-05-09T17:25:10+00:00,42.16017818,4,updated stim.csv,Version4.csv,Version 4,List 4,stove,NA,109,5.75,2555,0.06185654,110,BOI,-,-,Please name all of the ways you could use this object. Keep in mind that one object can have many uses. Separate your responses with a comma.,NA,y,41688,NA,NA,2574,40582,NA,NA,NA,"you can cook on it, you can stub your toe on it, you can clean it, you can put stuff on it, you can burn your house down with it, you can burn a finger on it, you can burn a toe on it.",1
57165ba7c5aca2000a8d32ca,v6wn803xfi,Affordance Norms_Prolific,1,12,2023-05-09T17:25:57+00:00,46.73173785,4,updated stim.csv,Version4.csv,Version 4,List 4,sock,NA,108,5.833333333,2439,0.34499283,109,BOI,-,-,Please name all of the ways you could use this object. Keep in mind that one object can have many uses. Separate your responses with a comma.,NA,y,46262,NA,NA,1523,44612,NA,NA,NA,"you can wear it, on your left or right feet, you can wash it, you can dry it, you can hang it on the washing line, you can throw it on the floor, you can throw it in the bin",1
57165ba7c5aca2000a8d32ca,v6wn803xfi,Affordance Norms_Prolific,1,13,2023-05-09T17:26:15+00:00,18.30953598,4,updated stim.csv,Version4.csv,Version 4,List 4,fireplace,NA,110,5.458333333,986,0.340651121,111,BOI,-,-,Please name all of the ways you could use this object. Keep in mind that one object can have many uses. Separate your responses with a comma.,NA,y,17853,NA,NA,1201,16694,NA,NA,NA,"you can light it, you can add coal to it, you can warmup a house with it, you can burn down a house with it.",1
57165ba7c5aca2000a8d32ca,v6wn803xfi,Affordance Norms_Prolific,1,14,2023-05-09T17:26:37+00:00,22.55590415,4,updated stim.csv,Version4.csv,Version 4,List 4,pacifier,NA,101,6.090909091,1836,0.787837108,102,BOI,-,-,Please name all of the ways you could use this object. Keep in mind that one object can have many uses. Separate your responses with a comma.,NA,y,22098,NA,NA,1307,20821,NA,NA,NA,"you can make babies shut up with it, you can put it in a babies mouth, you can wash it,",1
57165ba7c5aca2000a8d32ca,v6wn803xfi,Affordance Norms_Prolific,1,15,2023-05-09T17:27:00+00:00,22.21740985,4,updated stim.csv,Version4.csv,Version 4,List 4,ashtray,NA,103,5.44,84,0.252057786,104,BOI,-,-,Please name all of the ways you could use this object. Keep in mind that one object can have many uses. Separate your responses with a comma.,NA,y,21754,NA,NA,1190,20077,NA,NA,NA,"you can put used cigarettes in it, you can wash it, you can throw it, you can empty it",1
57165ba7c5aca2000a8d32ca,v6wn803xfi,Affordance Norms_Prolific,1,16,2023-05-09T17:27:54+00:00,54.13480401,4,updated stim.csv,Version4.csv,Version 4,List 4,bloke,NA,100,4.541666667,240,0.465962689,101,BOI,-,-,Please name all of the ways you could use this object. Keep in mind that one object can have many uses. Separate your responses with a comma.,NA,y,53673,NA,NA,2459,51893,NA,NA,NA,"you can talk to it, you can leave it alone, you can murder it, you can feed it, you can walk with it, you can hug it, you can kiss it, you can make babies with it, you can marry it, you can wash it.",1
57165ba7c5aca2000a8d32ca,v6wn803xfi,Affordance Norms_Prolific,1,17,2023-05-09T17:28:48+00:00,54.24294615,4,updated stim.csv,Version4.csv,Version 4,List 4,hippie,NA,105,4.56,1292,0.109871009,106,BOI,-,-,Please name all of the ways you could use this object. Keep in mind that one object can have many uses. Separate your responses with a comma.,NA,y,53326,NA,NA,2227,51470,NA,NA,NA,"have sex with it, talk to it, eat with it, walk with it, dress with it, go on holiday with it, ignore it, drink with it, bury it, kill it, ",1
57165ba7c5aca2000a8d32ca,v6wn803xfi,Affordance Norms_Prolific,1,18,2023-05-09T17:29:10+00:00,22.19499302,4,updated stim.csv,Version4.csv,Version 4,List 4,calf,NA,119,5.08,402,0.030067237,120,BOI,-,-,Please name all of the ways you could use this object. Keep in mind that one object can have many uses. Separate your responses with a comma.,NA,y,21755,NA,NA,2360,19622,NA,NA,NA,"eat it, kill it, moo to it, walk with it, nurture it, ",1
57165ba7c5aca2000a8d32ca,v6wn803xfi,Affordance Norms_Prolific,1,19,2023-05-09T17:29:31+00:00,20.27982688,4,updated stim.csv,Version4.csv,Version 4,List 4,nephew,NA,118,5.16,1750,0.027468228,119,BOI,-,-,Please name all of the ways you could use this object. Keep in mind that one object can have many uses. Separate your responses with a comma.,NA,y,19822,NA,NA,2358,16020,NA,NA,NA,"you can hug it, take it shopping, talk to it, teach it, ",1
57165ba7c5aca2000a8d32ca,v6wn803xfi,Affordance Norms_Prolific,1,20,2023-05-09T17:30:00+00:00,29.264606,4,updated stim.csv,Version4.csv,Version 4,List 4,chalice,NA,93,5.208333333,490,0.93770869,94,BOI,-,-,Please name all of the ways you could use this object. Keep in mind that one object can have many uses. Separate your responses with a comma.,NA,y,28787,NA,NA,4948,27863,NA,NA,NA,"you can drink from it, you can pour a drink into it, you can clean it, you can make it, you can break it, you can make noises with it, you can cheers glasses with it.",1
57165ba7c5aca2000a8d32ca,v6wn803xfi,Affordance Norms_Prolific,1,21,2023-05-09T17:30:28+00:00,28.55121493,4,updated stim.csv,Version4.csv,Version 4,List 4,cube,NA,114,4.75,721,0.382136645,115,BOI,-,-,Please name all of the ways you could use this object. Keep in mind that one object can have many uses. Separate your responses with a comma.,NA,y,28094,NA,NA,3257,26607,NA,NA,NA,"you can make a ruubix cube with it, you can stack them ontop of eachother, you can turn them into dice, you can build things with it.",1
57165ba7c5aca2000a8d32ca,v6wn803xfi,Affordance Norms_Prolific,1,22,2023-05-09T17:30:56+00:00,28.138942,4,updated stim.csv,Version4.csv,Version 4,List 4,cable,NA,115,4.913043478,390,0.962937957,116,BOI,-,-,Please name all of the ways you could use this object. Keep in mind that one object can have many uses. Separate your responses with a comma.,NA,y,27684,NA,NA,1393,26655,NA,NA,NA,"you can connect electrical objects with it, you can tie someone up with it, you can make it, you can break it, you can sell it, you can refuse it.",1
57165ba7c5aca2000a8d32ca,v6wn803xfi,Affordance Norms_Prolific,1,23,2023-05-09T17:31:24+00:00,27.86986899,4,updated stim.csv,Version4.csv,Version 4,List 4,blouse,NA,102,6.47826087,244,0.637010138,103,BOI,-,-,Please name all of the ways you could use this object. Keep in mind that one object can have many uses. Separate your responses with a comma.,NA,y,27416,NA,NA,2052,26245,NA,NA,NA,"you can put it on, you can take it off, you can stitch it together, you can repair it, you can sell it, you can put it in the bin, you can dye it",1
57165ba7c5aca2000a8d32ca,v6wn803xfi,Affordance Norms_Prolific,1,24,2023-05-09T17:31:53+00:00,28.92447805,4,updated stim.csv,Version4.csv,Version 4,List 4,housecoat,NA,91,5.653846154,1329,0.879948299,92,BOI,-,-,Please name all of the ways you could use this object. Keep in mind that one object can have many uses. Separate your responses with a comma.,NA,y,28060,NA,NA,2649,24385,NA,NA,NA,"you can put it on, you can use it like a blanket, you can repair it, you can wash it, you can buy it, you can make it, you can sell it, ",1
57165ba7c5aca2000a8d32ca,v6wn803xfi,Affordance Norms_Prolific,1,25,2023-05-09T17:32:17+00:00,23.69340897,4,updated stim.csv,Version4.csv,Version 4,List 4,Robot,NA,112,4.861185984,2182,0.615183644,113,BOI,-,-,Please name all of the ways you could use this object. Keep in mind that one object can have many uses. Separate your responses with a comma.,NA,y,23217,NA,NA,1258,22206,NA,NA,NA,"you can talk to it, you can train it, you can help it, you can get it to help you, you can simplify your day to day tasks with it.",1
57165ba7c5aca2000a8d32ca,v6wn803xfi,Affordance Norms_Prolific,1,26,2023-05-09T17:32:35+00:00,17.92722607,4,updated stim.csv,Version4.csv,Version 4,List 4,fleece,NA,117,4.5,1006,0.638440057,118,BOI,-,-,Please name all of the ways you could use this object. Keep in mind that one object can have many uses. Separate your responses with a comma.,NA,y,17479,NA,NA,1042,16401,NA,NA,NA,"you can wear it, you can buy it, you can sell it, you can stitch it, you can repair it, you can use it like a blanket.",1
57165ba7c5aca2000a8d32ca,v6wn803xfi,Affordance Norms_Prolific,1,27,2023-05-09T17:32:58+00:00,22.72283697,4,updated stim.csv,Version4.csv,Version 4,List 4,windowsill,NA,97,5.391304348,2944,0.762834183,98,BOI,-,-,Please name all of the ways you could use this object. Keep in mind that one object can have many uses. Separate your responses with a comma.,NA,y,22258,NA,NA,1181,20502,NA,NA,NA,"you can lean on it, you can put a window above it.",1
57165ba7c5aca2000a8d32ca,v6wn803xfi,Affordance Norms_Prolific,1,28,2023-05-09T17:33:17+00:00,18.93606114,4,updated stim.csv,Version4.csv,Version 4,List 4,daybed,NA,95,5.28,761,0.138632098,96,BOI,-,-,Please name all of the ways you could use this object. Keep in mind that one object can have many uses. Separate your responses with a comma.,NA,y,18456,NA,NA,1592,17390,NA,NA,NA,"you can sleep on it, you can rest on it, you can lay on eat, you can jump on it, you can eat on it.",1
57165ba7c5aca2000a8d32ca,v6wn803xfi,Affordance Norms_Prolific,1,29,2023-05-09T17:33:34+00:00,17.01974487,4,updated stim.csv,Version4.csv,Version 4,List 4,lounger,NA,98,4.692307692,1551,0.8649799,99,BOI,-,-,Please name all of the ways you could use this object. Keep in mind that one object can have many uses. Separate your responses with a comma.,NA,y,16568,NA,NA,1186,15070,NA,NA,NA,"you can sunbathe on it, you can lay on it, you can sleep on it.",1
57165ba7c5aca2000a8d32ca,v6wn803xfi,Affordance Norms_Prolific,1,30,2023-05-09T17:33:48+00:00,14.08764505,4,updated stim.csv,Version4.csv,Version 4,List 4,grits,NA,120,5.291666667,1177,0.650827048,121,BOI,-,-,Please name all of the ways you could use this object. Keep in mind that one object can have many uses. Separate your responses with a comma.,NA,y,13612,NA,NA,1011,12389,NA,NA,NA,"you can eat it, you can cook it, you can make it, you can give it to someone.",1
57165ba7c5aca2000a8d32ca,v6wn803xfi,Affordance Norms_Prolific,1,31,2023-05-09T17:34:04+00:00,16.27107787,4,updated stim.csv,Version4.csv,Version 4,List 4,chessboard,NA,111,6.04,512,0.022831047,112,BOI,-,-,Please name all of the ways you could use this object. Keep in mind that one object can have many uses. Separate your responses with a comma.,NA,y,15810,NA,NA,1011,14201,NA,NA,NA,you can play chess on it.,1
57165ba7c5aca2000a8d32ca,v6wn803xfi,Affordance Norms_Prolific,1,32,2023-05-09T17:35:15+00:00,71.34343815,4,updated stim.csv,Version4.csv,Version 4,List 4,step,NA,113,5.2,2522,0.855940638,114,BOI,-,-,Please name all of the ways you could use this object. Keep in mind that one object can have many uses. Separate your responses with a comma.,NA,y,70772,NA,NA,53389,69258,NA,NA,NA,"step on it, make a staircase with it, elevate yourself on it, create a podium with it",0.679
57165ba7c5aca2000a8d32ca,v6wn803xfi,Affordance Norms_Prolific,1,33,2023-05-09T17:35:40+00:00,24.8879559,4,updated stim.csv,Version4.csv,Version 4,List 4,pool,NA,104,6.041666667,2033,0.323434189,105,BOI,-,-,Please name all of the ways you could use this object. Keep in mind that one object can have many uses. Separate your responses with a comma.,NA,y,24033,NA,NA,1841,22542,NA,NA,NA,"swim in it, play it, reset it, clean it, play water polo in it,",1
57165ba7c5aca2000a8d32ca,v6wn803xfi,Affordance Norms_Prolific,1,34,2023-05-09T17:35:55+00:00,15.29557014,4,updated stim.csv,Version4.csv,Version 4,List 4,blazer,NA,106,5.652173913,233,0.291050238,107,BOI,-,-,Please name all of the ways you could use this object. Keep in mind that one object can have many uses. Separate your responses with a comma.,NA,y,14823,NA,NA,1462,13740,NA,NA,NA,"wear it, repair it, wash it, clean it, buy it, sell it, write on it",1
57165ba7c5aca2000a8d32ca,v6wn803xfi,Affordance Norms_Prolific,1,35,2023-05-09T17:36:14+00:00,18.27109599,4,updated stim.csv,Version4.csv,Version 4,List 4,scalpel,NA,96,5.545454545,2263,0.063596043,97,BOI,-,-,Please name all of the ways you could use this object. Keep in mind that one object can have many uses. Separate your responses with a comma.,NA,y,17763,NA,NA,4245,16507,NA,NA,NA,"operate on someone with it, clean it, make it, sell it, buy it, stab someone with it",0.976
57165ba7c5aca2000a8d32ca,v6wn803xfi,Affordance Norms_Prolific,1,36,2023-05-09T17:36:35+00:00,20.94242501,4,updated stim.csv,Version4.csv,Version 4,List 4,yam,NA,94,5.259259259,2989,0.89961033,95,BOI,-,-,Please name all of the ways you could use this object. Keep in mind that one object can have many uses. Separate your responses with a comma.,NA,y,20491,NA,NA,2829,19523,NA,NA,NA,"eat it, cook with it, make a dish with it, grow it, sell it, buy it, chop it up, mash it",1
57165ba7c5aca2000a8d32ca,v6wn803xfi,Affordance Norms_Prolific,1,37,2023-05-09T17:37:32+00:00,56.94064093,4,updated stim.csv,Version4.csv,Version 4,List 4,preschooler,NA,116,4.409090909,2059,0.435620803,117,BOI,-,-,Please name all of the ways you could use this object. Keep in mind that one object can have many uses. Separate your responses with a comma.,NA,y,56501,NA,NA,16002,54367,NA,NA,NA,"Talk to it, feed it, bathe it, clothe it, walk it, teach it",1
57165ba7c5aca2000a8d32ca,v6wn803xfi,Affordance Norms_Prolific,1,38,2023-05-09T17:38:15+00:00,43.40309405,4,updated stim.csv,Version4.csv,Version 4,List 4,kissing,NA,107,5.458333333,1423,0.486295703,108,BOI,-,-,Please name all of the ways you could use this object. Keep in mind that one object can have many uses. Separate your responses with a comma.,NA,y,42397,NA,NA,24081,41145,NA,NA,NA,"to show affection, to initiate intercourse, to show a family member you love them",1
57165ba7c5aca2000a8d32ca,v6wn803xfi,Affordance Norms_Prolific,1,39,2023-05-09T17:38:50+00:00,35.24505901,4,updated stim.csv,Version4.csv,Version 4,List 4,drumstick,NA,99,5.708333333,855,0.1283264,100,BOI,-,-,Please name all of the ways you could use this object. Keep in mind that one object can have many uses. Separate your responses with a comma.,NA,y,34748,NA,NA,9361,33630,NA,NA,NA,"eat it, play the drums with it, throw it in the bin, play music with it, make loud noises with it, chop it up, cook it",0.945
57165ba7c5aca2000a8d32ca,v6wn803xfi,Affordance Norms_Prolific,1,40,2023-05-09T17:39:02+00:00,11.3282938,4,updated stim.csv,Version4.csv,Version 4,List 4,valet,NA,92,4.625,2834,0.128717005,93,BOI,-,-,Please name all of the ways you could use this object. Keep in mind that one object can have many uses. Separate your responses with a comma.,NA,y,10867,NA,NA,2341,9539,NA,NA,NA,have your car cleaned by it,1
57843b986475d400015a8e45,yyi2lncraa,Affordance Norms_Prolific,1,11,2023-05-10T23:20:21+00:00,16.64549804,38,updated stim.csv,Version38.csv,Version 38,List 38,tuxedo,NA,1119,5.259259259,2809,0.354602152,1120,BOI,-,-,Please name all of the ways you could use this object. Keep in mind that one object can have many uses. Separate your responses with a comma.,NA,y,16060,NA,NA,1899,14008,NA,NA,NA,"wearing, folding, washing, hanging up",1
57843b986475d400015a8e45,yyi2lncraa,Affordance Norms_Prolific,1,12,2023-05-10T23:20:50+00:00,28.86800194,38,updated stim.csv,Version38.csv,Version 38,List 38,cathedral,NA,1132,4.5,460,0.986915949,1133,BOI,-,-,Please name all of the ways you could use this object. Keep in mind that one object can have many uses. Separate your responses with a comma.,NA,y,28266,NA,NA,2799,27106,NA,NA,NA,"place of worship, a party venue, a relaxing area, praying, gatherings",1
57843b986475d400015a8e45,yyi2lncraa,Affordance Norms_Prolific,1,13,2023-05-10T23:21:16+00:00,25.40693498,38,updated stim.csv,Version38.csv,Version 38,List 38,flask,NA,1131,5.416666667,1003,0.410538704,1132,BOI,-,-,Please name all of the ways you could use this object. Keep in mind that one object can have many uses. Separate your responses with a comma.,NA,y,24810,NA,NA,3171,23099,NA,NA,NA,"filling with a liquid, drinking from, storing things, gifting",1
57843b986475d400015a8e45,yyi2lncraa,Affordance Norms_Prolific,1,14,2023-05-10T23:21:54+00:00,38.331146,38,updated stim.csv,Version38.csv,Version 38,List 38,algae,NA,1140,4.458333333,27,0.687227414,1141,BOI,-,-,Please name all of the ways you could use this object. Keep in mind that one object can have many uses. Separate your responses with a comma.,NA,y,37696,NA,NA,20193,34465,NA,NA,NA,"Cooking, fertiliser",0.989
57843b986475d400015a8e45,yyi2lncraa,Affordance Norms_Prolific,1,15,2023-05-10T23:22:19+00:00,25.49158812,38,updated stim.csv,Version38.csv,Version 38,List 38,rhinestone,NA,1116,5.291666667,2162,0.764546581,1117,BOI,-,-,Please name all of the ways you could use this object. Keep in mind that one object can have many uses. Separate your responses with a comma.,NA,y,24885,NA,NA,9914,20725,NA,NA,NA,"embedding, embroidering, looking at, selling",1
57843b986475d400015a8e45,yyi2lncraa,Affordance Norms_Prolific,1,16,2023-05-10T23:22:40+00:00,20.14282489,38,updated stim.csv,Version38.csv,Version 38,List 38,hog,NA,1125,4.407407407,1295,0.339782842,1126,BOI,-,-,Please name all of the ways you could use this object. Keep in mind that one object can have many uses. Separate your responses with a comma.,NA,y,19517,NA,NA,2612,15107,NA,NA,NA,"cooking, playing with, companion, pet, grazing,",1
57843b986475d400015a8e45,yyi2lncraa,Affordance Norms_Prolific,1,17,2023-05-10T23:22:54+00:00,14.6231339,38,updated stim.csv,Version38.csv,Version 38,List 38,shrub,NA,1137,5.259259259,2368,0.148866381,1138,BOI,-,-,Please name all of the ways you could use this object. Keep in mind that one object can have many uses. Separate your responses with a comma.,NA,y,14019,NA,NA,3859,12395,NA,NA,NA,"clothing, shelter, eating, cooking, ",1
57843b986475d400015a8e45,yyi2lncraa,Affordance Norms_Prolific,1,18,2023-05-10T23:23:15+00:00,20.94432712,38,updated stim.csv,Version38.csv,Version 38,List 38,cock,NA,1135,5.04,586,0.404077222,1136,BOI,-,-,Please name all of the ways you could use this object. Keep in mind that one object can have many uses. Separate your responses with a comma.,NA,y,20349,NA,NA,5636,18619,NA,NA,NA,"cooking, eating, alarm clock, eggs",1
57843b986475d400015a8e45,yyi2lncraa,Affordance Norms_Prolific,1,19,2023-05-10T23:23:50+00:00,34.73575497,38,updated stim.csv,Version38.csv,Version 38,List 38,amphibian,NA,1128,4.357142857,37,0.854205204,1129,BOI,-,-,Please name all of the ways you could use this object. Keep in mind that one object can have many uses. Separate your responses with a comma.,NA,y,34134,NA,NA,16198,33381,NA,NA,NA,"Pet, food, Cooking, psychedelics",1
57843b986475d400015a8e45,yyi2lncraa,Affordance Norms_Prolific,1,20,2023-05-10T23:24:07+00:00,17.25127101,38,updated stim.csv,Version38.csv,Version 38,List 38,playground,NA,1111,4.695652174,2000,0.897793338,1112,BOI,-,-,Please name all of the ways you could use this object. Keep in mind that one object can have many uses. Separate your responses with a comma.,NA,y,16636,NA,NA,1720,15590,NA,NA,NA,"Playing, parties, working out, hanging out",1
57843b986475d400015a8e45,yyi2lncraa,Affordance Norms_Prolific,1,21,2023-05-10T23:24:18+00:00,10.93538094,38,updated stim.csv,Version38.csv,Version 38,List 38,clarinet,NA,1122,5.923076923,548,0.471063365,1123,BOI,-,-,Please name all of the ways you could use this object. Keep in mind that one object can have many uses. Separate your responses with a comma.,NA,y,10343,NA,NA,1588,7763,NA,NA,NA,"Playing, listening to, teaching, ",1
57843b986475d400015a8e45,yyi2lncraa,Affordance Norms_Prolific,1,22,2023-05-10T23:24:31+00:00,12.85671496,38,updated stim.csv,Version38.csv,Version 38,List 38,masseuse,NA,1113,5.086956522,1616,0.143923019,1114,BOI,-,-,Please name all of the ways you could use this object. Keep in mind that one object can have many uses. Separate your responses with a comma.,NA,y,12259,NA,NA,2482,10583,NA,NA,NA,"Getting a massage, talking to, companionship",1
57843b986475d400015a8e45,yyi2lncraa,Affordance Norms_Prolific,1,23,2023-05-10T23:24:55+00:00,24.04156709,38,updated stim.csv,Version38.csv,Version 38,List 38,birthmark,NA,1123,4.333333333,223,0.501657581,1124,BOI,-,-,Please name all of the ways you could use this object. Keep in mind that one object can have many uses. Separate your responses with a comma.,NA,y,23439,NA,NA,7325,22196,NA,NA,NA,"identification, uniqueness, getting removed",1
57843b986475d400015a8e45,yyi2lncraa,Affordance Norms_Prolific,1,24,2023-05-10T23:25:31+00:00,36.5044651,38,updated stim.csv,Version38.csv,Version 38,List 38,wheelhouse,NA,1112,4.434782609,2924,0.948512904,1113,BOI,-,-,Please name all of the ways you could use this object. Keep in mind that one object can have many uses. Separate your responses with a comma.,NA,y,35919,NA,NA,27985,33676,NA,NA,NA,"Shelter, dining room",1
57843b986475d400015a8e45,yyi2lncraa,Affordance Norms_Prolific,1,25,2023-05-10T23:25:45+00:00,13.71313596,38,updated stim.csv,Version38.csv,Version 38,List 38,stamp,NA,1130,5.304347826,2506,0.459475683,1131,BOI,-,-,Please name all of the ways you could use this object. Keep in mind that one object can have many uses. Separate your responses with a comma.,NA,y,13106,NA,NA,1897,11991,NA,NA,NA,"Stamping, identification, verification, approval,",1
57843b986475d400015a8e45,yyi2lncraa,Affordance Norms_Prolific,1,26,2023-05-10T23:26:07+00:00,21.65564084,38,updated stim.csv,Version38.csv,Version 38,List 38,lapdog,NA,1124,4.739130435,1465,0.335948226,1125,BOI,-,-,Please name all of the ways you could use this object. Keep in mind that one object can have many uses. Separate your responses with a comma.,NA,y,21065,NA,NA,1985,20193,NA,NA,NA,"Companionship, playing with, feeding, petting, talking to, comfort",1
57843b986475d400015a8e45,yyi2lncraa,Affordance Norms_Prolific,1,27,2023-05-10T23:26:23+00:00,15.80013514,38,updated stim.csv,Version38.csv,Version 38,List 38,shuttle,NA,1126,4.695652174,2372,0.501454535,1127,BOI,-,-,Please name all of the ways you could use this object. Keep in mind that one object can have many uses. Separate your responses with a comma.,NA,y,15210,NA,NA,3769,13666,NA,NA,NA,"A vessel, sending things to space,",1
57843b986475d400015a8e45,yyi2lncraa,Affordance Norms_Prolific,1,28,2023-05-10T23:26:52+00:00,29.01326299,38,updated stim.csv,Version38.csv,Version 38,List 38,gunnysack,NA,1120,4.666666667,1200,0.457718486,1121,BOI,-,-,Please name all of the ways you could use this object. Keep in mind that one object can have many uses. Separate your responses with a comma.,NA,y,28423,NA,NA,13921,26903,NA,NA,NA,"Storing items, A weapon, using as a cover",1
57843b986475d400015a8e45,yyi2lncraa,Affordance Norms_Prolific,1,29,2023-05-10T23:27:25+00:00,33.63972592,38,updated stim.csv,Version38.csv,Version 38,List 38,earphone,NA,1133,5.52173913,877,0.340328788,1134,BOI,-,-,Please name all of the ways you could use this object. Keep in mind that one object can have many uses. Separate your responses with a comma.,NA,y,33043,NA,NA,1810,32033,NA,NA,NA,"Listening to music, noise cancellation, pretending to listen to music to avoid interactions on buses",1
57843b986475d400015a8e45,yyi2lncraa,Affordance Norms_Prolific,1,30,2023-05-10T23:27:45+00:00,19.93088818,38,updated stim.csv,Version38.csv,Version 38,List 38,crucifix,NA,1134,5.68,712,0.375137674,1135,BOI,-,-,Please name all of the ways you could use this object. Keep in mind that one object can have many uses. Separate your responses with a comma.,NA,y,19309,NA,NA,2423,17948,NA,NA,NA,"Prayer, exorcisms, deterrent ",1
57843b986475d400015a8e45,yyi2lncraa,Affordance Norms_Prolific,1,31,2023-05-10T23:27:58+00:00,13.13331485,38,updated stim.csv,Version38.csv,Version 38,List 38,mosquito,NA,1136,4.4,1687,0.362043012,1137,BOI,-,-,Please name all of the ways you could use this object. Keep in mind that one object can have many uses. Separate your responses with a comma.,NA,y,12533,NA,NA,2590,11459,NA,NA,NA,"A pet, A pest, Killing, Feeding, Eating",1
57843b986475d400015a8e45,yyi2lncraa,Affordance Norms_Prolific,1,32,2023-05-10T23:28:23+00:00,24.21659994,38,updated stim.csv,Version38.csv,Version 38,List 38,yacht,NA,1115,4.88,2987,0.325030182,1116,BOI,-,-,Please name all of the ways you could use this object. Keep in mind that one object can have many uses. Separate your responses with a comma.,NA,y,23619,NA,NA,1674,22724,NA,NA,NA,"Sailing, parties, gatherings, alone time, sleeping, eating on, brainstorming on",1
57843b986475d400015a8e45,yyi2lncraa,Affordance Norms_Prolific,1,33,2023-05-10T23:28:52+00:00,29.81878805,38,updated stim.csv,Version38.csv,Version 38,List 38,entomologist,NA,1127,4.583333333,911,0.614583519,1128,BOI,-,-,Please name all of the ways you could use this object. Keep in mind that one object can have many uses. Separate your responses with a comma.,NA,y,29226,NA,NA,11044,28427,NA,NA,NA,"Getting information from, talking to, friendship, identifying animals",1
57843b986475d400015a8e45,yyi2lncraa,Affordance Norms_Prolific,1,34,2023-05-10T23:29:06+00:00,13.25296903,38,updated stim.csv,Version38.csv,Version 38,List 38,steamboat,NA,1117,4.541666667,2516,0.220694021,1118,BOI,-,-,Please name all of the ways you could use this object. Keep in mind that one object can have many uses. Separate your responses with a comma.,NA,y,12654,NA,NA,3362,11674,NA,NA,NA,"Sailing, fishing, eating on,",1
57843b986475d400015a8e45,yyi2lncraa,Affordance Norms_Prolific,1,35,2023-05-10T23:29:23+00:00,17.57394791,38,updated stim.csv,Version38.csv,Version 38,List 38,horn,NA,1114,5.291666667,1311,0.976975589,1115,BOI,-,-,Please name all of the ways you could use this object. Keep in mind that one object can have many uses. Separate your responses with a comma.,NA,y,16972,NA,NA,1889,16048,NA,NA,NA,"Honking, alerting others of danger, a greeting, road rage",1
57843b986475d400015a8e45,yyi2lncraa,Affordance Norms_Prolific,1,36,2023-05-10T23:29:33+00:00,9.293681145,38,updated stim.csv,Version38.csv,Version 38,List 38,generator,NA,1139,4.47826087,1094,0.708062581,1140,BOI,-,-,Please name all of the ways you could use this object. Keep in mind that one object can have many uses. Separate your responses with a comma.,NA,y,8710,NA,NA,2642,5756,NA,NA,NA,"Getting power from, ",1
57843b986475d400015a8e45,yyi2lncraa,Affordance Norms_Prolific,1,37,2023-05-10T23:29:50+00:00,17.36366606,38,updated stim.csv,Version38.csv,Version 38,List 38,vegetable,NA,1138,6.391304348,2841,0.189885729,1139,BOI,-,-,Please name all of the ways you could use this object. Keep in mind that one object can have many uses. Separate your responses with a comma.,NA,y,16782,NA,NA,1727,15679,NA,NA,NA,"Eating, chopping, cooking, steaming, seasoning, frying, decoration",1
57843b986475d400015a8e45,yyi2lncraa,Affordance Norms_Prolific,1,38,2023-05-10T23:30:00+00:00,9.769608021,38,updated stim.csv,Version38.csv,Version 38,List 38,trucks,NA,1129,6.2,2786,0.24192954,1130,BOI,-,-,Please name all of the ways you could use this object. Keep in mind that one object can have many uses. Separate your responses with a comma.,NA,y,9171,NA,NA,1669,7595,NA,NA,NA,"Driving, sleeping in, hauling, ",1
57843b986475d400015a8e45,yyi2lncraa,Affordance Norms_Prolific,1,39,2023-05-10T23:30:16+00:00,16.02634883,38,updated stim.csv,Version38.csv,Version 38,List 38,forceps,NA,1118,4.869565217,1041,0.373524564,1119,BOI,-,-,Please name all of the ways you could use this object. Keep in mind that one object can have many uses. Separate your responses with a comma.,NA,y,15429,NA,NA,6919,14297,NA,NA,NA,"Building muscle, flexing, massaging",1
57843b986475d400015a8e45,yyi2lncraa,Affordance Norms_Prolific,1,40,2023-05-10T23:30:30+00:00,14.6137681,38,updated stim.csv,Version38.csv,Version 38,List 38,maidservant,NA,1121,4.333333333,1576,0.698218704,1122,BOI,-,-,Please name all of the ways you could use this object. Keep in mind that one object can have many uses. Separate your responses with a comma.,NA,y,14020,NA,NA,3211,13049,NA,NA,NA,"Getting served, talking to, tipping, giving items",1
57acc170c6bab4000172a42e,yrd6yy9bzy,Affordance Norms_Prolific,1,11,2023-05-09T18:40:58+00:00,53.67169404,20,updated stim.csv,Version20.csv,Version 20,List 20,seedling,NA,582,5.083333333,2309,0.909423363,583,BOI,-,-,Please name all of the ways you could use this object. Keep in mind that one object can have many uses. Separate your responses with a comma.,NA,y,53236,NA,NA,3976,51580,NA,NA,NA,"to grow plants in a garden, for vegetable patches, growing herbs, horticulture",1
57acc170c6bab4000172a42e,yrd6yy9bzy,Affordance Norms_Prolific,1,12,2023-05-09T18:41:41+00:00,42.92763495,20,updated stim.csv,Version20.csv,Version 20,List 20,garage,NA,575,4.96,1073,0.507161058,576,BOI,-,-,Please name all of the ways you could use this object. Keep in mind that one object can have many uses. Separate your responses with a comma.,NA,y,42461,NA,NA,4028,30764,NA,NA,NA,"to park a vehicle, use as a home gym, for storing household objects, a place for garden items",1
57acc170c6bab4000172a42e,yrd6yy9bzy,Affordance Norms_Prolific,1,13,2023-05-09T18:42:14+00:00,33.23023701,20,updated stim.csv,Version20.csv,Version 20,List 20,hashish,NA,584,4.909090909,1257,0.234929947,585,BOI,-,-,Please name all of the ways you could use this object. Keep in mind that one object can have many uses. Separate your responses with a comma.,NA,y,32782,NA,NA,20365,31296,NA,NA,NA,"to smoke, to be swallowed",1
57acc170c6bab4000172a42e,yrd6yy9bzy,Affordance Norms_Prolific,1,14,2023-05-09T18:43:30+00:00,75.30559707,20,updated stim.csv,Version20.csv,Version 20,List 20,obstetrician,NA,598,5.04,1798,0.141308746,599,BOI,-,-,Please name all of the ways you could use this object. Keep in mind that one object can have many uses. Separate your responses with a comma.,NA,y,74748,NA,NA,15006,73388,NA,NA,NA,"taking care of pregnant women, delivering babies, treating medical conditions, supporting women after birth",1
57acc170c6bab4000172a42e,yrd6yy9bzy,Affordance Norms_Prolific,1,15,2023-05-09T18:44:13+00:00,43.82889199,20,updated stim.csv,Version20.csv,Version 20,List 20,flapjack,NA,571,5.2,1000,0.795806976,572,BOI,-,-,Please name all of the ways you could use this object. Keep in mind that one object can have many uses. Separate your responses with a comma.,NA,y,43405,NA,NA,4024,41196,NA,NA,NA,"to eat, to bake, to be stored as a snack, ",1
57acc170c6bab4000172a42e,yrd6yy9bzy,Affordance Norms_Prolific,1,16,2023-05-09T18:45:19+00:00,65.03328395,20,updated stim.csv,Version20.csv,Version 20,List 20,oilcloth,NA,600,5.125,1803,0.545634211,601,BOI,-,-,Please name all of the ways you could use this object. Keep in mind that one object can have many uses. Separate your responses with a comma.,NA,y,64249,NA,NA,19389,62952,NA,NA,NA,"to decorate a table, to stop spillages ruining a table, to be wiped clean, to hide marks on old furniture",1
57acc170c6bab4000172a42e,yrd6yy9bzy,Affordance Norms_Prolific,1,17,2023-05-09T18:46:29+00:00,70.85215807,20,updated stim.csv,Version20.csv,Version 20,List 20,neurologist,NA,595,4.384615385,1753,0.636652588,596,BOI,-,-,Please name all of the ways you could use this object. Keep in mind that one object can have many uses. Separate your responses with a comma.,NA,y,70331,NA,NA,16216,66013,NA,NA,NA,"diagnosing medical conditions, studying nerves and the brain, treating nervous sytem problems ",1
57acc170c6bab4000172a42e,yrd6yy9bzy,Affordance Norms_Prolific,1,18,2023-05-09T18:47:24+00:00,54.57263589,20,updated stim.csv,Version20.csv,Version 20,List 20,novel,NA,578,5.4,1783,0.135347184,579,BOI,-,-,Please name all of the ways you could use this object. Keep in mind that one object can have many uses. Separate your responses with a comma.,NA,y,54091,NA,NA,9442,52724,NA,NA,NA,"for reading as entertainment, to learn from or study, as a paperweight, for display on a bookshelf, as a memento, to be bought as a gift",1
57acc170c6bab4000172a42e,yrd6yy9bzy,Affordance Norms_Prolific,1,19,2023-05-09T18:47:57+00:00,33.23068094,20,updated stim.csv,Version20.csv,Version 20,List 20,instructor,NA,580,4.583333333,1360,0.834414594,581,BOI,-,-,Please name all of the ways you could use this object. Keep in mind that one object can have many uses. Separate your responses with a comma.,NA,y,32769,NA,NA,3457,30991,NA,NA,NA,"to learn something new, to continue ad education and improve skills",1
57acc170c6bab4000172a42e,yrd6yy9bzy,Affordance Norms_Prolific,1,20,2023-05-09T18:48:30+00:00,33.06129408,20,updated stim.csv,Version20.csv,Version 20,List 20,poinsettia,NA,576,5.347826087,2018,0.660986177,577,BOI,-,-,Please name all of the ways you could use this object. Keep in mind that one object can have many uses. Separate your responses with a comma.,NA,y,32596,NA,NA,3070,26422,NA,NA,NA,"as a decorative flower, as a gift, as a symbol of christmas",1
57acc170c6bab4000172a42e,yrd6yy9bzy,Affordance Norms_Prolific,1,21,2023-05-09T18:48:58+00:00,27.63664103,20,updated stim.csv,Version20.csv,Version 20,List 20,buddy,NA,588,4.916666667,344,0.678293363,589,BOI,-,-,Please name all of the ways you could use this object. Keep in mind that one object can have many uses. Separate your responses with a comma.,NA,y,27196,NA,NA,5308,24335,NA,NA,NA,"as a friend, as a learning partner, a person you spend time with",1
57acc170c6bab4000172a42e,yrd6yy9bzy,Affordance Norms_Prolific,1,22,2023-05-09T18:49:43+00:00,44.63911104,20,updated stim.csv,Version20.csv,Version 20,List 20,antennae,NA,587,4.538461538,47,0.730388709,588,BOI,-,-,Please name all of the ways you could use this object. Keep in mind that one object can have many uses. Separate your responses with a comma.,NA,y,44185,NA,NA,2218,42500,NA,NA,NA,"to seek out objects of desire, to avoid danger, to sense changes in surroundings, for signal for an electronic device",1
57acc170c6bab4000172a42e,yrd6yy9bzy,Affordance Norms_Prolific,1,23,2023-05-09T18:50:32+00:00,49.73652291,20,updated stim.csv,Version20.csv,Version 20,List 20,firewood,NA,593,5.72,987,0.915415576,594,BOI,-,-,Please name all of the ways you could use this object. Keep in mind that one object can have many uses. Separate your responses with a comma.,NA,y,49150,NA,NA,2392,47655,NA,NA,NA,"as a source of fuel for a fire, as a stockpile, as an environment for insects ",1
57acc170c6bab4000172a42e,yrd6yy9bzy,Affordance Norms_Prolific,1,24,2023-05-09T18:51:16+00:00,43.33835602,20,updated stim.csv,Version20.csv,Version 20,List 20,theatergoer,NA,581,5,2673,0.209563183,582,BOI,-,-,Please name all of the ways you could use this object. Keep in mind that one object can have many uses. Separate your responses with a comma.,NA,y,41876,NA,NA,7638,34095,NA,NA,NA,"someone watching a show, a critic for a performance",1
57acc170c6bab4000172a42e,yrd6yy9bzy,Affordance Norms_Prolific,1,25,2023-05-09T18:51:44+00:00,28.81029487,20,updated stim.csv,Version20.csv,Version 20,List 20,smock,NA,594,5.08,2421,0.292298633,595,BOI,-,-,Please name all of the ways you could use this object. Keep in mind that one object can have many uses. Separate your responses with a comma.,NA,y,28189,NA,NA,4967,26211,NA,NA,NA,"as a day dress, as maternity wear, as part of a uniform",1
57acc170c6bab4000172a42e,yrd6yy9bzy,Affordance Norms_Prolific,1,26,2023-05-09T18:52:13+00:00,28.96691203,20,updated stim.csv,Version20.csv,Version 20,List 20,tambourine,NA,579,5.916666667,2628,0.900070154,580,BOI,-,-,Please name all of the ways you could use this object. Keep in mind that one object can have many uses. Separate your responses with a comma.,NA,y,28497,NA,NA,3720,25628,NA,NA,NA,"as part of a musical piece, to keep time, as a prop for a character",1
57acc170c6bab4000172a42e,yrd6yy9bzy,Affordance Norms_Prolific,1,27,2023-05-09T18:53:09+00:00,55.65900612,20,updated stim.csv,Version20.csv,Version 20,List 20,gem,NA,597,5.517241379,1093,0.914098667,598,BOI,-,-,Please name all of the ways you could use this object. Keep in mind that one object can have many uses. Separate your responses with a comma.,NA,y,54667,NA,NA,3477,49999,NA,NA,NA,"an item of treasure on its own, as part of a piece of jewellery such as earrings, as a birthstone, as a decorative object/ornament",1
57acc170c6bab4000172a42e,yrd6yy9bzy,Affordance Norms_Prolific,1,28,2023-05-09T18:53:37+00:00,27.58273292,20,updated stim.csv,Version20.csv,Version 20,List 20,crosswalk,NA,596,4.714285714,706,0.39617836,597,BOI,-,-,Please name all of the ways you could use this object. Keep in mind that one object can have many uses. Separate your responses with a comma.,NA,y,27142,NA,NA,6837,24890,NA,NA,NA,"as a way for pedestrians to cross the road, a way to stop traffic ",1
57acc170c6bab4000172a42e,yrd6yy9bzy,Affordance Norms_Prolific,1,29,2023-05-09T18:54:17+00:00,40.01628494,20,updated stim.csv,Version20.csv,Version 20,List 20,stepladder,NA,599,6.130434783,2527,0.499161262,600,BOI,-,-,Please name all of the ways you could use this object. Keep in mind that one object can have many uses. Separate your responses with a comma.,NA,y,39539,NA,NA,3817,38160,NA,NA,NA,"as a means of reaching a high up object, instead of a large ladder, instead of a kickstool",1
57acc170c6bab4000172a42e,yrd6yy9bzy,Affordance Norms_Prolific,1,30,2023-05-09T18:55:15+00:00,58.61147308,20,updated stim.csv,Version20.csv,Version 20,List 20,jam,NA,573,5.173913043,1372,0.856688434,574,BOI,-,-,Please name all of the ways you could use this object. Keep in mind that one object can have many uses. Separate your responses with a comma.,NA,y,58184,NA,NA,8114,56546,NA,NA,NA,"to spread on toast, to eat in a sandwich, to fill donuts with, to make jam tarts with, to make jam roly poly, as an alternative to marmalade",1
57acc170c6bab4000172a42e,yrd6yy9bzy,Affordance Norms_Prolific,1,31,2023-05-09T18:56:05+00:00,50.159688,20,updated stim.csv,Version20.csv,Version 20,List 20,sedan,NA,586,5.565217391,2306,0.20374677,587,BOI,-,-,Please name all of the ways you could use this object. Keep in mind that one object can have many uses. Separate your responses with a comma.,NA,y,48775,NA,NA,3534,47327,NA,NA,NA,"to travel in, as a vehicle",1
57acc170c6bab4000172a42e,yrd6yy9bzy,Affordance Norms_Prolific,1,32,2023-05-09T18:56:49+00:00,43.28149104,20,updated stim.csv,Version20.csv,Version 20,List 20,shack,NA,583,5.125,2317,0.345258516,584,BOI,-,-,Please name all of the ways you could use this object. Keep in mind that one object can have many uses. Separate your responses with a comma.,NA,y,42271,NA,NA,6489,38969,NA,NA,NA,"as inexpensive housing, as a place to sell food etc at the seaside",1
57acc170c6bab4000172a42e,yrd6yy9bzy,Affordance Norms_Prolific,1,33,2023-05-09T18:57:35+00:00,46.64727807,20,updated stim.csv,Version20.csv,Version 20,List 20,rodent,NA,591,5.041666667,2186,0.950545873,592,BOI,-,-,Please name all of the ways you could use this object. Keep in mind that one object can have many uses. Separate your responses with a comma.,NA,y,45759,NA,NA,5461,41341,NA,NA,NA,"could be kept as a pet, an unwanted houseguest, to describe an unpleasant person",1
57acc170c6bab4000172a42e,yrd6yy9bzy,Affordance Norms_Prolific,1,34,2023-05-09T18:58:04+00:00,28.44979286,20,updated stim.csv,Version20.csv,Version 20,List 20,craftsman,NA,585,4.833333333,679,0.422256989,586,BOI,-,-,Please name all of the ways you could use this object. Keep in mind that one object can have many uses. Separate your responses with a comma.,NA,y,27969,NA,NA,3165,26644,NA,NA,NA,"to make certain goods, to be a specialist",1
57acc170c6bab4000172a42e,yrd6yy9bzy,Affordance Norms_Prolific,1,35,2023-05-09T18:58:29+00:00,24.869349,20,updated stim.csv,Version20.csv,Version 20,List 20,sketchbook,NA,592,5.833333333,2394,0.383818306,593,BOI,-,-,Please name all of the ways you could use this object. Keep in mind that one object can have many uses. Separate your responses with a comma.,NA,y,24388,NA,NA,3318,22593,NA,NA,NA,"for artwork, for rough sketching, for deeds or blueprints, for notes",1
57acc170c6bab4000172a42e,yrd6yy9bzy,Affordance Norms_Prolific,1,36,2023-05-09T18:58:57+00:00,28.00556707,20,updated stim.csv,Version20.csv,Version 20,List 20,skittle,NA,577,5,2401,0.959116035,578,BOI,-,-,Please name all of the ways you could use this object. Keep in mind that one object can have many uses. Separate your responses with a comma.,NA,y,27567,NA,NA,1621,23158,NA,NA,NA,"to play a game of bowling, to knock down",1
57acc170c6bab4000172a42e,yrd6yy9bzy,Affordance Norms_Prolific,1,37,2023-05-09T18:59:32+00:00,35.09728694,20,updated stim.csv,Version20.csv,Version 20,List 20,pastry,NA,590,6.086956522,1886,0.101584578,591,BOI,-,-,Please name all of the ways you could use this object. Keep in mind that one object can have many uses. Separate your responses with a comma.,NA,y,34640,NA,NA,4013,23343,NA,NA,NA,"to bake cakes or pies with, to eat as a croissant etc, ",1
57acc170c6bab4000172a42e,yrd6yy9bzy,Affordance Norms_Prolific,1,38,2023-05-09T19:00:24+00:00,52.57096004,20,updated stim.csv,Version20.csv,Version 20,List 20,dinner,NA,572,5.545454545,795,0.224312152,573,BOI,-,-,Please name all of the ways you could use this object. Keep in mind that one object can have many uses. Separate your responses with a comma.,NA,y,52119,NA,NA,5677,50869,NA,NA,NA,"the meal eaten at certain time each day, a break from work, the actual meal you are eating, to fill you up, to stop hunger, to eat something you enjoy",1
57acc170c6bab4000172a42e,yrd6yy9bzy,Affordance Norms_Prolific,1,39,2023-05-09T19:00:57+00:00,32.80343294,20,updated stim.csv,Version20.csv,Version 20,List 20,cocoa,NA,574,5.625,589,0.771924307,575,BOI,-,-,Please name all of the ways you could use this object. Keep in mind that one object can have many uses. Separate your responses with a comma.,NA,y,32187,NA,NA,2893,29366,NA,NA,NA,"as hot chocolate, as an ingredient in desserts, in a chocolate milkshake, in a chocolate bar",1
57acc170c6bab4000172a42e,yrd6yy9bzy,Affordance Norms_Prolific,1,40,2023-05-09T19:01:44+00:00,47.32814717,20,updated stim.csv,Version20.csv,Version 20,List 20,breasts,NA,589,6.173913043,315,0.727607181,590,BOI,-,-,Please name all of the ways you could use this object. Keep in mind that one object can have many uses. Separate your responses with a comma.,NA,y,46862,NA,NA,3800,40103,NA,NA,NA,"as part of a womans body, to feed a baby, to be covered by a bra, as part of an animal for meat",1
57d74ff1ea00cf0001d47148,yskvg6n8or,Affordance Norms_Prolific,1,11,2023-05-11T00:21:56+00:00,95.86048102,65,updated stim.csv,Version65.csv,Version 65,List 65,cardigan,NA,1947,6.130434783,432,0.798376463,1948,BOI,-,-,Please name all of the ways you could use this object. Keep in mind that one object can have many uses. Separate your responses with a comma.,NA,y,94991,NA,NA,2357,93483,NA,NA,NA,"wear it, sell it for money, repurpose it into other clothing, hang it on a pole like a flag, cover the window with it to block people looking in, use it as a blanket",1
57d74ff1ea00cf0001d47148,yskvg6n8or,Affordance Norms_Prolific,1,12,2023-05-11T00:22:31+00:00,34.06452799,65,updated stim.csv,Version65.csv,Version 65,List 65,Swan,NA,1932,NA,3004,0.764397231,1933,BOI,-,-,Please name all of the ways you could use this object. Keep in mind that one object can have many uses. Separate your responses with a comma.,NA,y,33200,NA,NA,27909,29493,NA,NA,NA,Scare people,0.867
57d74ff1ea00cf0001d47148,yskvg6n8or,Affordance Norms_Prolific,1,13,2023-05-11T00:23:46+00:00,75.11311483,65,updated stim.csv,Version65.csv,Version 65,List 65,chalk,NA,1931,5.92,491,0.617558901,1932,BOI,-,-,Please name all of the ways you could use this object. Keep in mind that one object can have many uses. Separate your responses with a comma.,NA,y,74317,NA,NA,3546,60322,NA,NA,NA,"Write on chalkboard, draw on pavement, colour in on sugar paper, ",0.874
57d74ff1ea00cf0001d47148,yskvg6n8or,Affordance Norms_Prolific,1,14,2023-05-11T00:24:49+00:00,63.41267014,65,updated stim.csv,Version65.csv,Version 65,List 65,scarf,NA,1940,6.434782609,2268,0.420756978,1941,BOI,-,-,Please name all of the ways you could use this object. Keep in mind that one object can have many uses. Separate your responses with a comma.,NA,y,62615,NA,NA,4204,28140,NA,NA,NA,"wear it, tie things together with it, hang yourself with it, ",0.952
57d74ff1ea00cf0001d47148,yskvg6n8or,Affordance Norms_Prolific,1,15,2023-05-11T00:25:48+00:00,59.31956697,65,updated stim.csv,Version65.csv,Version 65,List 65,machete,NA,1930,5.791666667,1565,0.198098874,1931,BOI,-,-,Please name all of the ways you could use this object. Keep in mind that one object can have many uses. Separate your responses with a comma.,NA,y,58533,NA,NA,15969,42817,NA,NA,NA,"cut grass, threaten someone with it, use it to rob a store, poorly chop food with it,",0.833
57d74ff1ea00cf0001d47148,yskvg6n8or,Affordance Norms_Prolific,1,16,2023-05-11T00:26:55+00:00,66.125808,65,updated stim.csv,Version65.csv,Version 65,List 65,tweezer,NA,1926,5.272727273,2810,0.766244776,1927,BOI,-,-,Please name all of the ways you could use this object. Keep in mind that one object can have many uses. Separate your responses with a comma.,NA,y,65270,NA,NA,9459,52033,NA,NA,NA,"pluck eyebrows, pluck splinter from skin, pick up a very small and fine object with it,",0.78
57d74ff1ea00cf0001d47148,yskvg6n8or,Affordance Norms_Prolific,1,17,2023-05-11T00:27:25+00:00,29.98159599,65,updated stim.csv,Version65.csv,Version 65,List 65,ladybug,NA,1948,4.875,1450,0.037104651,1949,BOI,-,-,Please name all of the ways you could use this object. Keep in mind that one object can have many uses. Separate your responses with a comma.,NA,y,29089,NA,NA,23517,26580,NA,NA,NA,"make garden look nicer,",0.384
57d74ff1ea00cf0001d47148,yskvg6n8or,Affordance Norms_Prolific,1,18,2023-05-11T00:28:19+00:00,54.76499987,65,updated stim.csv,Version65.csv,Version 65,List 65,wood,NA,1946,5.590909091,2956,0.526528339,1947,BOI,-,-,Please name all of the ways you could use this object. Keep in mind that one object can have many uses. Separate your responses with a comma.,NA,y,53955,NA,NA,3257,45552,NA,NA,NA,"make furnite out of it, make a shelter, use it as a weapon, break it with a karate chop, ",1
57d74ff1ea00cf0001d47148,yskvg6n8or,Affordance Norms_Prolific,1,19,2023-05-11T00:28:48+00:00,28.71479011,65,updated stim.csv,Version65.csv,Version 65,List 65,scribbling,NA,1934,4.814814815,2288,0.993607388,1935,BOI,-,-,Please name all of the ways you could use this object. Keep in mind that one object can have many uses. Separate your responses with a comma.,NA,y,27867,NA,NA,22042,23539,NA,NA,NA,"make notes,",0.619
57d74ff1ea00cf0001d47148,yskvg6n8or,Affordance Norms_Prolific,1,20,2023-05-11T00:29:29+00:00,40.83509493,65,updated stim.csv,Version65.csv,Version 65,List 65,ocean,NA,1921,5.217391304,1799,0.570371973,1922,BOI,-,-,Please name all of the ways you could use this object. Keep in mind that one object can have many uses. Separate your responses with a comma.,NA,y,40042,NA,NA,4016,35346,NA,NA,NA,"surf, swin, sail, drown, scuba dive, go fishing, cross it in a boat,",1
57d74ff1ea00cf0001d47148,yskvg6n8or,Affordance Norms_Prolific,1,21,2023-05-11T00:30:25+00:00,56.02049804,65,updated stim.csv,Version65.csv,Version 65,List 65,stroller,NA,1942,6.5,2570,0.532036853,1943,BOI,-,-,Please name all of the ways you could use this object. Keep in mind that one object can have many uses. Separate your responses with a comma.,NA,y,55173,NA,NA,4528,50441,NA,NA,NA,"put a baby in it, put an animal in it, walk something around in it, put your shopping in it, push it down a bank, ride it down a slope",1
57d74ff1ea00cf0001d47148,yskvg6n8or,Affordance Norms_Prolific,1,22,2023-05-11T00:31:30+00:00,65.09240508,65,updated stim.csv,Version65.csv,Version 65,List 65,canoe,NA,1923,5.818181818,417,0.726793628,1924,BOI,-,-,Please name all of the ways you could use this object. Keep in mind that one object can have many uses. Separate your responses with a comma.,NA,y,64278,NA,NA,21772,50827,NA,NA,NA,"go canoeing, hang it up in a room, paint in, set it on fire,",0.717
57d74ff1ea00cf0001d47148,yskvg6n8or,Affordance Norms_Prolific,1,23,2023-05-11T00:32:01+00:00,30.85574293,65,updated stim.csv,Version65.csv,Version 65,List 65,stirrup,NA,1944,4.958333333,2538,0.709877255,1945,BOI,-,-,Please name all of the ways you could use this object. Keep in mind that one object can have many uses. Separate your responses with a comma.,NA,y,30029,NA,NA,19012,28770,NA,NA,NA,"put your feet in it, help you get on horse, help you ride horse",0.828
57d74ff1ea00cf0001d47148,yskvg6n8or,Affordance Norms_Prolific,1,24,2023-05-11T00:32:34+00:00,32.86877394,65,updated stim.csv,Version65.csv,Version 65,List 65,pupil,NA,1938,4.8,2102,0.944100244,1939,BOI,-,-,Please name all of the ways you could use this object. Keep in mind that one object can have many uses. Separate your responses with a comma.,NA,y,32046,NA,NA,12139,21577,NA,NA,NA,"teach, lecture, discipline,",0.559
57d74ff1ea00cf0001d47148,yskvg6n8or,Affordance Norms_Prolific,1,25,2023-05-11T00:33:12+00:00,38.08593702,65,updated stim.csv,Version65.csv,Version 65,List 65,holding,NA,1941,4.428571429,1297,0.75355436,1942,BOI,-,-,Please name all of the ways you could use this object. Keep in mind that one object can have many uses. Separate your responses with a comma.,NA,y,37302,NA,NA,35243,36082,NA,NA,NA,live there,0.834
57d74ff1ea00cf0001d47148,yskvg6n8or,Affordance Norms_Prolific,1,26,2023-05-11T00:33:42+00:00,30.26675296,65,updated stim.csv,Version65.csv,Version 65,List 65,cob,NA,1949,4.636363636,582,0.371725658,1950,BOI,-,-,Please name all of the ways you could use this object. Keep in mind that one object can have many uses. Separate your responses with a comma.,NA,y,29443,NA,NA,10187,28920,NA,NA,NA,"cut it, butter it, toast it, make a sandwich with it, dip it in soup",0.845
57d74ff1ea00cf0001d47148,yskvg6n8or,Affordance Norms_Prolific,1,27,2023-05-11T00:33:55+00:00,12.73803115,65,updated stim.csv,Version65.csv,Version 65,List 65,ski,NA,1943,5.52,2397,0.388689884,1944,BOI,-,-,Please name all of the ways you could use this object. Keep in mind that one object can have many uses. Separate your responses with a comma.,NA,y,11938,NA,NA,7477,9701,NA,NA,NA,"go skiing,",0.717
57d74ff1ea00cf0001d47148,yskvg6n8or,Affordance Norms_Prolific,1,28,2023-05-11T00:34:19+00:00,23.75021005,65,updated stim.csv,Version65.csv,Version 65,List 65,kidney,NA,1936,4.68,1415,0.23946005,1937,BOI,-,-,Please name all of the ways you could use this object. Keep in mind that one object can have many uses. Separate your responses with a comma.,NA,y,22824,NA,NA,12414,17684,NA,NA,NA,give it to someone in need,0.739
57d74ff1ea00cf0001d47148,yskvg6n8or,Affordance Norms_Prolific,1,29,2023-05-11T00:34:39+00:00,20.49692202,65,updated stim.csv,Version65.csv,Version 65,List 65,carpenter,NA,1924,5.464285714,436,0.758607588,1925,BOI,-,-,Please name all of the ways you could use this object. Keep in mind that one object can have many uses. Separate your responses with a comma.,NA,y,19668,NA,NA,10185,17088,NA,NA,NA,"make something, repair something,",0.727
57d74ff1ea00cf0001d47148,yskvg6n8or,Affordance Norms_Prolific,1,30,2023-05-11T00:35:17+00:00,37.87097192,65,updated stim.csv,Version65.csv,Version 65,List 65,sex,NA,1939,5.16,2316,0.788611907,1940,BOI,-,-,Please name all of the ways you could use this object. Keep in mind that one object can have many uses. Separate your responses with a comma.,NA,y,36528,NA,NA,17796,31724,NA,NA,NA,"have sex, talk about it,",0.902
57d74ff1ea00cf0001d47148,yskvg6n8or,Affordance Norms_Prolific,1,31,2023-05-11T00:35:44+00:00,27.18424892,65,updated stim.csv,Version65.csv,Version 65,List 65,tag,NA,1937,4.72,2623,0.400888747,1938,BOI,-,-,Please name all of the ways you could use this object. Keep in mind that one object can have many uses. Separate your responses with a comma.,NA,y,26380,NA,NA,5734,26186,NA,NA,NA,"remove the tag, attach the tag, throw the tag away",0.886
57d74ff1ea00cf0001d47148,yskvg6n8or,Affordance Norms_Prolific,1,32,2023-05-11T00:36:00+00:00,16.21755815,65,updated stim.csv,Version65.csv,Version 65,List 65,lollipop,NA,1925,6.48,1545,0.523001154,1926,BOI,-,-,Please name all of the ways you could use this object. Keep in mind that one object can have many uses. Separate your responses with a comma.,NA,y,15410,NA,NA,3356,11740,NA,NA,NA,"suck on it, lick it, chew on it, throw it on the floor",1
57d74ff1ea00cf0001d47148,yskvg6n8or,Affordance Norms_Prolific,1,33,2023-05-11T00:36:37+00:00,36.79806399,65,updated stim.csv,Version65.csv,Version 65,List 65,wheel,NA,1927,5.458333333,2921,0.954848444,1928,BOI,-,-,Please name all of the ways you could use this object. Keep in mind that one object can have many uses. Separate your responses with a comma.,NA,y,35941,NA,NA,12974,34348,NA,NA,NA,"roll it, stand on it and slowly walk, use it as a part of a vehicle,",0.911
57d74ff1ea00cf0001d47148,yskvg6n8or,Affordance Norms_Prolific,1,34,2023-05-11T00:37:06+00:00,29.24502492,65,updated stim.csv,Version65.csv,Version 65,List 65,toaster,NA,1929,6.04,2710,0.130654908,1930,BOI,-,-,Please name all of the ways you could use this object. Keep in mind that one object can have many uses. Separate your responses with a comma.,NA,y,28459,NA,NA,2712,26767,NA,NA,NA,"toast bread, toast bagels, reheat pizza, stick a fork in it",0.874
57d74ff1ea00cf0001d47148,yskvg6n8or,Affordance Norms_Prolific,1,35,2023-05-11T00:37:46+00:00,39.73887205,65,updated stim.csv,Version65.csv,Version 65,List 65,hall,NA,1950,4.346153846,1219,0.79267533,1951,BOI,-,-,Please name all of the ways you could use this object. Keep in mind that one object can have many uses. Separate your responses with a comma.,NA,y,38895,NA,NA,8437,29403,NA,NA,NA,"walk down it, shout and see if it echos, dance,",0.867
57d74ff1ea00cf0001d47148,yskvg6n8or,Affordance Norms_Prolific,1,36,2023-05-11T00:38:06+00:00,19.62537384,65,updated stim.csv,Version65.csv,Version 65,List 65,fist,NA,1928,6.08,993,0.53562043,1929,BOI,-,-,Please name all of the ways you could use this object. Keep in mind that one object can have many uses. Separate your responses with a comma.,NA,y,18812,NA,NA,2665,16000,NA,NA,NA,"wave it, punch, clench it,",0.819
57d74ff1ea00cf0001d47148,yskvg6n8or,Affordance Norms_Prolific,1,37,2023-05-11T00:38:36+00:00,30.15124822,65,updated stim.csv,Version65.csv,Version 65,List 65,barrel,NA,1933,5.304347826,153,0.49886335,1934,BOI,-,-,Please name all of the ways you could use this object. Keep in mind that one object can have many uses. Separate your responses with a comma.,NA,y,29359,NA,NA,3197,28924,NA,NA,NA,"fill it, hide something in it, put it on its side, roll it, walk on it slowly so it rolls as you walk",1
57d74ff1ea00cf0001d47148,yskvg6n8or,Affordance Norms_Prolific,1,38,2023-05-11T00:39:11+00:00,35.38821983,65,updated stim.csv,Version65.csv,Version 65,List 65,optician,NA,1922,4.851851852,1813,0.623184015,1923,BOI,-,-,Please name all of the ways you could use this object. Keep in mind that one object can have many uses. Separate your responses with a comma.,NA,y,34029,NA,NA,10076,32434,NA,NA,NA,"check eyes, prescribe glasses or lenses, check for eye diseases,",0.871
57d74ff1ea00cf0001d47148,yskvg6n8or,Affordance Norms_Prolific,1,39,2023-05-11T00:39:48+00:00,37.10181499,65,updated stim.csv,Version65.csv,Version 65,List 65,tractor,NA,1935,5.590909091,2753,0.880841086,1936,BOI,-,-,Please name all of the ways you could use this object. Keep in mind that one object can have many uses. Separate your responses with a comma.,NA,y,35729,NA,NA,6134,34508,NA,NA,NA,"cut grass, hold up traffic, farm, pull a trailer",0.905
57d74ff1ea00cf0001d47148,yskvg6n8or,Affordance Norms_Prolific,1,40,2023-05-11T00:40:16+00:00,27.45896006,65,updated stim.csv,Version65.csv,Version 65,List 65,windshield,NA,1945,5.708333333,2945,0.584714095,1946,BOI,-,-,Please name all of the ways you could use this object. Keep in mind that one object can have many uses. Separate your responses with a comma.,NA,y,26699,NA,NA,8673,25203,NA,NA,NA,"look through it, crack it, jump on it, clean it, throw paint over it",0.821
58497529bd87380001552f71,0naev6hosq,Affordance Norms_Prolific,1,11,2023-05-09T21:06:16+00:00,37.84234905,2,updated stim.csv,Version2.csv,Version 2,List 2,yourself,NA,34,5.583333333,2998,0.504476823,35,BOI,-,-,Please name all of the ways you could use this object. Keep in mind that one object can have many uses. Separate your responses with a comma.,NA,y,36864,NA,NA,5608,35910,NA,NA,NA,"singing, talking, shouting, running, friend, son, company",1
58497529bd87380001552f71,0naev6hosq,Affordance Norms_Prolific,1,12,2023-05-09T21:07:33+00:00,76.75434685,2,updated stim.csv,Version2.csv,Version 2,List 2,boot,NA,41,6.555555556,281,0.153320127,42,BOI,-,-,Please name all of the ways you could use this object. Keep in mind that one object can have many uses. Separate your responses with a comma.,NA,y,76047,NA,NA,3087,40658,NA,NA,NA,"shoe, doorstop",1
58497529bd87380001552f71,0naev6hosq,Affordance Norms_Prolific,1,13,2023-05-09T21:08:03+00:00,30.17141604,2,updated stim.csv,Version2.csv,Version 2,List 2,skittles,NA,38,5.24,2402,0.06527123,39,BOI,-,-,Please name all of the ways you could use this object. Keep in mind that one object can have many uses. Separate your responses with a comma.,NA,y,29459,NA,NA,6400,19861,NA,NA,NA,"sweets, marbles, decorative object",1
58497529bd87380001552f71,0naev6hosq,Affordance Norms_Prolific,1,14,2023-05-09T21:09:03+00:00,60.629673,2,updated stim.csv,Version2.csv,Version 2,List 2,tripe,NA,56,4.7,2778,0.883826576,57,BOI,-,-,Please name all of the ways you could use this object. Keep in mind that one object can have many uses. Separate your responses with a comma.,NA,y,59933,NA,NA,2086,6042,NA,NA,NA,foodstuff,1
58497529bd87380001552f71,0naev6hosq,Affordance Norms_Prolific,1,15,2023-05-09T21:09:52+00:00,48.33481193,2,updated stim.csv,Version2.csv,Version 2,List 2,lettuce,NA,33,6.083333333,1497,0.692615167,34,BOI,-,-,Please name all of the ways you could use this object. Keep in mind that one object can have many uses. Separate your responses with a comma.,NA,y,47600,NA,NA,1682,30272,NA,NA,NA,"food, pampering object",1
58497529bd87380001552f71,0naev6hosq,Affordance Norms_Prolific,1,16,2023-05-09T21:10:14+00:00,22.08521295,2,updated stim.csv,Version2.csv,Version 2,List 2,barman,NA,39,4.818181818,150,0.478634366,40,BOI,-,-,Please name all of the ways you could use this object. Keep in mind that one object can have many uses. Separate your responses with a comma.,NA,y,21376,NA,NA,3269,20417,NA,NA,NA,"bartender, converse with him, be friends with him",1
58497529bd87380001552f71,0naev6hosq,Affordance Norms_Prolific,1,17,2023-05-09T21:10:26+00:00,12.06408715,2,updated stim.csv,Version2.csv,Version 2,List 2,toy,NA,43,6.08,2750,0.595966616,44,BOI,-,-,Please name all of the ways you could use this object. Keep in mind that one object can have many uses. Separate your responses with a comma.,NA,y,11427,NA,NA,1691,10433,NA,NA,NA,"play with it, give it away, give as a present",1
58497529bd87380001552f71,0naev6hosq,Affordance Norms_Prolific,1,18,2023-05-09T21:12:03+00:00,96.8687849,2,updated stim.csv,Version2.csv,Version 2,List 2,teabag,NA,42,6.32,2642,0.384323611,43,BOI,-,-,Please name all of the ways you could use this object. Keep in mind that one object can have many uses. Separate your responses with a comma.,NA,y,96169,NA,NA,3273,4615,NA,NA,NA,make tea,1
58497529bd87380001552f71,0naev6hosq,Affordance Norms_Prolific,1,19,2023-05-09T21:12:18+00:00,15.571805,2,updated stim.csv,Version2.csv,Version 2,List 2,hotplate,NA,45,5.230769231,1323,0.512471955,46,BOI,-,-,Please name all of the ways you could use this object. Keep in mind that one object can have many uses. Separate your responses with a comma.,NA,y,14686,NA,NA,2108,13799,NA,NA,NA,"serve dinner, keep food warm, use as a heater",1
58497529bd87380001552f71,0naev6hosq,Affordance Norms_Prolific,1,20,2023-05-09T21:12:39+00:00,20.30575895,2,updated stim.csv,Version2.csv,Version 2,List 2,yogurt,NA,49,6.347826087,2994,0.675214554,50,BOI,-,-,Please name all of the ways you could use this object. Keep in mind that one object can have many uses. Separate your responses with a comma.,NA,y,19578,NA,NA,1312,16440,NA,NA,NA,"eat it, smear it, throw it at someone, store it",1
58497529bd87380001552f71,0naev6hosq,Affordance Norms_Prolific,1,21,2023-05-09T21:12:46+00:00,7.828933001,2,updated stim.csv,Version2.csv,Version 2,List 2,coverall,NA,50,4.739130435,670,0.633267106,51,BOI,-,-,Please name all of the ways you could use this object. Keep in mind that one object can have many uses. Separate your responses with a comma.,NA,y,7141,NA,NA,3284,6229,NA,NA,NA,I don't know what a coverall is,1
58497529bd87380001552f71,0naev6hosq,Affordance Norms_Prolific,1,22,2023-05-09T21:13:13+00:00,26.61192417,2,updated stim.csv,Version2.csv,Version 2,List 2,turban,NA,40,5.148148148,2799,0.680797852,41,BOI,-,-,Please name all of the ways you could use this object. Keep in mind that one object can have many uses. Separate your responses with a comma.,NA,y,25882,NA,NA,1286,19766,NA,NA,NA,"wear it, unwind it and use it as a scarf",1
58497529bd87380001552f71,0naev6hosq,Affordance Norms_Prolific,1,23,2023-05-09T21:13:38+00:00,24.8869009,2,updated stim.csv,Version2.csv,Version 2,List 2,godmother,NA,46,5.19047619,1128,0.679960661,47,BOI,-,-,Please name all of the ways you could use this object. Keep in mind that one object can have many uses. Separate your responses with a comma.,NA,y,23966,NA,NA,7997,23013,NA,NA,NA,"talk to her, spend time with her, play games with her",1
58497529bd87380001552f71,0naev6hosq,Affordance Norms_Prolific,1,24,2023-05-09T21:14:16+00:00,38.12261605,2,updated stim.csv,Version2.csv,Version 2,List 2,bottle,NA,35,5.464285714,287,0.648959205,36,BOI,-,-,Please name all of the ways you could use this object. Keep in mind that one object can have many uses. Separate your responses with a comma.,NA,y,37449,NA,NA,2262,36137,NA,NA,NA,"drink from it, use it as a weapon, squeeze it, open it, close it",1
58497529bd87380001552f71,0naev6hosq,Affordance Norms_Prolific,1,25,2023-05-09T21:14:40+00:00,23.73976898,2,updated stim.csv,Version2.csv,Version 2,List 2,prankster,NA,51,4.642857143,2058,0.516126599,52,BOI,-,-,Please name all of the ways you could use this object. Keep in mind that one object can have many uses. Separate your responses with a comma.,NA,y,22870,NA,NA,7364,21638,NA,NA,NA,"laugh with them, tell them jokes, get pranked by them",1
58497529bd87380001552f71,0naev6hosq,Affordance Norms_Prolific,1,26,2023-05-09T21:15:00+00:00,20.40275502,2,updated stim.csv,Version2.csv,Version 2,List 2,undergarment,NA,58,6.074074074,2822,0.498329355,59,BOI,-,-,Please name all of the ways you could use this object. Keep in mind that one object can have many uses. Separate your responses with a comma.,NA,y,19755,NA,NA,1114,18764,NA,NA,NA,"wear it, wash it, iron it, hang it to dry, put it on another part of your body",1
58497529bd87380001552f71,0naev6hosq,Affordance Norms_Prolific,1,27,2023-05-09T21:15:28+00:00,27.88211107,2,updated stim.csv,Version2.csv,Version 2,List 2,blower,NA,53,4.48,245,0.100535723,54,BOI,-,-,Please name all of the ways you could use this object. Keep in mind that one object can have many uses. Separate your responses with a comma.,NA,y,27203,NA,NA,3894,25812,NA,NA,NA,"call someone (slang for telephone), blow leaves with it, talk to them (someone who blows)",1
58497529bd87380001552f71,0naev6hosq,Affordance Norms_Prolific,1,28,2023-05-09T21:15:43+00:00,14.96773481,2,updated stim.csv,Version2.csv,Version 2,List 2,newscaster,NA,32,4.347826087,1757,0.595175497,33,BOI,-,-,Please name all of the ways you could use this object. Keep in mind that one object can have many uses. Separate your responses with a comma.,NA,y,14307,NA,NA,1545,13343,NA,NA,NA,"listen to them, watch them, find them on social media",1
58497529bd87380001552f71,0naev6hosq,Affordance Norms_Prolific,1,29,2023-05-09T21:15:59+00:00,15.74442005,2,updated stim.csv,Version2.csv,Version 2,List 2,courtyard,NA,31,4.392857143,668,0.714936931,32,BOI,-,-,Please name all of the ways you could use this object. Keep in mind that one object can have many uses. Separate your responses with a comma.,NA,y,15063,NA,NA,1453,10117,NA,NA,NA,"visit the courtyard, play games in it, sit in it",1
58497529bd87380001552f71,0naev6hosq,Affordance Norms_Prolific,1,30,2023-05-09T21:16:29+00:00,30.35044694,2,updated stim.csv,Version2.csv,Version 2,List 2,trap,NA,57,4.695652174,2762,0.942630662,58,BOI,-,-,Please name all of the ways you could use this object. Keep in mind that one object can have many uses. Separate your responses with a comma.,NA,y,29698,NA,NA,5405,28674,NA,NA,NA,"set it to catch mice, water it (venus fly trap), set a trap (for another person)",1
58497529bd87380001552f71,0naev6hosq,Affordance Norms_Prolific,1,31,2023-05-09T21:17:08+00:00,39.22119617,2,updated stim.csv,Version2.csv,Version 2,List 2,rainwater,NA,60,5.407407407,2133,0.78433646,61,BOI,-,-,Please name all of the ways you could use this object. Keep in mind that one object can have many uses. Separate your responses with a comma.,NA,y,38526,NA,NA,25489,37328,NA,NA,NA,"collect it, drink it, stand in it, shower in it, bottle it",0.79
58497529bd87380001552f71,0naev6hosq,Affordance Norms_Prolific,1,32,2023-05-09T21:17:26+00:00,17.95777798,2,updated stim.csv,Version2.csv,Version 2,List 2,goalpost,NA,37,4.84,1121,0.199203882,38,BOI,-,-,Please name all of the ways you could use this object. Keep in mind that one object can have many uses. Separate your responses with a comma.,NA,y,17275,NA,NA,4475,16412,NA,NA,NA,"hit it (with a ball), put it in a garden, hang a net on it",1
58497529bd87380001552f71,0naev6hosq,Affordance Norms_Prolific,1,33,2023-05-09T21:17:48+00:00,21.78165293,2,updated stim.csv,Version2.csv,Version 2,List 2,mice,NA,47,5,1653,0.813855277,48,BOI,-,-,Please name all of the ways you could use this object. Keep in mind that one object can have many uses. Separate your responses with a comma.,NA,y,20990,NA,NA,4310,20084,NA,NA,NA,"chase them, keep them as a pet, feed them, look after them, watch them, visit them at a zoo",1
58497529bd87380001552f71,0naev6hosq,Affordance Norms_Prolific,1,34,2023-05-09T21:18:04+00:00,15.90699792,2,updated stim.csv,Version2.csv,Version 2,List 2,assemblyman,NA,59,4.72,89,0.034188339,60,BOI,-,-,Please name all of the ways you could use this object. Keep in mind that one object can have many uses. Separate your responses with a comma.,NA,y,15173,NA,NA,2487,11758,NA,NA,NA,"hire him, speak to him, pay him",1
58497529bd87380001552f71,0naev6hosq,Affordance Norms_Prolific,1,35,2023-05-09T21:18:15+00:00,10.77354813,2,updated stim.csv,Version2.csv,Version 2,List 2,satchel,NA,36,5.583333333,2245,0.682973727,37,BOI,-,-,Please name all of the ways you could use this object. Keep in mind that one object can have many uses. Separate your responses with a comma.,NA,y,10100,NA,NA,1136,8771,NA,NA,NA,"wear it, store it, store things in it",1
58497529bd87380001552f71,0naev6hosq,Affordance Norms_Prolific,1,36,2023-05-09T21:18:36+00:00,21.50887799,2,updated stim.csv,Version2.csv,Version 2,List 2,choreographer,NA,44,4.826086957,535,0.955772762,45,BOI,-,-,Please name all of the ways you could use this object. Keep in mind that one object can have many uses. Separate your responses with a comma.,NA,y,20750,NA,NA,14283,15587,NA,NA,NA,talk to them,0.928
58497529bd87380001552f71,0naev6hosq,Affordance Norms_Prolific,1,37,2023-05-09T21:18:47+00:00,10.59671402,2,updated stim.csv,Version2.csv,Version 2,List 2,dolphin,NA,48,4.52,817,0.223119321,49,BOI,-,-,Please name all of the ways you could use this object. Keep in mind that one object can have many uses. Separate your responses with a comma.,NA,y,9873,NA,NA,1211,8112,NA,NA,NA,"watch them, take photos of them, swim with them",1
58497529bd87380001552f71,0naev6hosq,Affordance Norms_Prolific,1,38,2023-05-09T21:18:55+00:00,8.489220858,2,updated stim.csv,Version2.csv,Version 2,List 2,antibiotics,NA,55,4.956521739,48,0.731549393,56,BOI,-,-,Please name all of the ways you could use this object. Keep in mind that one object can have many uses. Separate your responses with a comma.,NA,y,7725,NA,NA,1418,4621,NA,NA,NA,take them when prescribed,1
58497529bd87380001552f71,0naev6hosq,Affordance Norms_Prolific,1,39,2023-05-09T21:19:08+00:00,12.96317506,2,updated stim.csv,Version2.csv,Version 2,List 2,gondola,NA,52,4.916666667,1137,0.75699281,53,BOI,-,-,Please name all of the ways you could use this object. Keep in mind that one object can have many uses. Separate your responses with a comma.,NA,y,12135,NA,NA,5206,8673,NA,NA,NA,use it as a method of travel,1
58497529bd87380001552f71,0naev6hosq,Affordance Norms_Prolific,1,40,2023-05-09T21:19:20+00:00,11.58797908,2,updated stim.csv,Version2.csv,Version 2,List 2,gunpowder,NA,54,4.96,1201,0.163221051,55,BOI,-,-,Please name all of the ways you could use this object. Keep in mind that one object can have many uses. Separate your responses with a comma.,NA,y,10815,NA,NA,1892,6495,NA,NA,NA,"light it, use it in a cannon",1
587d4ed4e4404c0001c9d1b9,wocqkgj6ab,Affordance Norms_Prolific,1,11,2023-05-09T21:04:40+00:00,122.0051298,80,updated stim.csv,Version80.csv,Version 80,List 80,uncle,NA,2393,5.392857143,2817,0.563820135,2394,BOI,-,-,Please name all of the ways you could use this object. Keep in mind that one object can have many uses. Separate your responses with a comma.,NA,y,121148,NA,NA,9305,119234,NA,NA,NA,"chauffeur, money lender, baby sitter, dog sitter, house sitter, model, scarer of small children, benefactor",1
587d4ed4e4404c0001c9d1b9,wocqkgj6ab,Affordance Norms_Prolific,1,12,2023-05-09T21:06:06+00:00,85.30721807,80,updated stim.csv,Version80.csv,Version 80,List 80,mommy,NA,2375,5.434782609,1676,0.994613732,2376,BOI,-,-,Please name all of the ways you could use this object. Keep in mind that one object can have many uses. Separate your responses with a comma.,NA,y,84535,NA,NA,5776,80665,NA,NA,NA,"feeder, cuddler, washer of clothing, chef, ironer, cleaner, therapist, bank, chauffeur, ",1
587d4ed4e4404c0001c9d1b9,wocqkgj6ab,Affordance Norms_Prolific,1,13,2023-05-09T21:06:49+00:00,43.515692,80,updated stim.csv,Version80.csv,Version 80,List 80,tradesman,NA,2390,4.84,2754,0.00266527,2391,BOI,-,-,Please name all of the ways you could use this object. Keep in mind that one object can have many uses. Separate your responses with a comma.,NA,y,43052,NA,NA,3942,40049,NA,NA,NA,"fixer, way to spend all your money",1
587d4ed4e4404c0001c9d1b9,wocqkgj6ab,Affordance Norms_Prolific,1,14,2023-05-09T21:07:57+00:00,67.56098199,80,updated stim.csv,Version80.csv,Version 80,List 80,sausage,NA,2372,6.48,2252,0.068814903,2373,BOI,-,-,Please name all of the ways you could use this object. Keep in mind that one object can have many uses. Separate your responses with a comma.,NA,y,66756,NA,NA,2678,56293,NA,NA,NA,"eating, feeding the dog, dildo, weapon, poison, decoration for mash potato",1
587d4ed4e4404c0001c9d1b9,wocqkgj6ab,Affordance Norms_Prolific,1,15,2023-05-09T21:09:12+00:00,75.18758106,80,updated stim.csv,Version80.csv,Version 80,List 80,clothespin,NA,2384,5.12,571,0.678732729,2385,BOI,-,-,Please name all of the ways you could use this object. Keep in mind that one object can have many uses. Separate your responses with a comma.,NA,y,74398,NA,NA,7460,73260,NA,NA,NA,"hanging washing, making dollies, sealing open food bags, nipple clamp, educational tool for marking an answer",1
587d4ed4e4404c0001c9d1b9,wocqkgj6ab,Affordance Norms_Prolific,1,16,2023-05-09T21:10:32+00:00,80.12013793,80,updated stim.csv,Version80.csv,Version 80,List 80,coat,NA,2394,6.565217391,581,0.594554122,2395,BOI,-,-,Please name all of the ways you could use this object. Keep in mind that one object can have many uses. Separate your responses with a comma.,NA,y,79370,NA,NA,11947,73031,NA,NA,NA,"body warmer, weather protection, blanket, pillow, handbag, rain protection, nose wiper, fashion",1
587d4ed4e4404c0001c9d1b9,wocqkgj6ab,Affordance Norms_Prolific,1,17,2023-05-09T21:11:42+00:00,69.73043394,80,updated stim.csv,Version80.csv,Version 80,List 80,ballplayer,NA,2392,4.56,133,0.759693243,2393,BOI,-,-,Please name all of the ways you could use this object. Keep in mind that one object can have many uses. Separate your responses with a comma.,NA,y,68939,NA,NA,19303,27665,NA,NA,NA,"entertainment, ",1
587d4ed4e4404c0001c9d1b9,wocqkgj6ab,Affordance Norms_Prolific,1,18,2023-05-09T21:12:14+00:00,31.97933006,80,updated stim.csv,Version80.csv,Version 80,List 80,globe,NA,2386,5.28,1116,0.217235145,2387,BOI,-,-,Please name all of the ways you could use this object. Keep in mind that one object can have many uses. Separate your responses with a comma.,NA,y,31420,NA,NA,2986,28120,NA,NA,NA,"finding places, holiday planning, playing catch, decoration, megalomania",1
587d4ed4e4404c0001c9d1b9,wocqkgj6ab,Affordance Norms_Prolific,1,19,2023-05-09T21:13:01+00:00,47.64762497,80,updated stim.csv,Version80.csv,Version 80,List 80,packet,NA,2383,4.52173913,1839,0.560424682,2384,BOI,-,-,Please name all of the ways you could use this object. Keep in mind that one object can have many uses. Separate your responses with a comma.,NA,y,46916,NA,NA,3386,42805,NA,NA,NA,"storage, keeping things fresh, underpants, prison condom, ",1
587d4ed4e4404c0001c9d1b9,wocqkgj6ab,Affordance Norms_Prolific,1,20,2023-05-09T21:13:34+00:00,32.23912716,80,updated stim.csv,Version80.csv,Version 80,List 80,crossbow,NA,2373,5.541666667,705,0.469963878,2374,BOI,-,-,Please name all of the ways you could use this object. Keep in mind that one object can have many uses. Separate your responses with a comma.,NA,y,31754,NA,NA,3584,24375,NA,NA,NA,"hunting, weapon, decoration, acting cool",1
587d4ed4e4404c0001c9d1b9,wocqkgj6ab,Affordance Norms_Prolific,1,21,2023-05-09T21:14:29+00:00,55.02491379,80,updated stim.csv,Version80.csv,Version 80,List 80,environmentalist,NA,2387,4.482758621,915,0.0299571,2388,BOI,-,-,Please name all of the ways you could use this object. Keep in mind that one object can have many uses. Separate your responses with a comma.,NA,y,54206,NA,NA,4031,47296,NA,NA,NA,"saving the planet, annoying commuters, nagging, helping ",1
