Username,Trial,Condition.Number,Condition.Notes,Stimuli.Cue,Procedure.Item,Procedure.Max.Time,Procedure.Min.Time,Response.RT,Response.RTfirst,Response.RTlast,affordance,affordance_corrected,affordance_lemma,POS,Lemma
10012878_CL,11,2,List 2,undergarment,59,-,-,46282,2552,29816,wearing,wearing,wear,VBG,wear
10012878_CL,11,2,List 2,undergarment,59,-,-,46282,2552,29816,throwing,throwing,throw,VBG,throw
10012878_CL,11,2,List 2,undergarment,59,-,-,46282,2552,29816,fashion,fashion,fashion,NN,fashion
10012878_CL,11,2,List 2,undergarment,59,-,-,46282,2552,29816,coverage,coverage,coverage,NN,coverage
10012878_CL,11,2,List 2,undergarment,59,-,-,46282,2552,29816,attention,attention,attention,NN,attention
10012878_CL,12,2,List 2,assemblyman,60,-,-,36999,3300,22327,construction,construction,construction,NN,construction
10012878_CL,12,2,List 2,assemblyman,60,-,-,36999,3300,22327,assistance,assistance,assistance,NN,assistance
10012878_CL,12,2,List 2,assemblyman,60,-,-,36999,3300,22327,work,work,work,NN,work
10012878_CL,13,2,List 2,trap,58,-,-,26276,5017,10520,opening,opening,open,VBG,open
10012878_CL,13,2,List 2,trap,58,-,-,26276,5017,10520,closing,closing,close,VBG,close
10012878_CL,13,2,List 2,trap,58,-,-,26276,5017,10520,tricking,tricking,trick,VBG,trick
10012878_CL,14,2,List 2,lettuce,34,-,-,24155,2118,22202,salad,salad,salad,JJ,salad
10012878_CL,14,2,List 2,lettuce,34,-,-,24155,2118,22202,food,food,food,NN,food
10012878_CL,14,2,List 2,lettuce,34,-,-,24155,2118,22202,cooking,cooking,cook,VBG,cook
10012878_CL,14,2,List 2,lettuce,34,-,-,24155,2118,22202,feed,feed,fee,NN,feed
10012878_CL,14,2,List 2,lettuce,34,-,-,24155,2118,22202,tossing,tossing,toss,VBG,toss
10012878_CL,15,2,List 2,courtyard,32,-,-,45778,2611,11453,viewing,viewing,view,VBG,view
10012878_CL,15,2,List 2,courtyard,32,-,-,45778,2611,11453,relaxing,relaxing,relax,VBG,relax
10012878_CL,16,2,List 2,godmother,47,-,-,15972,1974,14738,talking,talking,talk,VBG,talk
10012878_CL,16,2,List 2,godmother,47,-,-,15972,1974,14738,asking,asking,ask,VBG,ask
10012878_CL,16,2,List 2,godmother,47,-,-,15972,1974,14738,cooking,cooking,cook,VBG,cook
10012878_CL,16,2,List 2,godmother,47,-,-,15972,1974,14738,parenting,parenting,parenting,VBG,parent
10012878_CL,17,2,List 2,skittles,39,-,-,20662,2281,19370,eating,eating,eat,VBG,eat
10012878_CL,17,2,List 2,skittles,39,-,-,20662,2281,19370,art,art,art,JJ,art
10012878_CL,17,2,List 2,skittles,39,-,-,20662,2281,19370,satisfaction,satisfaction,satisfaction,NN,satisfaction
10012878_CL,18,2,List 2,mice,48,-,-,27840,1581,26627,experiments,experiments,experiment,NNS,experiment
10012878_CL,18,2,List 2,mice,48,-,-,27840,1581,26627,feed,feed,fee,VBP,fee
10012878_CL,18,2,List 2,mice,48,-,-,27840,1581,26627,entertainment,entertainment,entertainment,NN,entertainment
10012878_CL,19,2,List 2,barman,40,-,-,11157,1690,10027,drinks,drinks,drink,NNS,drink
10012878_CL,19,2,List 2,barman,40,-,-,11157,1690,10027,mixing,mixing,mix,VBG,mix
10012878_CL,19,2,List 2,barman,40,-,-,11157,1690,10027,conversation,conversation,conversation,NN,conversation
10012878_CL,20,2,List 2,coverall,51,-,-,17503,5015,16482,coverage,coverage,coverage,NN,coverage
10012878_CL,20,2,List 2,coverall,51,-,-,17503,5015,16482,fashion,fashion,fashion,NN,fashion
10012878_CL,20,2,List 2,coverall,51,-,-,17503,5015,16482,clothing,clothing,clothe,NN,clothing
10012878_CL,21,2,List 2,satchel,37,-,-,13891,1962,12488,fashion,fashion,fashion,NN,fashion
10012878_CL,21,2,List 2,satchel,37,-,-,13891,1962,12488,carrying,carrying,carry,VBG,carry
10012878_CL,21,2,List 2,satchel,37,-,-,13891,1962,12488,holding,holding,hold,VBG,hold
10012878_CL,22,2,List 2,goalpost,38,-,-,11187,3386,10224,scoring,scoring,score,VBG,score
10012878_CL,22,2,List 2,goalpost,38,-,-,11187,3386,10224,sports,sports,sport,NNS,sport
10012878_CL,22,2,List 2,goalpost,38,-,-,11187,3386,10224,catching,catching,catch,VBG,catch
10012878_CL,23,2,List 2,hotplate,46,-,-,17529,2273,4699,warming,warming,warm,VBG,warm
10012878_CL,23,2,List 2,hotplate,46,-,-,17529,2273,4699,food,food,food,NN,food
10012878_CL,24,2,List 2,blower,54,-,-,19770,2976,18475,blowing,blowing,blow,VBG,blow
10012878_CL,24,2,List 2,blower,54,-,-,19770,2976,18475,assistance,assistance,assistance,NN,assistance
10012878_CL,25,2,List 2,yogurt,50,-,-,10184,1620,9089,consumption,consumption,consumption,NN,consumption
10012878_CL,25,2,List 2,yogurt,50,-,-,10184,1620,9089,food,food,food,NN,food
10012878_CL,25,2,List 2,yogurt,50,-,-,10184,1620,9089,hunger,hunger,hunger,NN,hunger
10012878_CL,26,2,List 2,teabag,43,-,-,14432,1777,13346,mixing,mixing,mix,VBG,mix
10012878_CL,26,2,List 2,teabag,43,-,-,14432,1777,13346,making,making,make,VBG,make
10012878_CL,26,2,List 2,teabag,43,-,-,14432,1777,13346,tea,tea,tea,JJ,tea
10012878_CL,26,2,List 2,teabag,43,-,-,14432,1777,13346,drink,drink,drink,NN,drink
10012878_CL,27,2,List 2,gondola,53,-,-,30249,6148,29227,viewing,viewing,view,VBG,view
10012878_CL,27,2,List 2,gondola,53,-,-,30249,6148,29227,entertainment,entertainment,entertainment,NN,entertainment
10012878_CL,27,2,List 2,gondola,53,-,-,30249,6148,29227,privacy,privacy,privacy,NN,privacy
10012878_CL,27,2,List 2,gondola,53,-,-,30249,6148,29227,relaxing,relaxing,relax,VBG,relax
10012878_CL,27,2,List 2,gondola,53,-,-,30249,6148,29227,fun,fun,fun,JJ,fun
10012878_CL,27,2,List 2,gondola,53,-,-,30249,6148,29227,vacation,vacation,vacation,NN,vacation
10012878_CL,28,2,List 2,antibiotics,56,-,-,16197,1627,15134,medicine,medicine,medicine,NN,medicine
10012878_CL,28,2,List 2,antibiotics,56,-,-,16197,1627,15134,treatment,treatment,treatment,NN,treatment
10012878_CL,28,2,List 2,antibiotics,56,-,-,16197,1627,15134,illnesses,illnesses,illness,VBZ,illnesses
10012878_CL,28,2,List 2,antibiotics,56,-,-,16197,1627,15134,curing,curing,cure,VBG,cure
10012878_CL,29,2,List 2,tripe,57,-,-,47141,40718,46054,consuming,consuming,consume,VBG,consume
10012878_CL,29,2,List 2,tripe,57,-,-,47141,40718,46054,eating,eating,eat,VBG,eat
10012878_CL,30,2,List 2,dolphin,49,-,-,14868,1307,13808,swimming,swimming,swim,VBG,swim
10012878_CL,30,2,List 2,dolphin,49,-,-,14868,1307,13808,talking,talking,talk,VBG,talk
10012878_CL,30,2,List 2,dolphin,49,-,-,14868,1307,13808,entertainment,entertainment,entertainment,NN,entertainment
10012878_CL,31,2,List 2,bottle,36,-,-,16548,1263,15582,drinking,drinking,drink,VBG,drink
10012878_CL,31,2,List 2,bottle,36,-,-,16548,1263,15582,holding,holding,hold,VBG,hold
10012878_CL,31,2,List 2,bottle,36,-,-,16548,1263,15582,filling,filling,fill,VBG,fill
10012878_CL,31,2,List 2,bottle,36,-,-,16548,1263,15582,preserving,preserving,preserve,VBG,preserve
10012878_CL,32,2,List 2,turban,41,-,-,23563,1751,22148,holding,holding,hold,VBG,hold
10012878_CL,32,2,List 2,turban,41,-,-,23563,1751,22148,fashion,fashion,fashion,NN,fashion
10012878_CL,32,2,List 2,turban,41,-,-,23563,1751,22148,religion,religion,religion,NN,religion
10012878_CL,33,2,List 2,gunpowder,55,-,-,16301,1761,11694,shooting,shooting,shoot,VBG,shoot
10012878_CL,33,2,List 2,gunpowder,55,-,-,16301,1761,11694,crafting,crafting,craft,VBG,craft
10012878_CL,33,2,List 2,gunpowder,55,-,-,16301,1761,11694,making,making,make,VBG,make
10012878_CL,33,2,List 2,gunpowder,55,-,-,16301,1761,11694,bullets,bullets,bullet,NNS,bullet
10012878_CL,34,2,List 2,prankster,52,-,-,14664,1444,13641,jokes,jokes,joke,JJ,jokes
10012878_CL,34,2,List 2,prankster,52,-,-,14664,1444,13641,views,views,view,NNS,view
10012878_CL,34,2,List 2,prankster,52,-,-,14664,1444,13641,laughter,laughter,laughter,RBR,laughter
10012878_CL,34,2,List 2,prankster,52,-,-,14664,1444,13641,entertainment,entertainment,entertainment,NN,entertainment
10012878_CL,35,2,List 2,newscaster,33,-,-,15187,2841,13990,gossip,gossip,gossip,NN,gossip
10012878_CL,35,2,List 2,newscaster,33,-,-,15187,2841,13990,entertainment,entertainment,entertainment,NN,entertainment
10012878_CL,35,2,List 2,newscaster,33,-,-,15187,2841,13990,curiousity,curiosity,curiosity,NN,curiosity
10012878_CL,36,2,List 2,rainwater,61,-,-,22051,4133,19190,recycling,recycling,recycle,VBG,recycle
10012878_CL,36,2,List 2,rainwater,61,-,-,22051,4133,19190,drink,drink,drink,VB,drink
10012878_CL,36,2,List 2,rainwater,61,-,-,22051,4133,19190,planting,planting,plant,VBG,plant
10012878_CL,36,2,List 2,rainwater,61,-,-,22051,4133,19190,farming,farming,farm,VBG,farm
10012878_CL,37,2,List 2,yourself,35,-,-,54671,3313,24213,adventures,adventures,adventure,NNS,adventure
10012878_CL,37,2,List 2,yourself,35,-,-,54671,3313,24213,entertainment,entertainment,entertainment,NN,entertainment
10012878_CL,38,2,List 2,boot,42,-,-,5967,1267,5151,walking,walking,walk,VBG,walk
10012878_CL,38,2,List 2,boot,42,-,-,5967,1267,5151,stomping,stomping,stomp,VBG,stomp
10012878_CL,39,2,List 2,toy,44,-,-,6401,1215,4583,playing,playing,play,VBG,play
10012878_CL,39,2,List 2,toy,44,-,-,6401,1215,4583,entertainment,entertainment,entertainment,NN,entertainment
10012878_CL,40,2,List 2,choreographer,45,-,-,9942,1277,5927,art,art,art,NN,art
10012878_CL,40,2,List 2,choreographer,45,-,-,9942,1277,5927,dancing,dancing,dance,VBG,dance
10016155,11,24,List 74,engineer,2203,-,-,27448,3665,24400,chemical,chemical,chemical,JJ,chemical
10016155,11,24,List 74,engineer,2203,-,-,27448,3665,24400,electrical,electrical,electrical,JJ,electrical
10016155,11,24,List 74,engineer,2203,-,-,27448,3665,24400,mechanical,mechanical,mechanical,JJ,mechanical
10016155,12,24,List 74,watchband,2207,-,-,12292,2447,11625,worn,worn,wear,NN,worn
10016155,12,24,List 74,watchband,2207,-,-,12292,2447,11625,used,used,use,VBN,use
10016155,12,24,List 74,watchband,2207,-,-,12292,2447,11625,touched,touched,touch,VBD,touch
10016155,13,24,List 74,abacus,2197,-,-,17071,14472,15439,thrown,thrown,throw,JJ,thrown
10016155,15,24,List 74,duster,2192,-,-,8561,3584,7898,clean,clean,clean,JJ,clean
10016155,15,24,List 74,duster,2192,-,-,8561,3584,7898,pick,pick,pick,NN,pick
10016155,16,24,List 74,eyewash,2220,-,-,15596,2915,10132,ease,ease,ease,NN,ease
10016155,16,24,List 74,eyewash,2220,-,-,15596,2915,10132,pain,pain,pain,NN,pain
10016155,16,24,List 74,eyewash,2220,-,-,15596,2915,10132,rinse,rinse,rinse,NN,rinse
10016155,17,24,List 74,underclothing,2200,-,-,13476,3366,12946,worn,worn,wear,NN,worn
10016155,17,24,List 74,underclothing,2200,-,-,13476,3366,12946,washed,washed,wash,VBD,wash
10016155,17,24,List 74,underclothing,2200,-,-,13476,3366,12946,folded,folded,fold,JJ,folded
10016155,18,24,List 74,lunchroom,2201,-,-,16962,12765,16635,eat,eat,eat,NN,eat
10016155,19,24,List 74,percolator,2195,-,-,3887,3127,3413,idk,id,id,NN,id
10016155,20,24,List 74,props,2221,-,-,5081,2079,4813,used,used,use,VBN,use
10016155,20,24,List 74,props,2221,-,-,5081,2079,4813,play,play,play,NN,play
10016155,21,24,List 74,teacher,2202,-,-,8168,4143,7831,help,help,help,NN,help
10016155,21,24,List 74,teacher,2202,-,-,8168,4143,7831,students,students,student,NNS,student
10016155,21,24,List 74,teacher,2202,-,-,8168,4143,7831,learn,learn,learn,VBP,learn
10016155,22,24,List 74,electrician,2211,-,-,14855,2488,14346,works,works,work,VBZ,work
10016155,22,24,List 74,electrician,2211,-,-,14855,2488,14346,electrical,electrical,electrical,JJ,electrical
10016155,22,24,List 74,electrician,2211,-,-,14855,2488,14346,problems,problems,problem,NNS,problem
10016155,22,24,List 74,electrician,2211,-,-,14855,2488,14346,issues,issues,issue,NNS,issue
10016155,23,24,List 74,flaxseed,2216,-,-,6553,1837,6202,eaten,eaten,eat,VBP,eat
10016155,23,24,List 74,flaxseed,2216,-,-,6553,1837,6202,grown,grown,grow,VBN,grow
10016155,24,24,List 74,gasket,2208,-,-,12374,8656,10866,used,used,use,JJ,used
10016155,24,24,List 74,gasket,2208,-,-,12374,8656,10866,fixe,fix,fix,NN,fix
10016155,25,24,List 74,trench,2218,-,-,9216,2206,8917,dug,dug,dig,NN,dug
10016155,25,24,List 74,trench,2218,-,-,9216,2206,8917,walk,walk,walk,VBP,walk
10016155,26,24,List 74,rowboat,2194,-,-,11358,2741,11030,get,get,get,VB,get
10016155,26,24,List 74,rowboat,2194,-,-,11358,2741,11030,places,places,place,NNS,place
10016155,27,24,List 74,thumbtack,2210,-,-,10786,4237,10411,hold,hold,hold,VB,hold
10016155,27,24,List 74,thumbtack,2210,-,-,10786,4237,10411,something,something,something,NN,something
10016155,28,24,List 74,tangerine,2214,-,-,7545,2032,7292,eaten,eaten,eat,JJ,eaten
10016155,28,24,List 74,tangerine,2214,-,-,7545,2032,7292,picked,picked,pick,VBD,pick
10016155,28,24,List 74,tangerine,2214,-,-,7545,2032,7292,grown,grown,grow,JJ,grown
10016155,29,24,List 74,coaster,2204,-,-,11278,3962,10225,hold,hold,hold,JJ,hold
10016155,29,24,List 74,coaster,2204,-,-,11278,3962,10225,drinks,drinks,drink,NNS,drink
10016155,30,24,List 74,shank,2205,-,-,3401,1781,2480,stab,stab,stab,VBP,stab
10016155,31,24,List 74,parchment,2219,-,-,6892,3297,6706,used,used,use,VBN,use
10016155,31,24,List 74,parchment,2219,-,-,6892,3297,6706,cooking,cooking,cook,NN,cooking
10016155,32,24,List 74,tablecloth,2213,-,-,8240,1629,7989,used,used,use,VBN,use
10016155,32,24,List 74,tablecloth,2213,-,-,8240,1629,7989,help,help,help,NN,help
10016155,32,24,List 74,tablecloth,2213,-,-,8240,1629,7989,keep,keep,keep,VB,keep
10016155,32,24,List 74,tablecloth,2213,-,-,8240,1629,7989,table,table,table,JJ,table
10016155,32,24,List 74,tablecloth,2213,-,-,8240,1629,7989,clean,clean,clean,JJ,clean
10016155,33,24,List 74,worksheet,2198,-,-,6433,2387,6147,turn,turn,turn,NN,turn
10016155,33,24,List 74,worksheet,2198,-,-,6433,2387,6147,work,work,work,NN,work
10016155,34,24,List 74,stem,2196,-,-,6604,5472,6471,picked,picked,pick,VBD,pick
10016155,35,24,List 74,lunch,2212,-,-,2173,1108,1886,eaten,eaten,eat,JJ,eaten
10016155,36,24,List 74,cheek,2193,-,-,11216,4528,11035,gets,gets,get,VBZ,get
10016155,36,24,List 74,cheek,2193,-,-,11216,4528,11035,red,red,red,JJ,red
10016155,36,24,List 74,cheek,2193,-,-,11216,4528,11035,helps,helps,help,NN,help
10016155,36,24,List 74,cheek,2193,-,-,11216,4528,11035,smile,smile,smile,VB,smile
10016155,37,24,List 74,salamander,2206,-,-,13764,4657,13292,pet,pet,pet,NN,pet
10016155,37,24,List 74,salamander,2206,-,-,13764,4657,13292,wild,wild,wild,NN,wild
10016155,37,24,List 74,salamander,2206,-,-,13764,4657,13292,also,also,also,RB,also
10016155,38,24,List 74,ruler,2217,-,-,5872,1748,5652,used,used,use,VBD,use
10016155,38,24,List 74,ruler,2217,-,-,5872,1748,5652,measure,measure,measure,NN,measure
10016155,39,24,List 74,stepbrother,2215,-,-,9883,3092,9686,advice,advice,advice,NN,advice
10016155,39,24,List 74,stepbrother,2215,-,-,9883,3092,9686,quality,quality,quality,NN,quality
10016155,39,24,List 74,stepbrother,2215,-,-,9883,3092,9686,time,time,time,NN,time
10016155,40,24,List 74,stage,2209,-,-,9937,2876,9383,perform,perform,perform,VB,perform
10016155,40,24,List 74,stage,2209,-,-,9937,2876,9383,sing,sing,sing,VBG,sing
10016155,40,24,List 74,stage,2209,-,-,9937,2876,9383,dance,dance,dance,NN,dance
10016155,40,24,List 74,stage,2209,-,-,9937,2876,9383,worship,worship,worship,NN,worship
10022956deh,11,3,List 78,kiss,2312,-,-,10748,2345,9236,express,express,express,JJ,express
10022956deh,11,3,List 78,kiss,2312,-,-,10748,2345,9236,feelings,feelings,feeling,NNS,feeling
10022956deh,12,3,List 78,sugarcane,2336,-,-,3962,1751,3039,sweetner,sweeter,sweet,NN,sweeter
10022956deh,13,3,List 78,gymnast,2321,-,-,6656,1708,4815,entertainmetn,entertainment,entertainment,NN,entertainment
10022956deh,14,3,List 78,bonnet,2318,-,-,13139,5034,12562,protect,protect,protect,VBP,protect
10022956deh,14,3,List 78,bonnet,2318,-,-,13139,5034,12562,hair,hair,hair,NN,hair
10022956deh,14,3,List 78,bonnet,2318,-,-,13139,5034,12562,wear,wear,wear,JJ,wear
10022956deh,14,3,List 78,bonnet,2318,-,-,13139,5034,12562,night,night,night,NN,night
10022956deh,15,3,List 78,turnstile,2324,-,-,5398,2621,4769,idk,id,id,NN,id
10022956deh,16,3,List 78,rug,2319,-,-,9504,1705,8871,decoration,decoration,decoration,NN,decoration
10022956deh,16,3,List 78,rug,2319,-,-,9504,1705,8871,floor,floor,floor,NN,floor
10022956deh,16,3,List 78,rug,2319,-,-,9504,1705,8871,warmth,warmth,warmth,VBZ,warmth
10022956deh,17,3,List 78,pretzel,2322,-,-,7936,4497,7209,eat,eat,eat,NN,eat
10022956deh,17,3,List 78,pretzel,2322,-,-,7936,4497,7209,sell,sell,sell,VB,sell
10022956deh,18,3,List 78,cop,2320,-,-,19240,3631,19005,estableish,establish,establish,VB,establish
10022956deh,18,3,List 78,cop,2320,-,-,19240,3631,19005,order,order,order,NN,order
10022956deh,18,3,List 78,cop,2320,-,-,19240,3631,19005,occupation,occupation,occupation,NN,occupation
10022956deh,19,3,List 78,mousse,2335,-,-,6428,1849,6218,hair,hair,hair,NN,hair
10022956deh,19,3,List 78,mousse,2335,-,-,6428,1849,6218,dessert,dessert,dessert,NN,dessert
10022956deh,20,3,List 78,goddaughter,2341,-,-,12268,5354,9949,help,help,help,NN,help
10022956deh,20,3,List 78,goddaughter,2341,-,-,12268,5354,9949,parents,parents,parent,NNS,parent
10022956deh,21,3,List 78,ribbon,2334,-,-,12085,1760,11880,hair,hair,hair,JJ,hair
10022956deh,21,3,List 78,ribbon,2334,-,-,12085,1760,11880,decoration,decoration,decoration,NN,decoration
10022956deh,21,3,List 78,ribbon,2334,-,-,12085,1760,11880,tie,tie,tie,NN,tie
10022956deh,21,3,List 78,ribbon,2334,-,-,12085,1760,11880,stuff,stuff,stuff,NN,stuff
10022956deh,22,3,List 78,dresser,2333,-,-,13120,1928,12637,hold,hold,hold,NN,hold
10022956deh,22,3,List 78,dresser,2333,-,-,13120,1928,12637,clothes,clothes,clothe,NNS,clothes
10022956deh,22,3,List 78,dresser,2333,-,-,13120,1928,12637,set,set,set,VBD,set
10022956deh,22,3,List 78,dresser,2333,-,-,13120,1928,12637,things,things,thing,NNS,thing
10022956deh,22,3,List 78,dresser,2333,-,-,13120,1928,12637,room,room,room,NN,room
10022956deh,23,3,List 78,butcher,2337,-,-,5508,1268,5023,cut,cut,cut,NN,cut
10022956deh,23,3,List 78,butcher,2337,-,-,5508,1268,5023,meat,meat,meat,NN,meat
10022956deh,23,3,List 78,butcher,2337,-,-,5508,1268,5023,occupation,occupation,occupation,NN,occupation
10022956deh,24,3,List 78,windsock,2331,-,-,16582,2780,16418,catch,catch,catch,NN,catch
10022956deh,24,3,List 78,windsock,2331,-,-,16582,2780,16418,wind,wind,wind,NN,wind
10022956deh,24,3,List 78,windsock,2331,-,-,16582,2780,16418,looks,looks,look,VBZ,look
10022956deh,24,3,List 78,windsock,2331,-,-,16582,2780,16418,nice,nice,nice,JJ,nice
10022956deh,25,3,List 78,mirror,2329,-,-,18217,1340,18067,see,see,see,VB,see
10022956deh,25,3,List 78,mirror,2329,-,-,18217,1340,18067,self,self,self,JJ,self
10022956deh,25,3,List 78,mirror,2329,-,-,18217,1340,18067,help,help,help,VB,help
10022956deh,25,3,List 78,mirror,2329,-,-,18217,1340,18067,fix,fix,fix,VB,fix
10022956deh,25,3,List 78,mirror,2329,-,-,18217,1340,18067,mistakes,mistakes,mistake,NNS,mistake
10022956deh,26,3,List 78,bully,2325,-,-,5626,2803,4788,mean,mean,mean,JJ,mean
10022956deh,26,3,List 78,bully,2325,-,-,5626,2803,4788,others,others,other,NNS,others
10022956deh,27,3,List 78,colleague,2326,-,-,10273,2027,10119,maybe,maybe,maybe,RB,maybe
10022956deh,27,3,List 78,colleague,2326,-,-,10273,2027,10119,friend,friend,friend,VBP,friend
10022956deh,27,3,List 78,colleague,2326,-,-,10273,2027,10119,help,help,help,NN,help
10022956deh,27,3,List 78,colleague,2326,-,-,10273,2027,10119,job,job,job,NN,job
10022956deh,28,3,List 78,sphincter,2323,-,-,5424,2762,4677,body,body,body,NN,body
10022956deh,28,3,List 78,sphincter,2323,-,-,5424,2762,4677,part,part,part,NN,part
10022956deh,29,3,List 78,plantain,2317,-,-,10695,1353,10469,food,food,food,NN,food
10022956deh,29,3,List 78,plantain,2317,-,-,10695,1353,10469,cultural,cultural,cultural,JJ,cultural
10022956deh,29,3,List 78,plantain,2317,-,-,10695,1353,10469,significance,significance,significance,NN,significance
10022956deh,30,3,List 78,roadster,2330,-,-,6325,1855,5700,idk,id,id,NN,id
10022956deh,31,3,List 78,silverware,2316,-,-,5398,1457,5137,help,help,help,NN,help
10022956deh,31,3,List 78,silverware,2316,-,-,5398,1457,5137,eating,eating,eat,VBG,eat
10022956deh,32,3,List 78,friend,2314,-,-,22578,1728,22405,person,person,person,NN,person
10022956deh,32,3,List 78,friend,2314,-,-,22578,1728,22405,help,help,help,NN,help
10022956deh,32,3,List 78,friend,2314,-,-,22578,1728,22405,hard,hard,hard,VB,hard
10022956deh,32,3,List 78,friend,2314,-,-,22578,1728,22405,times,times,time,NNS,time
10022956deh,32,3,List 78,friend,2314,-,-,22578,1728,22405,wants,wants,want,VBZ,want
10022956deh,32,3,List 78,friend,2314,-,-,22578,1728,22405,whats,whats,whats,NNS,whats
10022956deh,32,3,List 78,friend,2314,-,-,22578,1728,22405,best,best,good,RB,best
10022956deh,33,3,List 78,garter,2328,-,-,6322,4487,5587,lingere,linger,linger,JJR,linger
10022956deh,34,3,List 78,urn,2339,-,-,7690,1360,7433,hold,hold,hold,VB,hold
10022956deh,34,3,List 78,urn,2339,-,-,7690,1360,7433,ashes,ashes,ash,NNS,ash
10022956deh,34,3,List 78,urn,2339,-,-,7690,1360,7433,decoration,decoration,decoration,NN,decoration
10022956deh,35,3,List 78,limeade,2332,-,-,2291,1132,2025,drink,drink,drink,VBP,drink
10022956deh,36,3,List 78,turkey,2340,-,-,9076,1424,6927,animal,animal,animal,JJ,animal
10022956deh,36,3,List 78,turkey,2340,-,-,9076,1424,6927,food,food,food,NN,food
10022956deh,37,3,List 78,tavern,2338,-,-,13615,3825,12970,holds,holds,hold,VBZ,hold
10022956deh,37,3,List 78,tavern,2338,-,-,13615,3825,12970,people,people,people,NNS,people
10022956deh,37,3,List 78,tavern,2338,-,-,13615,3825,12970,serve,serve,serve,VBP,serve
10022956deh,37,3,List 78,tavern,2338,-,-,13615,3825,12970,drinks,drinks,drink,NNS,drink
10022956deh,38,3,List 78,bookbinder,2313,-,-,7764,1847,7397,holds,holds,hold,VBZ,hold
10022956deh,38,3,List 78,bookbinder,2313,-,-,7764,1847,7397,books,books,book,NNS,book
10022956deh,38,3,List 78,bookbinder,2313,-,-,7764,1847,7397,together,together,together,RB,together
10022956deh,39,3,List 78,drawstring,2315,-,-,8807,3172,8627,tighten,tighten,tighten,VBP,tighten
10022956deh,39,3,List 78,drawstring,2315,-,-,8807,3172,8627,hoodie,hoodie,hoodie,JJ,hoodie
10022956deh,40,3,List 78,cigarette,2327,-,-,9867,2259,9656,cancer,cancer,cancer,NN,cancer
10022956deh,40,3,List 78,cigarette,2327,-,-,9867,2259,9656,stick,stick,stick,NN,stick
10022956deh,40,3,List 78,cigarette,2327,-,-,9867,2259,9656,stress,stress,stress,NN,stress
10022956deh,40,3,List 78,cigarette,2327,-,-,9867,2259,9656,relief,relief,relief,NN,relief
10030457AB,11,18,List 93,protester,2782,-,-,47062,22366,45250,justice,justice,justice,NN,justice
10030457AB,11,18,List 93,protester,2782,-,-,47062,22366,45250,marching,marching,march,VBG,march
10030457AB,11,18,List 93,protester,2782,-,-,47062,22366,45250,refusing,refusing,refuse,VBG,refuse
10030457AB,11,18,List 93,protester,2782,-,-,47062,22366,45250,something,something,something,NN,something
10030457AB,12,18,List 93,stationmaster,2780,-,-,281673,241324,278848,leader,leader,leader,NN,leader
10030457AB,12,18,List 93,stationmaster,2780,-,-,281673,241324,278848,railways,railways,railway,VBZ,railways
10030457AB,12,18,List 93,stationmaster,2780,-,-,281673,241324,278848,controller,controller,controller,NN,controller
10030457AB,12,18,List 93,stationmaster,2780,-,-,281673,241324,278848,expert,expert,expert,NN,expert
10030457AB,13,18,List 93,bullfighter,2762,-,-,50588,6968,45998,spain,spain,spain,NN,spain
10030457AB,13,18,List 93,bullfighter,2762,-,-,50588,6968,45998,fearless,fearless,fearless,JJ,fearless
10030457AB,13,18,List 93,bullfighter,2762,-,-,50588,6968,45998,practice,practice,practice,NN,practice
10030457AB,13,18,List 93,bullfighter,2762,-,-,50588,6968,45998,entertaining,entertaining,entertain,VBG,entertain
10030457AB,14,18,List 93,straightedge,2788,-,-,60235,35119,51250,measuring,measuring,measure,VBG,measure
10030457AB,14,18,List 93,straightedge,2788,-,-,60235,35119,51250,accuracy,accuracy,accuracy,NN,accuracy
10030457AB,15,18,List 93,rubber,2779,-,-,43200,4194,36199,strong,strong,strong,JJ,strong
10030457AB,15,18,List 93,rubber,2779,-,-,43200,4194,36199,tire,tire,tire,NN,tire
10030457AB,15,18,List 93,rubber,2779,-,-,43200,4194,36199,flexible,flexible,flexible,JJ,flexible
10030457AB,15,18,List 93,rubber,2779,-,-,43200,4194,36199,strong,strong,strong,JJ,strong
10030457AB,15,18,List 93,rubber,2779,-,-,43200,4194,36199,hold,hold,hold,NN,hold
10030457AB,16,18,List 93,outfielder,2787,-,-,31466,5057,28971,baseball,baseball,baseball,NN,baseball
10030457AB,16,18,List 93,outfielder,2787,-,-,31466,5057,28971,athlete,athlete,athlete,VBP,athlete
10030457AB,16,18,List 93,outfielder,2787,-,-,31466,5057,28971,catcher,catcher,catcher,JJR,catcher
10030457AB,17,18,List 93,gentleman,2769,-,-,51402,4308,50291,manners,manners,manner,NNS,manner
10030457AB,17,18,List 93,gentleman,2769,-,-,51402,4308,50291,caring,caring,care,VBG,care
10030457AB,17,18,List 93,gentleman,2769,-,-,51402,4308,50291,respect,respect,respect,NN,respect
10030457AB,17,18,List 93,gentleman,2769,-,-,51402,4308,50291,honest,honest,honest,JJS,honest
10030457AB,17,18,List 93,gentleman,2769,-,-,51402,4308,50291,considerate,considerate,considerate,NN,considerate
10030457AB,17,18,List 93,gentleman,2769,-,-,51402,4308,50291,man,man,man,NN,man
10030457AB,18,18,List 93,wheat,2770,-,-,20407,1785,18771,bread,bread,bread,VBD,bread
10030457AB,18,18,List 93,wheat,2770,-,-,20407,1785,18771,healthy,healthy,healthy,JJ,healthy
10030457AB,18,18,List 93,wheat,2770,-,-,20407,1785,18771,grain,grain,grain,NN,grain
10030457AB,18,18,List 93,wheat,2770,-,-,20407,1785,18771,brown,brown,brown,JJ,brown
10030457AB,19,18,List 93,sod,2771,-,-,38876,5800,33679,grass,grass,grass,NN,grass
10030457AB,19,18,List 93,sod,2771,-,-,38876,5800,33679,ground,ground,grind,NN,ground
10030457AB,19,18,List 93,sod,2771,-,-,38876,5800,33679,yard,yard,yard,RB,yard
10030457AB,19,18,List 93,sod,2771,-,-,38876,5800,33679,football,football,football,NN,football
10030457AB,19,18,List 93,sod,2771,-,-,38876,5800,33679,field,field,field,NN,field
10030457AB,20,18,List 93,pup,2776,-,-,33894,9130,32931,small,small,small,JJ,small
10030457AB,20,18,List 93,pup,2776,-,-,33894,9130,32931,new,new,new,JJ,new
10030457AB,20,18,List 93,pup,2776,-,-,33894,9130,32931,young,young,young,JJ,young
10030457AB,20,18,List 93,pup,2776,-,-,33894,9130,32931,dog,dog,dog,NN,dog
10030457AB,20,18,List 93,pup,2776,-,-,33894,9130,32931,animal,animal,animal,JJ,animal
10030457AB,21,18,List 93,tomato,2789,-,-,77993,1930,77146,spaghetti,spaghetti,spaghetti,NNS,spaghetti
10030457AB,21,18,List 93,tomato,2789,-,-,77993,1930,77146,red,red,red,JJ,red
10030457AB,21,18,List 93,tomato,2789,-,-,77993,1930,77146,vegetable,vegetable,vegetable,JJ,vegetable
10030457AB,21,18,List 93,tomato,2789,-,-,77993,1930,77146,sauce,sauce,sauce,NN,sauce
10030457AB,22,18,List 93,mantelpiece,2772,-,-,93862,39819,93064,structure,structure,structure,NN,structure
10030457AB,22,18,List 93,mantelpiece,2772,-,-,93862,39819,93064,wood,wood,wood,VBD,wood
10030457AB,22,18,List 93,mantelpiece,2772,-,-,93862,39819,93064,home,home,home,NN,home
10030457AB,22,18,List 93,mantelpiece,2772,-,-,93862,39819,93064,decor,decor,decor,NN,decor
10030457AB,22,18,List 93,mantelpiece,2772,-,-,93862,39819,93064,frame,frame,frame,NN,frame
10030457AB,22,18,List 93,mantelpiece,2772,-,-,93862,39819,93064,work,work,work,NN,work
10030457AB,23,18,List 93,camel,2791,-,-,56084,2074,47829,spit,spit,spit,NN,spit
10030457AB,23,18,List 93,camel,2791,-,-,56084,2074,47829,animal,animal,animal,JJ,animal
10030457AB,23,18,List 93,camel,2791,-,-,56084,2074,47829,hump,hump,hump,NN,hump
10030457AB,23,18,List 93,camel,2791,-,-,56084,2074,47829,back,back,back,RB,back
10030457AB,23,18,List 93,camel,2791,-,-,56084,2074,47829,desert,desert,desert,JJ,desert
10030457AB,23,18,List 93,camel,2791,-,-,56084,2074,47829,egypt,egypt,egypt,NN,egypt
10030457AB,24,18,List 93,loudspeaker,2764,-,-,47509,2719,45448,announcement,announcement,announcement,NN,announcement
10030457AB,24,18,List 93,loudspeaker,2764,-,-,47509,2719,45448,intercom,intercom,intercom,NN,intercom
10030457AB,24,18,List 93,loudspeaker,2764,-,-,47509,2719,45448,projection,projection,projection,NN,projection
10030457AB,24,18,List 93,loudspeaker,2764,-,-,47509,2719,45448,attention,attention,attention,NN,attention
10030457AB,25,18,List 93,towel,2763,-,-,33606,2480,31822,dry,dry,spin-dry,JJ,dry
10030457AB,25,18,List 93,towel,2763,-,-,33606,2480,31822,clean,clean,clean,JJ,clean
10030457AB,25,18,List 93,towel,2763,-,-,33606,2480,31822,bathroom,bathroom,bathroom,NN,bathroom
10030457AB,25,18,List 93,towel,2763,-,-,33606,2480,31822,shower,shower,shower,NN,shower
10030457AB,25,18,List 93,towel,2763,-,-,33606,2480,31822,covering,covering,cover,VBG,cover
10030457AB,25,18,List 93,towel,2763,-,-,33606,2480,31822,warmth,warmth,warmth,JJ,warmth
10030457AB,26,18,List 93,sea,2778,-,-,32312,1543,30084,ocean,ocean,ocean,JJ,ocean
10030457AB,26,18,List 93,sea,2778,-,-,32312,1543,30084,fish,fish,fish,NN,fish
10030457AB,26,18,List 93,sea,2778,-,-,32312,1543,30084,sand,sand,sand,NN,sand
10030457AB,26,18,List 93,sea,2778,-,-,32312,1543,30084,boat,boat,boat,NN,boat
10030457AB,26,18,List 93,sea,2778,-,-,32312,1543,30084,water,water,water,NN,water
10030457AB,26,18,List 93,sea,2778,-,-,32312,1543,30084,salt,salt,salt,NN,salt
10030457AB,26,18,List 93,sea,2778,-,-,32312,1543,30084,cruise,cruise,cruise,NN,cruise
10030457AB,26,18,List 93,sea,2778,-,-,32312,1543,30084,seaweed,seaweed,seaweed,NN,seaweed
10030457AB,27,18,List 93,swimsuit,2783,-,-,22579,1984,18454,water,water,water,NN,water
10030457AB,27,18,List 93,swimsuit,2783,-,-,22579,1984,18454,pool,pool,pool,NN,pool
10030457AB,27,18,List 93,swimsuit,2783,-,-,22579,1984,18454,beach,beach,beach,NN,beach
10030457AB,27,18,List 93,swimsuit,2783,-,-,22579,1984,18454,two,two,two,CD,two
10030457AB,27,18,List 93,swimsuit,2783,-,-,22579,1984,18454,piece,piece,piece,NN,piece
10030457AB,27,18,List 93,swimsuit,2783,-,-,22579,1984,18454,one,one,one,CD,one
10030457AB,27,18,List 93,swimsuit,2783,-,-,22579,1984,18454,piece,piece,piece,NN,piece
10030457AB,27,18,List 93,swimsuit,2783,-,-,22579,1984,18454,waterproof,waterproof,waterproof,NN,waterproof
10030457AB,28,18,List 93,cucumber,2766,-,-,53473,1635,32193,vegetable,vegetable,vegetable,JJ,vegetable
10030457AB,28,18,List 93,cucumber,2766,-,-,53473,1635,32193,pickle,pickle,pickle,NN,pickle
10030457AB,28,18,List 93,cucumber,2766,-,-,53473,1635,32193,spa,spa,spa,NN,spa
10030457AB,28,18,List 93,cucumber,2766,-,-,53473,1635,32193,health,health,health,NN,health
10030457AB,29,18,List 93,handbrake,2785,-,-,53151,5286,52236,stopper,stopper,stopper,NN,stopper
10030457AB,29,18,List 93,handbrake,2785,-,-,53151,5286,52236,car,car,car,NN,car
10030457AB,29,18,List 93,handbrake,2785,-,-,53151,5286,52236,halting,halting,halt,VBG,halt
10030457AB,29,18,List 93,handbrake,2785,-,-,53151,5286,52236,safety,safety,safety,NN,safety
10030457AB,29,18,List 93,handbrake,2785,-,-,53151,5286,52236,stable,stable,stable,JJ,stable
10030457AB,30,18,List 93,coachman,2767,-,-,52676,3165,45600,wagon,wagon,wagon,NN,wagon
10030457AB,30,18,List 93,coachman,2767,-,-,52676,3165,45600,driver,driver,driver,NN,driver
10030457AB,30,18,List 93,coachman,2767,-,-,52676,3165,45600,carriage,carriage,carriage,NN,carriage
10030457AB,31,18,List 93,nursemaid,2768,-,-,39750,3464,37774,health,health,health,NN,health
10030457AB,31,18,List 93,nursemaid,2768,-,-,39750,3464,37774,protection,protection,protection,NN,protection
10030457AB,31,18,List 93,nursemaid,2768,-,-,39750,3464,37774,caretaker,caretaker,caretaker,NN,caretaker
10030457AB,31,18,List 93,nursemaid,2768,-,-,39750,3464,37774,hospital,hospital,hospital,NN,hospital
10030457AB,31,18,List 93,nursemaid,2768,-,-,39750,3464,37774,smart,smart,smart,JJ,smart
10030457AB,32,18,List 93,cola,2786,-,-,38226,2037,36481,drink,drink,drink,NN,drink
10030457AB,32,18,List 93,cola,2786,-,-,38226,2037,36481,caffeine,caffeine,caffeine,NN,caffeine
10030457AB,32,18,List 93,cola,2786,-,-,38226,2037,36481,acid,acid,acid,NN,acid
10030457AB,32,18,List 93,cola,2786,-,-,38226,2037,36481,battery,battery,battery,NN,battery
10030457AB,33,18,List 93,hill,2784,-,-,37666,8182,36665,fun,fun,fun,NN,fun
10030457AB,33,18,List 93,hill,2784,-,-,37666,8182,36665,exercise,exercise,exercise,NN,exercise
10030457AB,33,18,List 93,hill,2784,-,-,37666,8182,36665,scenery,scenery,scenery,NN,scenery
10030457AB,33,18,List 93,hill,2784,-,-,37666,8182,36665,outdoor,outdoor,outdoor,NN,outdoor
10030457AB,34,18,List 93,ingredient,2765,-,-,20149,1875,19487,cooking,cooking,cook,VBG,cook
10030457AB,34,18,List 93,ingredient,2765,-,-,20149,1875,19487,spice,spice,spice,NN,spice
10030457AB,34,18,List 93,ingredient,2765,-,-,20149,1875,19487,secret,secret,secret,JJ,secret
10030457AB,34,18,List 93,ingredient,2765,-,-,20149,1875,19487,mixture,mixture,mixture,NN,mixture
10030457AB,35,18,List 93,greens,2790,-,-,31883,1470,26881,health,health,health,NN,health
10030457AB,35,18,List 93,greens,2790,-,-,31883,1470,26881,food,food,food,NN,food
10030457AB,35,18,List 93,greens,2790,-,-,31883,1470,26881,eating,eating,eat,VBG,eat
10030457AB,35,18,List 93,greens,2790,-,-,31883,1470,26881,growth,growth,growth,NN,growth
10030457AB,35,18,List 93,greens,2790,-,-,31883,1470,26881,vegetable,vegetable,vegetable,JJ,vegetable
10030457AB,36,18,List 93,mother,2777,-,-,36547,1658,33665,care,care,care,NN,care
10030457AB,36,18,List 93,mother,2777,-,-,36547,1658,33665,taker,taker,taker,NN,taker
10030457AB,36,18,List 93,mother,2777,-,-,36547,1658,33665,support,support,support,NN,support
10030457AB,36,18,List 93,mother,2777,-,-,36547,1658,33665,love,love,love,VBD,love
10030457AB,36,18,List 93,mother,2777,-,-,36547,1658,33665,strength,strength,strength,NN,strength
10030457AB,36,18,List 93,mother,2777,-,-,36547,1658,33665,advice,advice,advice,NN,advice
10030457AB,36,18,List 93,mother,2777,-,-,36547,1658,33665,leader,leader,leader,NN,leader
10030457AB,37,18,List 93,aircraftsman,2781,-,-,40383,6551,38517,airplane,airplane,airplane,NN,airplane
10030457AB,37,18,List 93,aircraftsman,2781,-,-,40383,6551,38517,technical,technical,technical,JJ,technical
10030457AB,37,18,List 93,aircraftsman,2781,-,-,40383,6551,38517,mechanical,mechanical,mechanical,JJ,mechanical
10030457AB,38,18,List 93,pulp,2773,-,-,30923,5032,30219,orange,orange,orange,NN,orange
10030457AB,38,18,List 93,pulp,2773,-,-,30923,5032,30219,juice,juice,juice,NN,juice
10030457AB,38,18,List 93,pulp,2773,-,-,30923,5032,30219,fruit,fruit,fruit,NN,fruit
10030457AB,38,18,List 93,pulp,2773,-,-,30923,5032,30219,thick,thick,thick,JJ,thick
10030457AB,38,18,List 93,pulp,2773,-,-,30923,5032,30219,flavor,flavor,flavor,NN,flavor
10030457AB,38,18,List 93,pulp,2773,-,-,30923,5032,30219,nutrients,nutrients,nutrient,NNS,nutrient
10030457AB,39,18,List 93,rice,2775,-,-,17108,2546,15844,white,white,white,JJ,white
10030457AB,39,18,List 93,rice,2775,-,-,17108,2546,15844,brown,brown,brown,JJ,brown
10030457AB,39,18,List 93,rice,2775,-,-,17108,2546,15844,cooking,cooking,cook,NN,cooking
10030457AB,39,18,List 93,rice,2775,-,-,17108,2546,15844,sushi,sushi,sushi,NN,sushi
10030457AB,39,18,List 93,rice,2775,-,-,17108,2546,15844,shrimp,shrimp,shrimp,VBD,shrimp
10030457AB,40,18,List 93,temple,2774,-,-,23442,2043,21890,worship,worship,worship,JJ,worship
10030457AB,40,18,List 93,temple,2774,-,-,23442,2043,21890,tall,tall,tall,JJ,tall
10030457AB,40,18,List 93,temple,2774,-,-,23442,2043,21890,brain,brain,brain,NN,brain
10030457AB,40,18,List 93,temple,2774,-,-,23442,2043,21890,head,head,head,NN,head
10032501AW,11,11,List 11,billiards,328,-,-,86845,57245,82431,sitting,sitting,sit,VBG,sit
10032501AW,11,11,List 11,billiards,328,-,-,86845,57245,82431,coaster,coaster,coaster,JJ,coaster
10032501AW,11,11,List 11,billiards,328,-,-,86845,57245,82431,storage,storage,storage,NN,storage
10032501AW,11,11,List 11,billiards,328,-,-,86845,57245,82431,table,table,table,NN,table
10032501AW,12,11,List 11,mongoose,330,-,-,17212,5249,11497,eaten,eaten,eat,NN,eaten
10032501AW,12,11,List 11,mongoose,330,-,-,17212,5249,11497,cooked,cooked,cook,VBD,cook
10032501AW,12,11,List 11,mongoose,330,-,-,17212,5249,11497,pet,pet,pet,JJ,pet
10032501AW,13,11,List 11,village,322,-,-,36352,6554,25275,visit,visit,visit,NN,visit
10032501AW,13,11,List 11,village,322,-,-,36352,6554,25275,resident,resident,resident,NN,resident
10032501AW,14,11,List 11,hibachi,313,-,-,29292,24679,25435,cooking,cooking,cook,VBG,cook
10032501AW,15,11,List 11,furnace,331,-,-,11514,2131,4409,heating,heating,heat,VBG,heat
10032501AW,15,11,List 11,furnace,331,-,-,11514,2131,4409,burning,burning,burn,VBG,burn
10032501AW,16,11,List 11,apartments,310,-,-,34165,5595,33084,tenant,tenant,tenant,JJ,tenant
10032501AW,16,11,List 11,apartments,310,-,-,34165,5595,33084,sleep,sleep,sleep,JJ,sleep
10032501AW,16,11,List 11,apartments,310,-,-,34165,5595,33084,cook,cook,cook,NN,cook
10032501AW,16,11,List 11,apartments,310,-,-,34165,5595,33084,eat,eat,eat,NN,eat
10032501AW,16,11,List 11,apartments,310,-,-,34165,5595,33084,clean,clean,clean,JJ,clean
10032501AW,16,11,List 11,apartments,310,-,-,34165,5595,33084,storage,storage,storage,NN,storage
10032501AW,16,11,List 11,apartments,310,-,-,34165,5595,33084,shelter,shelter,shelter,NN,shelter
10032501AW,17,11,List 11,teaspoonful,323,-,-,42647,11953,34526,seasoning,seasoning,season,VBG,season
10032501AW,17,11,List 11,teaspoonful,323,-,-,42647,11953,34526,sweetener,sweetener,sweetener,JJR,sweetener
10032501AW,17,11,List 11,teaspoonful,323,-,-,42647,11953,34526,mix,mix,mix,NN,mix
10032501AW,17,11,List 11,teaspoonful,323,-,-,42647,11953,34526,scoop,scoop,scoop,NN,scoop
10032501AW,18,11,List 11,flowerpot,315,-,-,15826,2169,4115,plant,plant,plant,NN,plant
10032501AW,18,11,List 11,flowerpot,315,-,-,15826,2169,4115,storage,storage,storage,NN,storage
10032501AW,19,11,List 11,grandchild,316,-,-,25033,2346,24053,play,play,play,NN,play
10032501AW,19,11,List 11,grandchild,316,-,-,25033,2346,24053,care,care,care,NN,care
10032501AW,20,11,List 11,taffy,324,-,-,27432,2447,24919,eat,eat,eat,NN,eat
10032501AW,20,11,List 11,taffy,324,-,-,27432,2447,24919,stretch,stretch,stretch,NN,stretch
10032501AW,20,11,List 11,taffy,324,-,-,27432,2447,24919,suck,suck,suck,VBD,suck
10032501AW,20,11,List 11,taffy,324,-,-,27432,2447,24919,bite,bite,bite,JJ,bite
10032501AW,20,11,List 11,taffy,324,-,-,27432,2447,24919,lick,lick,lick,JJ,lick
10032501AW,20,11,List 11,taffy,324,-,-,27432,2447,24919,tear,tear,tear,NN,tear
10032501AW,20,11,List 11,taffy,324,-,-,27432,2447,24919,crush,crush,crush,NN,crush
10032501AW,20,11,List 11,taffy,324,-,-,27432,2447,24919,melt,melt,melt,NN,melt
10032501AW,21,11,List 11,mullets,319,-,-,18045,2055,15458,cut,cut,cut,NN,cut
10032501AW,21,11,List 11,mullets,319,-,-,18045,2055,15458,washed,washed,wash,VBD,wash
10032501AW,21,11,List 11,mullets,319,-,-,18045,2055,15458,dyed,dyed,dye,VBN,dye
10032501AW,21,11,List 11,mullets,319,-,-,18045,2055,15458,straightened,straightened,straighten,VBN,straighten
10032501AW,21,11,List 11,mullets,319,-,-,18045,2055,15458,curled,curled,curl,VBN,curl
10032501AW,22,11,List 11,flatiron,311,-,-,24782,5684,23726,hold,hold,hold,VBP,hold
10032501AW,22,11,List 11,flatiron,311,-,-,24782,5684,23726,weapon,weapon,weapon,NN,weapon
10032501AW,22,11,List 11,flatiron,311,-,-,24782,5684,23726,straighten,straighten,straighten,JJ,straighten
10032501AW,23,11,List 11,bondsman,308,-,-,71479,41760,68725,hug,hug,hug,NN,hug
10032501AW,23,11,List 11,bondsman,308,-,-,71479,41760,68725,hit,hit,hit,VBD,hit
10032501AW,24,11,List 11,raincoat,326,-,-,23484,1979,15435,wear,wear,wear,JJ,wear
10032501AW,24,11,List 11,raincoat,326,-,-,23484,1979,15435,fold,fold,fold,JJ,fold
10032501AW,24,11,List 11,raincoat,326,-,-,23484,1979,15435,burn,burn,burn,NN,burn
10032501AW,24,11,List 11,raincoat,326,-,-,23484,1979,15435,shelter,shelter,shelter,NN,shelter
10032501AW,25,11,List 11,casserole,306,-,-,22414,3166,18461,eat,eat,eat,NN,eat
10032501AW,25,11,List 11,casserole,306,-,-,22414,3166,18461,reheat,reheat,reheat,NN,reheat
10032501AW,25,11,List 11,casserole,306,-,-,22414,3166,18461,scoop,scoop,scoop,NN,scoop
10032501AW,25,11,List 11,casserole,306,-,-,22414,3166,18461,stab,stab,stab,NN,stab
10032501AW,26,11,List 11,crust,304,-,-,8475,2169,7390,eat,eat,eat,NN,eat
10032501AW,26,11,List 11,crust,304,-,-,8475,2169,7390,crushed,crushed,crush,VBD,crush
10032501AW,26,11,List 11,crust,304,-,-,8475,2169,7390,cut,cut,cut,JJ,cut
10032501AW,27,11,List 11,molasses,321,-,-,30848,1931,29847,syrup,syrup,syrup,NN,syrup
10032501AW,27,11,List 11,molasses,321,-,-,30848,1931,29847,lick,lick,lick,NN,lick
10032501AW,27,11,List 11,molasses,321,-,-,30848,1931,29847,sweetner,sweeter,sweet,NN,sweeter
10032501AW,28,11,List 11,butt,312,-,-,20240,5097,15604,slap,slap,slap,NN,slap
10032501AW,28,11,List 11,butt,312,-,-,20240,5097,15604,fondle,fondle,fondle,JJ,fondle
10032501AW,28,11,List 11,butt,312,-,-,20240,5097,15604,rub,rub,rub,NN,rub
10032501AW,28,11,List 11,butt,312,-,-,20240,5097,15604,cushion,cushion,cushion,NN,cushion
10032501AW,29,11,List 11,parakeet,329,-,-,8809,4277,4781,pet,pet,pet,NN,pet
10032501AW,30,11,List 11,nut,307,-,-,26911,6352,20166,eat,eat,eat,NN,eat
10032501AW,30,11,List 11,nut,307,-,-,26911,6352,20166,crush,crush,crush,NN,crush
10032501AW,30,11,List 11,nut,307,-,-,26911,6352,20166,topping,topping,top,VBG,top
10032501AW,31,11,List 11,pan,327,-,-,12572,4371,11411,fry,fry,fry,JJ,fry
10032501AW,31,11,List 11,pan,327,-,-,12572,4371,11411,clean,clean,clean,JJ,clean
10032501AW,31,11,List 11,pan,327,-,-,12572,4371,11411,weapon,weapon,weapon,NN,weapon
10032501AW,32,11,List 11,corn,317,-,-,14705,1645,11298,eat,eat,eat,NN,eat
10032501AW,32,11,List 11,corn,317,-,-,14705,1645,11298,boil,boil,boil,NN,boil
10032501AW,32,11,List 11,corn,317,-,-,14705,1645,11298,crush,crush,crush,NN,crush
10032501AW,32,11,List 11,corn,317,-,-,14705,1645,11298,ingredient,ingredient,ingredient,NN,ingredient
10032501AW,33,11,List 11,stepdaughter,314,-,-,11812,4348,4951,hug,hug,hug,NN,hug
10032501AW,34,11,List 11,trigger,320,-,-,7852,4875,5298,push,push,push,NN,push
10032501AW,35,11,List 11,belt,318,-,-,11412,6058,9802,accessory,accessory,accessory,NN,accessory
10032501AW,35,11,List 11,belt,318,-,-,11412,6058,9802,weapon,weapon,weapon,NN,weapon
10032501AW,36,11,List 11,acupuncture,302,-,-,14969,5538,14075,weapon,weapon,weapon,NN,weapon
10032501AW,36,11,List 11,acupuncture,302,-,-,14969,5538,14075,medical,medical,medical,JJ,medical
10032501AW,36,11,List 11,acupuncture,302,-,-,14969,5538,14075,tool,tool,tool,NN,tool
10032501AW,37,11,List 11,rectum,309,-,-,33346,6813,32299,stretched,stretched,stretch,VBD,stretch
10032501AW,37,11,List 11,rectum,309,-,-,33346,6813,32299,exit,exit,exit,NN,exit
10032501AW,38,11,List 11,device,303,-,-,51612,1846,41935,diary,diary,diary,JJ,diary
10032501AW,38,11,List 11,device,303,-,-,51612,1846,41935,book,book,book,NN,book
10032501AW,38,11,List 11,device,303,-,-,51612,1846,41935,storage,storage,storage,NN,storage
10032501AW,39,11,List 11,dirt,325,-,-,11728,7083,7693,dug,dug,dig,JJ,dug
10032501AW,40,11,List 11,kettledrum,305,-,-,72159,67847,69822,instrument,instrument,instrument,NN,instrument
10043633MWA,11,11,List 36,edibles,1064,-,-,35909,1425,10472,eaten,eaten,eat,NNS,eaten
10043633MWA,11,11,List 36,edibles,1064,-,-,35909,1425,10472,made,made,make,VBN,make
10043633MWA,11,11,List 36,edibles,1064,-,-,35909,1425,10472,sold,sold,sell,VBD,sell
10043633MWA,11,11,List 36,edibles,1064,-,-,35909,1425,10472,bought,bought,buy,RB,bought
10043633MWA,12,11,List 36,barber,1061,-,-,17695,3398,14821,called,called,call,VBN,call
10043633MWA,12,11,List 36,barber,1061,-,-,17695,3398,14821,used,used,use,VBN,use
10043633MWA,12,11,List 36,barber,1061,-,-,17695,3398,14821,killed,killed,kill,VBN,kill
10043633MWA,13,11,List 36,alfalfa,1074,-,-,30951,7184,16502,listened,listened,listen,VBD,listen
10043633MWA,13,11,List 36,alfalfa,1074,-,-,30951,7184,16502,watched,watched,watch,JJ,watched
10043633MWA,13,11,List 36,alfalfa,1074,-,-,30951,7184,16502,talk,talk,talk,NN,talk
10043633MWA,14,11,List 36,evergreen,1079,-,-,23631,13599,22337,seen,seen,see,VBN,see
10043633MWA,14,11,List 36,evergreen,1079,-,-,23631,13599,22337,sold,sold,sell,VBN,sell
10043633MWA,14,11,List 36,evergreen,1079,-,-,23631,13599,22337,cut,cut,cut,NN,cut
10043633MWA,14,11,List 36,evergreen,1079,-,-,23631,13599,22337,viewed,viewed,view,VBN,view
10043633MWA,15,11,List 36,flashbulb,1077,-,-,20826,2940,20705,broken,broken,break,NNS,broken
10043633MWA,15,11,List 36,flashbulb,1077,-,-,20826,2940,20705,turned,turned,turn,VBD,turn
10043633MWA,15,11,List 36,flashbulb,1077,-,-,20826,2940,20705,turned,turned,turn,JJ,turned
10043633MWA,15,11,List 36,flashbulb,1077,-,-,20826,2940,20705,bought,bought,buy,VBD,buy
10043633MWA,15,11,List 36,flashbulb,1077,-,-,20826,2940,20705,sold,sold,sell,VBN,sell
10043633MWA,17,11,List 36,llama,1055,-,-,20252,1363,17069,sold,sold,sell,VBN,sell
10043633MWA,17,11,List 36,llama,1055,-,-,20252,1363,17069,rode,rode,ride,NN,rode
10043633MWA,17,11,List 36,llama,1055,-,-,20252,1363,17069,bought,bought,buy,VBD,buy
10043633MWA,17,11,List 36,llama,1055,-,-,20252,1363,17069,viewed,viewed,view,VBN,view
10043633MWA,17,11,List 36,llama,1055,-,-,20252,1363,17069,kicked,kicked,kick,VBN,kick
10043633MWA,17,11,List 36,llama,1055,-,-,20252,1363,17069,tripped,tripped,trip,JJ,tripped
10043633MWA,18,11,List 36,curler,1069,-,-,19491,2623,8362,bought,bought,buy,VBD,buy
10043633MWA,18,11,List 36,curler,1069,-,-,19491,2623,8362,used,used,use,VBN,use
10043633MWA,18,11,List 36,curler,1069,-,-,19491,2623,8362,sold,sold,sell,VBN,sell
10043633MWA,19,11,List 36,leftovers,1071,-,-,18694,1778,17731,eaten,eaten,eat,RB,eaten
10043633MWA,19,11,List 36,leftovers,1071,-,-,18694,1778,17731,saved,saved,save,VBN,save
10043633MWA,19,11,List 36,leftovers,1071,-,-,18694,1778,17731,made,made,make,VBN,make
10043633MWA,20,11,List 36,tombstone,1073,-,-,34025,29817,33711,bought,bought,buy,VBD,buy
10043633MWA,20,11,List 36,tombstone,1073,-,-,34025,29817,33711,sold,sold,sell,VBN,sell
10043633MWA,20,11,List 36,tombstone,1073,-,-,34025,29817,33711,created,created,create,VBN,create
10043633MWA,21,11,List 36,manicure,1081,-,-,52688,3475,51744,bought,bought,buy,VBD,buy
10043633MWA,21,11,List 36,manicure,1081,-,-,52688,3475,51744,sold,sold,sell,VBN,sell
10043633MWA,21,11,List 36,manicure,1081,-,-,52688,3475,51744,given,given,give,VBN,give
10043633MWA,22,11,List 36,teardrop,1065,-,-,9680,2481,9558,cried,cried,cry,VBN,cry
10043633MWA,22,11,List 36,teardrop,1065,-,-,9680,2481,9558,wiped,wiped,wipe,VBD,wipe
10043633MWA,22,11,List 36,teardrop,1065,-,-,9680,2481,9558,away,away,away,RB,away
10043633MWA,22,11,List 36,teardrop,1065,-,-,9680,2481,9558,shot,shot,shoot,JJ,shot
10043633MWA,23,11,List 36,harmonica,1062,-,-,57836,1329,40161,played,played,play,VBN,play
10043633MWA,23,11,List 36,harmonica,1062,-,-,57836,1329,40161,buzzed,buzzed,buzz,VBN,buzz
10043633MWA,23,11,List 36,harmonica,1062,-,-,57836,1329,40161,sold,sold,sell,VBN,sell
10043633MWA,23,11,List 36,harmonica,1062,-,-,57836,1329,40161,bought,bought,buy,RB,bought
10043633MWA,24,11,List 36,drugstore,1080,-,-,28766,1841,15385,visited,visited,visit,VBN,visit
10043633MWA,24,11,List 36,drugstore,1080,-,-,28766,1841,15385,opened,opened,open,VBD,open
10043633MWA,24,11,List 36,drugstore,1080,-,-,28766,1841,15385,closed,closed,close,VBD,close
10043633MWA,25,11,List 36,switchboard,1075,-,-,3427,2909,3367,used,used,use,VBN,use
10043633MWA,26,11,List 36,vitamins,1078,-,-,12128,3266,8966,taken,taken,take,VBN,take
10043633MWA,26,11,List 36,vitamins,1078,-,-,12128,3266,8966,sold,sold,sell,VBN,sell
10043633MWA,26,11,List 36,vitamins,1078,-,-,12128,3266,8966,bought,bought,buy,RB,bought
10043633MWA,27,11,List 36,laxative,1053,-,-,16937,1576,10654,taken,taken,take,VBN,take
10043633MWA,27,11,List 36,laxative,1053,-,-,16937,1576,10654,bought,bought,buy,VBD,buy
10043633MWA,27,11,List 36,laxative,1053,-,-,16937,1576,10654,sold,sold,sell,VBN,sell
10043633MWA,28,11,List 36,beagle,1076,-,-,20047,2170,19642,played,played,play,VBN,play
10043633MWA,28,11,List 36,beagle,1076,-,-,20047,2170,19642,viewed,viewed,view,VBN,view
10043633MWA,28,11,List 36,beagle,1076,-,-,20047,2170,19642,walked,walked,walk,JJ,walked
10043633MWA,28,11,List 36,beagle,1076,-,-,20047,2170,19642,rode,rode,ride,NN,rode
10043633MWA,28,11,List 36,beagle,1076,-,-,20047,2170,19642,bought,bought,buy,VBD,buy
10043633MWA,28,11,List 36,beagle,1076,-,-,20047,2170,19642,sold,sold,sell,VBN,sell
10043633MWA,29,11,List 36,screwdriver,1070,-,-,12955,1641,12829,bought,bought,buy,RB,bought
10043633MWA,29,11,List 36,screwdriver,1070,-,-,12955,1641,12829,sold,sold,sell,VBN,sell
10043633MWA,29,11,List 36,screwdriver,1070,-,-,12955,1641,12829,used,used,use,VBN,use
10043633MWA,29,11,List 36,screwdriver,1070,-,-,12955,1641,12829,broken,broken,break,JJ,broken
10043633MWA,29,11,List 36,screwdriver,1070,-,-,12955,1641,12829,bent,bent,bend,NN,bent
10043633MWA,30,11,List 36,houseboat,1072,-,-,8325,1947,6851,bought,bought,buy,VBD,buy
10043633MWA,30,11,List 36,houseboat,1072,-,-,8325,1947,6851,sold,sold,sell,VBN,sell
10043633MWA,30,11,List 36,houseboat,1072,-,-,8325,1947,6851,rode,rode,ride,NN,rode
10043633MWA,30,11,List 36,houseboat,1072,-,-,8325,1947,6851,broken,broken,break,VBN,break
10043633MWA,31,11,List 36,telescope,1060,-,-,7952,1713,7848,used,used,use,VBN,use
10043633MWA,31,11,List 36,telescope,1060,-,-,7952,1713,7848,broken,broken,break,NNS,broken
10043633MWA,31,11,List 36,telescope,1060,-,-,7952,1713,7848,bought,bought,buy,VBD,buy
10043633MWA,31,11,List 36,telescope,1060,-,-,7952,1713,7848,sold,sold,sell,VBN,sell
10043633MWA,32,11,List 36,rain,1068,-,-,7721,1482,4354,felt,felt,feel,RB,felt
10043633MWA,32,11,List 36,rain,1068,-,-,7721,1482,4354,caught,caught,catch,JJ,caught
10043633MWA,33,11,List 36,engine,1066,-,-,15653,2459,15442,fix,fix,fix,RB,fix
10043633MWA,33,11,List 36,engine,1066,-,-,15653,2459,15442,broken,broken,break,JJ,broken
10043633MWA,33,11,List 36,engine,1066,-,-,15653,2459,15442,bought,bought,buy,VBD,buy
10043633MWA,33,11,List 36,engine,1066,-,-,15653,2459,15442,sold,sold,sell,VBN,sell
10043633MWA,34,11,List 36,saltshaker,1059,-,-,6704,1401,6504,broken,broken,break,RB,broken
10043633MWA,34,11,List 36,saltshaker,1059,-,-,6704,1401,6504,sold,sold,sell,VBN,sell
10043633MWA,34,11,List 36,saltshaker,1059,-,-,6704,1401,6504,bought,bought,buy,RB,bought
10043633MWA,35,11,List 36,male,1058,-,-,12444,4214,10719,broken,broken,break,VBN,break
10043633MWA,36,11,List 36,woodshed,1052,-,-,4375,1720,4280,built,built,build,VBN,build
10043633MWA,36,11,List 36,woodshed,1052,-,-,4375,1720,4280,bought,bought,buy,VBD,buy
10043633MWA,36,11,List 36,woodshed,1052,-,-,4375,1720,4280,sold,sold,sell,VBN,sell
10043633MWA,37,11,List 36,lambskin,1056,-,-,6676,1335,6572,sold,sold,sell,VBN,sell
10043633MWA,37,11,List 36,lambskin,1056,-,-,6676,1335,6572,torn,torn,tear,JJ,torn
10043633MWA,37,11,List 36,lambskin,1056,-,-,6676,1335,6572,bought,bought,buy,VBD,buy
10043633MWA,38,11,List 36,motorcycle,1067,-,-,7101,1542,7023,bought,bought,buy,RB,bought
10043633MWA,38,11,List 36,motorcycle,1067,-,-,7101,1542,7023,sold,sold,sell,VBN,sell
10043633MWA,38,11,List 36,motorcycle,1067,-,-,7101,1542,7023,fixed,fixed,fix,VBN,fix
10043633MWA,38,11,List 36,motorcycle,1067,-,-,7101,1542,7023,refurbished,refurbished,refurbish,VBN,refurbish
10043633MWA,39,11,List 36,mentor,1054,-,-,5901,2129,5733,listened,listened,listen,VBN,listen
10043633MWA,39,11,List 36,mentor,1054,-,-,5901,2129,5733,bought,bought,buy,VBD,buy
10043633MWA,39,11,List 36,mentor,1054,-,-,5901,2129,5733,sold,sold,sell,VBN,sell
10043633MWA,40,11,List 36,ornament,1063,-,-,4064,1162,3571,bought,bought,buy,RB,bought
10043633MWA,40,11,List 36,ornament,1063,-,-,4064,1162,3571,sold,sold,sell,VBN,sell
10043633MWA,40,11,List 36,ornament,1063,-,-,4064,1162,3571,broken,broken,break,VBN,break
10048843AC,11,2,List 77,pigtail,2291,-,-,11062,2402,10319,hair,hair,hair,JJ,hair
10048843AC,11,2,List 77,pigtail,2291,-,-,11062,2402,10319,ponytail,ponytail,ponytail,NN,ponytail
10048843AC,11,2,List 77,pigtail,2291,-,-,11062,2402,10319,hot,hot,hot,JJ,hot
10048843AC,12,2,List 77,clergy,2282,-,-,4737,3322,3945,court,court,court,NN,court
10048843AC,13,2,List 77,nameplate,2301,-,-,4432,2008,3753,identification,identification,identification,NN,identification
10048843AC,14,2,List 77,costumer,2294,-,-,7705,1834,6679,buying,buying,buy,VBG,buy
10048843AC,14,2,List 77,costumer,2294,-,-,7705,1834,6679,money,money,money,NN,money
10048843AC,15,2,List 77,photograph,2296,-,-,5055,1093,4386,picture,picture,picture,NN,picture
10048843AC,15,2,List 77,photograph,2296,-,-,5055,1093,4386,memories,memories,memory,VBZ,memories
10048843AC,16,2,List 77,mouthwash,2303,-,-,6393,3401,5007,fresh,fresh,fresh,JJ,fresh
10048843AC,16,2,List 77,mouthwash,2303,-,-,6393,3401,5007,mint,mint,mint,NN,mint
10048843AC,17,2,List 77,brisket,2300,-,-,8296,1209,7604,food,food,food,NN,food
10048843AC,17,2,List 77,brisket,2300,-,-,8296,1209,7604,barbeque,barbecue,barbecue,NN,barbecue
10048843AC,17,2,List 77,brisket,2300,-,-,8296,1209,7604,grill,grill,grill,NN,grill
10048843AC,18,2,List 77,headset,2305,-,-,11617,2485,10938,noise,noise,noise,RB,noise
10048843AC,18,2,List 77,headset,2305,-,-,11617,2485,10938,quite,quite,quite,RB,quite
10048843AC,18,2,List 77,headset,2305,-,-,11617,2485,10938,focus,focus,focus,JJ,focus
10048843AC,19,2,List 77,baby,2290,-,-,7981,1291,6967,cry,cry,cry,NN,cry
10048843AC,19,2,List 77,baby,2290,-,-,7981,1291,6967,loud,loud,loud,JJ,loud
10048843AC,19,2,List 77,baby,2290,-,-,7981,1291,6967,sweet,sweet,sweet,JJ,sweet
10048843AC,19,2,List 77,baby,2290,-,-,7981,1291,6967,little,little,little,JJ,little
10048843AC,20,2,List 77,iron,2297,-,-,7647,3184,7127,cast,cast,cast,JJ,cast
10048843AC,20,2,List 77,iron,2297,-,-,7647,3184,7127,hard,hard,hard,JJ,hard
10048843AC,20,2,List 77,iron,2297,-,-,7647,3184,7127,element,element,element,NN,element
10048843AC,21,2,List 77,portrait,2308,-,-,5619,1073,4883,memory,memory,memory,NN,memory
10048843AC,21,2,List 77,portrait,2308,-,-,5619,1073,4883,fancy,fancy,fancy,JJ,fancy
10048843AC,22,2,List 77,scallion,2292,-,-,3671,2804,3086,food,food,food,NN,food
10048843AC,23,2,List 77,pumpkin,2306,-,-,8720,2652,7337,fall,fall,fall,NN,fall
10048843AC,23,2,List 77,pumpkin,2306,-,-,8720,2652,7337,cold,cold,cold,NN,cold
10048843AC,23,2,List 77,pumpkin,2306,-,-,8720,2652,7337,halloween,halloween,halloween,JJ,halloween
10048843AC,24,2,List 77,undercoat,2299,-,-,4772,1685,4033,warm,warm,warm,NN,warm
10048843AC,25,2,List 77,bamboo,2295,-,-,4574,1284,3975,green,green,green,NN,green
10048843AC,25,2,List 77,bamboo,2295,-,-,4574,1284,3975,food,food,food,NN,food
10048843AC,25,2,List 77,bamboo,2295,-,-,4574,1284,3975,leaf,leaf,leaf,NN,leaf
10048843AC,26,2,List 77,pimento,2304,-,-,3004,1245,2713,food,food,food,NN,food
10048843AC,26,2,List 77,pimento,2304,-,-,3004,1245,2713,cheese,cheese,cheese,NN,cheese
10048843AC,27,2,List 77,punchbowl,2309,-,-,5732,1595,5443,hold,hold,hold,VBP,hold
10048843AC,27,2,List 77,punchbowl,2309,-,-,5732,1595,5443,liquid,liquid,liquid,JJ,liquid
10048843AC,27,2,List 77,punchbowl,2309,-,-,5732,1595,5443,cold,cold,cold,JJ,cold
10048843AC,28,2,List 77,nun,2288,-,-,4275,2890,3840,religion,religion,religion,NN,religion
10048843AC,29,2,List 77,thumbnail,2285,-,-,3605,2269,3204,pointy,pointy,pointy,NN,pointy
10048843AC,30,2,List 77,homemaker,2286,-,-,7037,3312,6503,worker,worker,worker,NN,worker
10048843AC,30,2,List 77,homemaker,2286,-,-,7037,3312,6503,food,food,food,NN,food
10048843AC,30,2,List 77,homemaker,2286,-,-,7037,3312,6503,cook,cook,cook,NN,cook
10048843AC,31,2,List 77,jukebox,2284,-,-,5123,1252,4722,sound,sound,sound,NN,sound
10048843AC,31,2,List 77,jukebox,2284,-,-,5123,1252,4722,music,music,music,NN,music
10048843AC,31,2,List 77,jukebox,2284,-,-,5123,1252,4722,dance,dance,dance,NN,dance
10048843AC,31,2,List 77,jukebox,2284,-,-,5123,1252,4722,fun,fun,fun,NN,fun
10048843AC,32,2,List 77,bank,2298,-,-,4274,1036,3110,money,money,money,NN,money
10048843AC,32,2,List 77,bank,2298,-,-,4274,1036,3110,loan,loan,loan,NN,loan
10048843AC,33,2,List 77,ketchup,2283,-,-,5160,1125,4794,sauce,sauce,sauce,VBP,sauce
10048843AC,33,2,List 77,ketchup,2283,-,-,5160,1125,4794,red,red,red,JJ,red
10048843AC,33,2,List 77,ketchup,2283,-,-,5160,1125,4794,tomato,tomato,tomato,NN,tomato
10048843AC,34,2,List 77,marksman,2311,-,-,5467,2265,3523,man,man,man,NN,man
10048843AC,34,2,List 77,marksman,2311,-,-,5467,2265,3523,worker,worker,worker,NN,worker
10048843AC,35,2,List 77,mop,2293,-,-,4238,1262,3853,wet,wet,wet,JJ,wet
10048843AC,35,2,List 77,mop,2293,-,-,4238,1262,3853,clean,clean,clean,JJ,clean
10048843AC,36,2,List 77,bookend,2302,-,-,2786,1949,2436,read,read,read,VBN,read
10048843AC,37,2,List 77,foodstuff,2310,-,-,3771,1183,3272,food,food,food,NN,food
10048843AC,37,2,List 77,foodstuff,2310,-,-,3771,1183,3272,cook,cook,cook,NN,cook
10048843AC,38,2,List 77,crotch,2307,-,-,4879,3486,4516,body,body,body,NN,body
10048843AC,38,2,List 77,crotch,2307,-,-,4879,3486,4516,part,part,part,NN,part
10048843AC,39,2,List 77,nail,2287,-,-,5111,1346,4165,hold,hold,hold,VBP,hold
10048843AC,39,2,List 77,nail,2287,-,-,5111,1346,4165,seal,seal,seal,JJ,seal
10048843AC,40,2,List 77,shingles,2289,-,-,2744,1381,2342,disease,disease,disease,NN,disease
10050187SL,11,6,List 6,whisky,175,-,-,7188,1670,4754,drink,drink,drink,NN,drink
10050187SL,11,6,List 6,whisky,175,-,-,7188,1670,4754,cook,cook,cook,NN,cook
10050187SL,13,6,List 6,snowfall,167,-,-,8665,4277,8461,winter,winter,winter,NN,winter
10050187SL,13,6,List 6,snowfall,167,-,-,8665,4277,8461,freeze,freeze,freeze,NN,freeze
10050187SL,14,6,List 6,scale,176,-,-,9996,1410,9838,weight,weight,weight,VBD,weight
10050187SL,14,6,List 6,scale,176,-,-,9996,1410,9838,size,size,size,NN,size
10050187SL,16,6,List 6,crystal,171,-,-,13846,11232,13622,tell,tell,tell,NN,tell
10050187SL,16,6,List 6,crystal,171,-,-,13846,11232,13622,future,future,future,NN,future
10050187SL,19,6,List 6,family,154,-,-,6054,4529,5946,loved,loved,love,VBD,love
10050187SL,19,6,List 6,family,154,-,-,6054,4529,5946,ones,ones,one,NNS,one
10050187SL,20,6,List 6,bird,172,-,-,7688,1542,7430,flies,flies,fly,NNS,fly
10050187SL,20,6,List 6,bird,172,-,-,7688,1542,7430,lands,lands,land,VBZ,land
10050187SL,20,6,List 6,bird,172,-,-,7688,1542,7430,chirps,chirps,chirp,JJ,chirps
10050187SL,21,6,List 6,canvass,178,-,-,8566,3332,8307,painting,painting,paint,VBG,paint
10050187SL,21,6,List 6,canvass,178,-,-,8566,3332,8307,art,art,art,NN,art
10050187SL,22,6,List 6,tofu,181,-,-,8589,1359,8399,food,food,food,NN,food
10050187SL,22,6,List 6,tofu,181,-,-,8589,1359,8399,meat,meat,meat,NN,meat
10050187SL,22,6,List 6,tofu,181,-,-,8589,1359,8399,replacement,replacement,replacement,NN,replacement
10050187SL,23,6,List 6,screw,153,-,-,5576,1921,5298,hold,hold,hold,VBP,hold
10050187SL,23,6,List 6,screw,153,-,-,5576,1921,5298,things,things,thing,NNS,thing
10050187SL,23,6,List 6,screw,153,-,-,5576,1921,5298,together,together,together,RB,together
10050187SL,24,6,List 6,tinfoil,156,-,-,11128,2132,10715,cover,cover,cover,VBP,cover
10050187SL,24,6,List 6,tinfoil,156,-,-,11128,2132,10715,something,something,something,NN,something
10050187SL,24,6,List 6,tinfoil,156,-,-,11128,2132,10715,keep,keep,keep,JJ,keep
10050187SL,24,6,List 6,tinfoil,156,-,-,11128,2132,10715,things,things,thing,NNS,thing
10050187SL,24,6,List 6,tinfoil,156,-,-,11128,2132,10715,hot,hot,hot,JJ,hot
10050187SL,25,6,List 6,desert,161,-,-,17659,5019,17339,cake,cake,cake,NN,cake
10050187SL,25,6,List 6,desert,161,-,-,17659,5019,17339,cookies,cookies,cookie,NNS,cooky
10050187SL,25,6,List 6,desert,161,-,-,17659,5019,17339,ice,ice,ice,VBP,ice
10050187SL,25,6,List 6,desert,161,-,-,17659,5019,17339,crea,cream,cream,NN,cream
10050187SL,26,6,List 6,harvest,169,-,-,5476,2463,5296,fall,fall,fall,NN,fall
10050187SL,26,6,List 6,harvest,169,-,-,5476,2463,5296,food,food,food,NN,food
10050187SL,27,6,List 6,bicep,152,-,-,2559,1500,2224,muscle,muscle,muscle,NN,muscle
10050187SL,28,6,List 6,tabasco,174,-,-,3562,1389,3333,hot,hot,hot,JJ,hot
10050187SL,28,6,List 6,tabasco,174,-,-,3562,1389,3333,sauce,sauce,sauce,NN,sauce
10050187SL,29,6,List 6,ginger,179,-,-,9437,6506,9202,spice,spice,spice,NN,spice
10050187SL,29,6,List 6,ginger,179,-,-,9437,6506,9202,food,food,food,NN,food
10050187SL,30,6,List 6,wand,170,-,-,19081,5322,17921,curling,curling,curl,VBG,curl
10050187SL,30,6,List 6,wand,170,-,-,19081,5322,17921,hair,hair,hair,NN,hair
10050187SL,30,6,List 6,wand,170,-,-,19081,5322,17921,spraying,spraying,spray,VBG,spray
10050187SL,31,6,List 6,blindfold,168,-,-,7742,2150,7438,cover,cover,cover,JJ,cover
10050187SL,31,6,List 6,blindfold,168,-,-,7742,2150,7438,eyes,eyes,eye,NNS,eye
10050187SL,31,6,List 6,blindfold,168,-,-,7742,2150,7438,keep,keep,keep,VB,keep
10050187SL,31,6,List 6,blindfold,168,-,-,7742,2150,7438,secret,secret,secret,JJ,secret
10050187SL,32,6,List 6,berry,180,-,-,9489,3933,9243,smoothies,smoothies,smoothie,NNS,smoothy
10050187SL,32,6,List 6,berry,180,-,-,9489,3933,9243,pies,pies,pie,NNS,pie
10050187SL,32,6,List 6,berry,180,-,-,9489,3933,9243,flavoring,flavoring,flavor,VBG,flavor
10050187SL,33,6,List 6,van,164,-,-,5140,1538,4672,drive,drive,drive,NN,drive
10050187SL,33,6,List 6,van,164,-,-,5140,1538,4672,hauling,hauling,haul,VBG,haul
10050187SL,34,6,List 6,bathe,157,-,-,4334,1469,3403,clean,clean,clean,JJ,clean
10050187SL,36,6,List 6,balcony,177,-,-,3484,1294,3164,stand,stand,stand,VBP,stand
10050187SL,37,6,List 6,physician,162,-,-,7253,3699,6942,health,health,health,NN,health
10050187SL,37,6,List 6,physician,162,-,-,7253,3699,6942,examination,examination,examination,NN,examination
10050187SL,38,6,List 6,chinaware,159,-,-,6753,2333,6399,decoration,decoration,decoration,NN,decoration
10050187SL,38,6,List 6,chinaware,159,-,-,6753,2333,6399,serving,serving,serve,VBG,serve
10050187SL,39,6,List 6,ticket,165,-,-,7143,1443,7049,speeding,speeding,speed,VBG,speed
10050187SL,39,6,List 6,ticket,165,-,-,7143,1443,7049,entering,entering,enter,VBG,enter
10050187SL,39,6,List 6,ticket,165,-,-,7143,1443,7049,event,event,event,NN,event
10077702_ela,11,25,List 50,pudding,1497,-,-,8479,3535,6290,eating,eating,eat,VBG,eat
10077702_ela,11,25,List 50,pudding,1497,-,-,8479,3535,6290,dessert,dessert,dessert,JJ,dessert
10077702_ela,12,25,List 50,celery,1485,-,-,20077,2164,19056,stuffing,stuffing,stuff,VBG,stuff
10077702_ela,12,25,List 50,celery,1485,-,-,20077,2164,19056,eating,eating,eat,VBG,eat
10077702_ela,12,25,List 50,celery,1485,-,-,20077,2164,19056,cooking,cooking,cook,VBG,cook
10077702_ela,13,25,List 50,councilwoman,1489,-,-,19913,2879,10615,debates,debates,debate,NNS,debate
10077702_ela,13,25,List 50,councilwoman,1489,-,-,19913,2879,10615,representation,representation,representation,NN,representation
10077702_ela,14,25,List 50,geranium,1472,-,-,19936,2504,16840,planting,planting,plant,VBG,plant
10077702_ela,14,25,List 50,geranium,1472,-,-,19936,2504,16840,herbology,herpetology,herpetology,NN,herpetology
10077702_ela,14,25,List 50,geranium,1472,-,-,19936,2504,16840,botany,botany,botany,NN,botany
10077702_ela,15,25,List 50,pineapple,1478,-,-,19834,2024,18818,pina,piney,piney,NN,piney
10077702_ela,15,25,List 50,pineapple,1478,-,-,19834,2024,18818,colada,cola,colon,NN,cola
10077702_ela,15,25,List 50,pineapple,1478,-,-,19834,2024,18818,cough,cough,cough,NN,cough
10077702_ela,15,25,List 50,pineapple,1478,-,-,19834,2024,18818,remedy,remedy,remedy,NN,remedy
10077702_ela,15,25,List 50,pineapple,1478,-,-,19834,2024,18818,smoothie,smoothie,smoothie,NN,smoothie
10077702_ela,15,25,List 50,pineapple,1478,-,-,19834,2024,18818,desserts,desserts,dessert,NNS,dessert
10077702_ela,16,25,List 50,nanny,1481,-,-,13994,2407,12820,cleaning,cleaning,clean,VBG,clean
10077702_ela,16,25,List 50,nanny,1481,-,-,13994,2407,12820,protect,protect,protect,JJ,protect
10077702_ela,16,25,List 50,nanny,1481,-,-,13994,2407,12820,kids,kids,kid,NNS,kid
10077702_ela,16,25,List 50,nanny,1481,-,-,13994,2407,12820,watch,watch,watch,VBP,watch
10077702_ela,16,25,List 50,nanny,1481,-,-,13994,2407,12820,children,children,child,NNS,child
10077702_ela,17,25,List 50,houseboy,1501,-,-,13822,2244,8445,cleaning,cleaning,clean,VBG,clean
10077702_ela,17,25,List 50,houseboy,1501,-,-,13822,2244,8445,mowing,mowing,mow,VBG,mow
10077702_ela,17,25,List 50,houseboy,1501,-,-,13822,2244,8445,lawn,lawn,lawn,NN,lawn
10077702_ela,18,25,List 50,corset,1494,-,-,20056,2406,18739,fashion,fashion,fashion,NN,fashion
10077702_ela,18,25,List 50,corset,1494,-,-,20056,2406,18739,lingerie,lingerie,lingerie,JJ,lingerie
10077702_ela,18,25,List 50,corset,1494,-,-,20056,2406,18739,waist,waist,waist,JJ,waist
10077702_ela,18,25,List 50,corset,1494,-,-,20056,2406,18739,training,training,train,NN,training
10077702_ela,19,25,List 50,necktie,1483,-,-,11261,2593,10129,weddings,weddings,wedding,NNS,wedding
10077702_ela,19,25,List 50,necktie,1483,-,-,11261,2593,10129,prom,prom,prom,IN,prom
10077702_ela,19,25,List 50,necktie,1483,-,-,11261,2593,10129,formals,formals,formals,NNS,formal
10077702_ela,19,25,List 50,necktie,1483,-,-,11261,2593,10129,photography,photography,photography,VBP,photography
10077702_ela,20,25,List 50,orange,1490,-,-,11622,1945,8815,juice,juice,juice,NN,juice
10077702_ela,20,25,List 50,orange,1490,-,-,11622,1945,8815,peeling,peeling,peel,VBG,peel
10077702_ela,21,25,List 50,shallot,1480,-,-,4281,2205,3219,cooking,cooking,cook,VBG,cook
10077702_ela,22,25,List 50,cliff,1495,-,-,14213,3095,12151,diving,diving,dive,VBG,dive
10077702_ela,22,25,List 50,cliff,1495,-,-,14213,3095,12151,hiking,hiking,hike,VBG,hike
10077702_ela,22,25,List 50,cliff,1495,-,-,14213,3095,12151,climbing,climbing,climb,VBG,climb
10077702_ela,23,25,List 50,coin,1486,-,-,10584,1592,9559,payments,payments,payment,NNS,payment
10077702_ela,23,25,List 50,coin,1486,-,-,10584,1592,9559,wishes,wishes,wish,NNS,wish
10077702_ela,23,25,List 50,coin,1486,-,-,10584,1592,9559,bets,bets,bet,NNS,bet
10077702_ela,24,25,List 50,wildcat,1475,-,-,9974,7650,8643,hunting,hunting,hunt,VBG,hunt
10077702_ela,25,25,List 50,pullover,1477,-,-,21695,1829,19715,warmth,warmth,warmth,JJ,warmth
10077702_ela,25,25,List 50,pullover,1477,-,-,21695,1829,19715,fashion,fashion,fashion,NN,fashion
10077702_ela,25,25,List 50,pullover,1477,-,-,21695,1829,19715,comfortability,comfortability,comfort ability,NN,comfortability
10077702_ela,26,25,List 50,shavings,1499,-,-,8020,2959,5329,sawdust,sawdust,sawdust,JJ,sawdust
10077702_ela,27,25,List 50,cent,1474,-,-,6392,2765,5355,payment,payment,payment,NN,payment
10077702_ela,27,25,List 50,cent,1474,-,-,6392,2765,5355,tip,tip,tip,NN,tip
10077702_ela,28,25,List 50,saddle,1500,-,-,6744,1439,4926,horseback,horseback,horseback,NN,horseback
10077702_ela,28,25,List 50,saddle,1500,-,-,6744,1439,4926,riding,riding,ride,VBG,rid
10077702_ela,29,25,List 50,potato,1484,-,-,12325,1571,11534,cooking,cooking,cook,VBG,cook
10077702_ela,29,25,List 50,potato,1484,-,-,12325,1571,11534,frying,frying,fry,VBG,fry
10077702_ela,29,25,List 50,potato,1484,-,-,12325,1571,11534,baking,baking,bake,VBG,bake
10077702_ela,29,25,List 50,potato,1484,-,-,12325,1571,11534,eating,eating,eat,VBG,eat
10077702_ela,30,25,List 50,Ladder,1498,-,-,9668,1621,8784,climbing,climbing,climb,VBG,climb
10077702_ela,30,25,List 50,Ladder,1498,-,-,9668,1621,8784,reaching,reaching,reach,VBG,reach
10077702_ela,30,25,List 50,Ladder,1498,-,-,9668,1621,8784,construction,construction,construction,NN,construction
10077702_ela,31,25,List 50,drywall,1482,-,-,10140,3691,9309,construction,construction,construction,NN,construction
10077702_ela,31,25,List 50,drywall,1482,-,-,10140,3691,9309,repair,repair,repair,NN,repair
10077702_ela,31,25,List 50,drywall,1482,-,-,10140,3691,9309,building,building,build,VBG,build
10077702_ela,32,25,List 50,poultry,1488,-,-,10946,2563,9578,cooking,cooking,cook,VBG,cook
10077702_ela,32,25,List 50,poultry,1488,-,-,10946,2563,9578,eating,eating,eat,VBG,eat
10077702_ela,33,25,List 50,muzzle,1491,-,-,10592,1959,4368,restraint,restraint,restraint,NN,restraint
10077702_ela,35,25,List 50,sombrero,1493,-,-,6349,2074,5442,hat,hat,hat,DT,hat
10077702_ela,35,25,List 50,sombrero,1493,-,-,6349,2074,5442,decoration,decoration,decoration,NN,decoration
10077702_ela,36,25,List 50,merchant,1479,-,-,7685,2385,6259,seller,seller,seller,NN,seller
10077702_ela,36,25,List 50,merchant,1479,-,-,7685,2385,6259,persuasion,persuasion,persuasion,NN,persuasion
10077702_ela,37,25,List 50,metal,1492,-,-,19438,2025,18632,welding,welding,weld,VBG,weld
10077702_ela,37,25,List 50,metal,1492,-,-,19438,2025,18632,building,building,build,NN,building
10077702_ela,37,25,List 50,metal,1492,-,-,19438,2025,18632,construction,construction,construction,NN,construction
10077702_ela,37,25,List 50,metal,1492,-,-,19438,2025,18632,jewelry,jewelry,jewelry,NN,jewelry
10077702_ela,38,25,List 50,needle,1496,-,-,16103,3477,14893,blood,blood,blood,NN,blood
10077702_ela,38,25,List 50,needle,1496,-,-,16103,3477,14893,drawing,drawing,draw,VBG,draw
10077702_ela,38,25,List 50,needle,1496,-,-,16103,3477,14893,iv,iv,iv,JJ,iv
10077702_ela,38,25,List 50,needle,1496,-,-,16103,3477,14893,medication,medication,medication,NN,medication
10077702_ela,40,25,List 50,joystick,1473,-,-,6930,4449,6122,video,video,video,NN,video
10077702_ela,40,25,List 50,joystick,1473,-,-,6930,4449,6122,games,games,game,NNS,game
10085738,11,18,List 68,violinist,2035,-,-,18294,7619,16875,orchestra,orchestra,orchestra,VBP,orchestra
10085738,11,18,List 68,violinist,2035,-,-,18294,7619,16875,wedding,wedding,wed,VBG,wed
10085738,12,18,List 68,chickenfeed,2025,-,-,5244,2039,4904,feed,feed,fee,NN,feed
10085738,12,18,List 68,chickenfeed,2025,-,-,5244,2039,4904,chickens,chickens,chicken,NNS,chicken
10085738,13,18,List 68,sketchpad,2016,-,-,6241,2309,5923,draw,draw,draw,VBP,draw
10085738,13,18,List 68,sketchpad,2016,-,-,6241,2309,5923,write,write,write,JJ,write
10085738,13,18,List 68,sketchpad,2016,-,-,6241,2309,5923,notes,notes,note,NNS,note
10085738,14,18,List 68,chisel,2013,-,-,9109,2801,8895,sculptures,sculptures,sculpture,NNS,sculpture
10085738,14,18,List 68,chisel,2013,-,-,9109,2801,8895,buildings,buildings,building,NNS,building
10085738,15,18,List 68,umbrella,2020,-,-,6131,2401,5553,rain,rain,rain,VBP,rain
10085738,15,18,List 68,umbrella,2020,-,-,6131,2401,5553,sun,sun,sun,JJ,sun
10085738,16,18,List 68,whistle,2015,-,-,9081,1499,8703,stop,stop,stop,NN,stop
10085738,16,18,List 68,whistle,2015,-,-,9081,1499,8703,someone,someone,someone,NN,someone
10085738,16,18,List 68,whistle,2015,-,-,9081,1499,8703,stop,stop,stop,JJ,stop
10085738,16,18,List 68,whistle,2015,-,-,9081,1499,8703,game,game,game,NN,game
10085738,17,18,List 68,supper,2014,-,-,4870,2220,4550,dinner,dinner,dinner,NN,dinner
10085738,17,18,List 68,supper,2014,-,-,4870,2220,4550,eat,eat,eat,NN,eat
10085738,18,18,List 68,questionnaire,2012,-,-,13974,2474,13732,ask,ask,ask,JJ,ask
10085738,18,18,List 68,questionnaire,2012,-,-,13974,2474,13732,questions,questions,question,NNS,question
10085738,18,18,List 68,questionnaire,2012,-,-,13974,2474,13732,learn,learn,learn,VBP,learn
10085738,18,18,List 68,questionnaire,2012,-,-,13974,2474,13732,people,people,people,NNS,people
10085738,19,18,List 68,teaspoon,2041,-,-,5002,1609,4611,baking,baking,bake,VBG,bake
10085738,19,18,List 68,teaspoon,2041,-,-,5002,1609,4611,eating,eating,eat,VBG,eat
10085738,20,18,List 68,stitching,2032,-,-,13265,4008,12947,wound,wound,wind,NN,wound
10085738,20,18,List 68,stitching,2032,-,-,13265,4008,12947,clothes,clothes,clothe,NNS,clothes
10085738,20,18,List 68,stitching,2032,-,-,13265,4008,12947,making,making,make,VBG,make
10085738,20,18,List 68,stitching,2032,-,-,13265,4008,12947,blankets,blankets,blanket,NNS,blanket
10085738,22,18,List 68,primates,2036,-,-,7225,6056,6956,animals,animals,animal,NNS,animal
10085738,23,18,List 68,slacks,2026,-,-,2762,1609,2323,pants,pants,pant,NNS,pant
10085738,24,18,List 68,staircase,2023,-,-,11258,1838,11049,walk,walk,walk,VBP,walk
10085738,24,18,List 68,staircase,2023,-,-,11258,1838,11049,decorate,decorate,decorate,JJ,decorate
10085738,26,18,List 68,dorm,2037,-,-,3180,2162,2731,live,live,live,NNS,live
10085738,27,18,List 68,slipknot,2024,-,-,10825,4462,10630,can,can,can,MD,can
10085738,27,18,List 68,slipknot,2024,-,-,10825,4462,10630,easily,easily,easily,RB,easily
10085738,27,18,List 68,slipknot,2024,-,-,10825,4462,10630,escape,escape,escape,VB,escape
10085738,28,18,List 68,servant,2038,-,-,8399,1879,8257,worker,worker,worker,NN,worker
10085738,28,18,List 68,servant,2038,-,-,8399,1879,8257,cleans,cleans,clean,NNS,clean
10085738,29,18,List 68,winch,2021,-,-,5848,3094,5582,nice,nice,nice,JJ,nice
10085738,30,18,List 68,pig,2031,-,-,13908,9330,13166,food,food,food,NN,food
10085738,30,18,List 68,pig,2031,-,-,13908,9330,13166,hunting,hunting,hunt,VBG,hunt
10085738,32,18,List 68,toothbrush,2040,-,-,9202,1675,8915,brush,brush,brush,NN,brush
10085738,32,18,List 68,toothbrush,2040,-,-,9202,1675,8915,teeth,teeth,tooth,NNS,teeth
10085738,32,18,List 68,toothbrush,2040,-,-,9202,1675,8915,clean,clean,clean,VBP,clean
10085738,32,18,List 68,toothbrush,2040,-,-,9202,1675,8915,grout,grout,grout,NN,grout
10085738,33,18,List 68,wiring,2018,-,-,19761,5010,19322,walls,walls,wall,NNS,wall
10085738,33,18,List 68,wiring,2018,-,-,19761,5010,19322,tvs,tbs,tbs,VBP,tbs
10085738,34,18,List 68,zucchini,2027,-,-,3591,2883,3264,eat,eat,eat,NN,eat
10085738,35,18,List 68,guy,2033,-,-,19311,13500,19123,picking,picking,pick,VBG,pick
10085738,35,18,List 68,guy,2033,-,-,19311,13500,19123,heavy,heavy,heavy,JJ,heavy
10085738,35,18,List 68,guy,2033,-,-,19311,13500,19123,stuff,stuff,stuff,NN,stuff
10085738,36,18,List 68,ottoman,2028,-,-,5554,3278,5256,prop,prop,prop,NN,prop
10085738,36,18,List 68,ottoman,2028,-,-,5554,3278,5256,legs,legs,leg,VBD,legs
10085738,37,18,List 68,button,2034,-,-,6682,1317,6450,push,push,push,NN,push
10085738,37,18,List 68,button,2034,-,-,6682,1317,6450,fasten,fasten,fasten,NN,fasten
10085738,38,18,List 68,businessman,2022,-,-,20053,13953,19833,help,help,help,NN,help
10085738,38,18,List 68,businessman,2022,-,-,20053,13953,19833,paperwork,paperwork,paperwork,VB,paperwork
10085738,39,18,List 68,nursery,2039,-,-,4838,3608,4594,baby,baby,baby,JJ,baby
10085738,40,18,List 68,bellman,2029,-,-,10941,1562,10731,luggage,luggage,luggage,NN,luggage
10085738,40,18,List 68,bellman,2029,-,-,10941,1562,10731,directions,directions,direction,NNS,direction
10086350JAM,11,25,List 100,breadboard,2988,-,-,40620,7195,34356,hold,hold,hold,VBP,hold
10086350JAM,11,25,List 100,breadboard,2988,-,-,40620,7195,34356,serve,serve,serve,VBP,serve
10086350JAM,11,25,List 100,breadboard,2988,-,-,40620,7195,34356,wash,wash,wash,JJ,wash
10086350JAM,11,25,List 100,breadboard,2988,-,-,40620,7195,34356,make,make,make,NN,make
10086350JAM,11,25,List 100,breadboard,2988,-,-,40620,7195,34356,sand,sand,sand,NN,sand
10086350JAM,13,25,List 100,debris,2972,-,-,31304,5525,27578,topping,topping,top,VBG,top
10086350JAM,13,25,List 100,debris,2972,-,-,31304,5525,27578,cleanup,cleanup,cleanup,NN,cleanup
10086350JAM,13,25,List 100,debris,2972,-,-,31304,5525,27578,distribution,distribution,distribution,NN,distribution
10086350JAM,14,25,List 100,badminton,3000,-,-,39692,3252,38883,play,play,play,NN,play
10086350JAM,14,25,List 100,badminton,3000,-,-,39692,3252,38883,serve,serve,serve,VBP,serve
10086350JAM,14,25,List 100,badminton,3000,-,-,39692,3252,38883,setup,setup,setup,NN,setup
10086350JAM,14,25,List 100,badminton,3000,-,-,39692,3252,38883,score,score,score,NN,score
10086350JAM,14,25,List 100,badminton,3000,-,-,39692,3252,38883,watch,watch,watch,NN,watch
10086350JAM,14,25,List 100,badminton,3000,-,-,39692,3252,38883,purchase,purchase,purchase,NN,purchase
10086350JAM,14,25,List 100,badminton,3000,-,-,39692,3252,38883,record,record,record,NN,record
10086350JAM,15,25,List 100,topaz,2993,-,-,27723,2985,26345,wear,wear,wear,NN,wear
10086350JAM,15,25,List 100,topaz,2993,-,-,27723,2985,26345,show,show,show,VBP,show
10086350JAM,15,25,List 100,topaz,2993,-,-,27723,2985,26345,make,make,make,VB,make
10086350JAM,15,25,List 100,topaz,2993,-,-,27723,2985,26345,jewelry,jewelry,jewelry,NN,jewelry
10086350JAM,15,25,List 100,topaz,2993,-,-,27723,2985,26345,sell,sell,sell,NN,sell
10086350JAM,15,25,List 100,topaz,2993,-,-,27723,2985,26345,buy,buy,buy,VB,buy
10086350JAM,16,25,List 100,knickers,2978,-,-,29046,2795,27915,wear,wear,wear,JJ,wear
10086350JAM,16,25,List 100,knickers,2978,-,-,29046,2795,27915,take,take,take,NN,take
10086350JAM,16,25,List 100,knickers,2978,-,-,29046,2795,27915,put,put,put,VBD,put
10086350JAM,16,25,List 100,knickers,2978,-,-,29046,2795,27915,throw,throw,throw,RP,throw
10086350JAM,16,25,List 100,knickers,2978,-,-,29046,2795,27915,wash,wash,wash,NN,wash
10086350JAM,16,25,List 100,knickers,2978,-,-,29046,2795,27915,dirty,dirty,dirty,NN,dirty
10086350JAM,17,25,List 100,bowling,2981,-,-,43051,2944,41308,play,play,play,NN,play
10086350JAM,17,25,List 100,bowling,2981,-,-,43051,2944,41308,watch,watch,watch,NN,watch
10086350JAM,17,25,List 100,bowling,2981,-,-,43051,2944,41308,score,score,score,NN,score
10086350JAM,17,25,List 100,bowling,2981,-,-,43051,2944,41308,loose,loose,loose,JJ,loose
10086350JAM,17,25,List 100,bowling,2981,-,-,43051,2944,41308,win,win,win,JJ,win
10086350JAM,17,25,List 100,bowling,2981,-,-,43051,2944,41308,practice,practice,practice,NN,practice
10086350JAM,18,25,List 100,greenhouse,2976,-,-,36967,2746,35763,plant,plant,plant,NN,plant
10086350JAM,18,25,List 100,greenhouse,2976,-,-,36967,2746,35763,set,set,set,VBN,set
10086350JAM,18,25,List 100,greenhouse,2976,-,-,36967,2746,35763,maintain,maintain,maintain,VBP,maintain
10086350JAM,18,25,List 100,greenhouse,2976,-,-,36967,2746,35763,organize,organize,organize,JJ,organize
10086350JAM,18,25,List 100,greenhouse,2976,-,-,36967,2746,35763,clean,clean,clean,JJ,clean
10086350JAM,18,25,List 100,greenhouse,2976,-,-,36967,2746,35763,regulate,regulate,regulate,NN,regulate
10086350JAM,18,25,List 100,greenhouse,2976,-,-,36967,2746,35763,sell,sell,sell,NN,sell
10086350JAM,18,25,List 100,greenhouse,2976,-,-,36967,2746,35763,buy,buy,buy,VB,buy
10086350JAM,19,25,List 100,wallboard,2979,-,-,43033,3443,40209,write,write,write,JJ,write
10086350JAM,19,25,List 100,wallboard,2979,-,-,43033,3443,40209,throw,throw,throw,NN,throw
10086350JAM,19,25,List 100,wallboard,2979,-,-,43033,3443,40209,put,put,put,VBD,put
10086350JAM,19,25,List 100,wallboard,2979,-,-,43033,3443,40209,pin,pin,pin,JJ,pin
10086350JAM,19,25,List 100,wallboard,2979,-,-,43033,3443,40209,display,display,display,NN,display
10086350JAM,19,25,List 100,wallboard,2979,-,-,43033,3443,40209,hide,hide,hide,NN,hide
10086350JAM,19,25,List 100,wallboard,2979,-,-,43033,3443,40209,organize,organize,organize,VB,organize
10086350JAM,20,25,List 100,school,2980,-,-,48187,2725,47304,attend,attend,attend,JJ,attend
10086350JAM,20,25,List 100,school,2980,-,-,48187,2725,47304,build,build,build,NN,build
10086350JAM,20,25,List 100,school,2980,-,-,48187,2725,47304,create,create,create,NN,create
10086350JAM,20,25,List 100,school,2980,-,-,48187,2725,47304,despise,despise,despise,NN,despise
10086350JAM,20,25,List 100,school,2980,-,-,48187,2725,47304,cherish,cherish,cherish,JJ,cherish
10086350JAM,20,25,List 100,school,2980,-,-,48187,2725,47304,go,go,go,VBP,go
10086350JAM,20,25,List 100,school,2980,-,-,48187,2725,47304,leave,leave,leave,JJ,leave
10086350JAM,20,25,List 100,school,2980,-,-,48187,2725,47304,run,run,run,VBN,run
10086350JAM,20,25,List 100,school,2980,-,-,48187,2725,47304,late,late,late,RB,late
10086350JAM,20,25,List 100,school,2980,-,-,48187,2725,47304,early,early,early,JJ,early
10086350JAM,20,25,List 100,school,2980,-,-,48187,2725,47304,show,show,show,NN,show
10086350JAM,21,25,List 100,waffle,2984,-,-,40471,2980,38027,eat,eat,eat,NN,eat
10086350JAM,21,25,List 100,waffle,2984,-,-,40471,2980,38027,make,make,make,VBP,make
10086350JAM,21,25,List 100,waffle,2984,-,-,40471,2980,38027,serve,serve,serve,NN,serve
10086350JAM,21,25,List 100,waffle,2984,-,-,40471,2980,38027,order,order,order,NN,order
10086350JAM,21,25,List 100,waffle,2984,-,-,40471,2980,38027,drown,drown,drown,VBN,drown
10086350JAM,21,25,List 100,waffle,2984,-,-,40471,2980,38027,syrup,syrup,syrup,RB,syrup
10086350JAM,21,25,List 100,waffle,2984,-,-,40471,2980,38027,buttered,buttered,butter,JJ,buttered
10086350JAM,22,25,List 100,Fern,2977,-,-,49919,4304,48504,watch,watch,watch,NN,watch
10086350JAM,22,25,List 100,Fern,2977,-,-,49919,4304,48504,tend,tend,tend,VBP,tend
10086350JAM,22,25,List 100,Fern,2977,-,-,49919,4304,48504,keep,keep,keep,JJ,keep
10086350JAM,22,25,List 100,Fern,2977,-,-,49919,4304,48504,water,water,water,NN,water
10086350JAM,22,25,List 100,Fern,2977,-,-,49919,4304,48504,dry,dry,spin-dry,JJ,dry
10086350JAM,22,25,List 100,Fern,2977,-,-,49919,4304,48504,rot,rot,rot,NN,rot
10086350JAM,22,25,List 100,Fern,2977,-,-,49919,4304,48504,drown,drown,drown,JJ,drown
10086350JAM,22,25,List 100,Fern,2977,-,-,49919,4304,48504,cut,cut,cut,NN,cut
10086350JAM,22,25,List 100,Fern,2977,-,-,49919,4304,48504,splice,splice,splice,NN,splice
10086350JAM,23,25,List 100,fieldstone,2991,-,-,18899,4665,17518,watch,watch,watch,VBP,watch
10086350JAM,23,25,List 100,fieldstone,2991,-,-,18899,4665,17518,take,take,take,VB,take
10086350JAM,23,25,List 100,fieldstone,2991,-,-,18899,4665,17518,give,give,give,NN,give
10086350JAM,23,25,List 100,fieldstone,2991,-,-,18899,4665,17518,study,study,study,NN,study
10086350JAM,24,25,List 100,waist,2998,-,-,61299,2335,59207,train,train,train,VBP,train
10086350JAM,24,25,List 100,waist,2998,-,-,61299,2335,59207,bend,bend,bend,NN,bend
10086350JAM,24,25,List 100,waist,2998,-,-,61299,2335,59207,sinch,sins,sin,NNS,sin
10086350JAM,24,25,List 100,waist,2998,-,-,61299,2335,59207,tighten,tighten,tighten,VBP,tighten
10086350JAM,24,25,List 100,waist,2998,-,-,61299,2335,59207,enhance,enhance,enhance,RB,enhance
10086350JAM,24,25,List 100,waist,2998,-,-,61299,2335,59207,highlight,highlight,highlight,JJ,highlight
10086350JAM,24,25,List 100,waist,2998,-,-,61299,2335,59207,hide,hide,hide,NN,hide
10086350JAM,24,25,List 100,waist,2998,-,-,61299,2335,59207,slim,slim,slim,JJ,slim
10086350JAM,25,25,List 100,centipede,2987,-,-,28757,2584,26782,watch,watch,watch,NN,watch
10086350JAM,25,25,List 100,centipede,2987,-,-,28757,2584,26782,grow,grow,grow,NN,grow
10086350JAM,25,25,List 100,centipede,2987,-,-,28757,2584,26782,hatch,hatch,hatch,NN,hatch
10086350JAM,25,25,List 100,centipede,2987,-,-,28757,2584,26782,kill,kill,kill,NN,kill
10086350JAM,25,25,List 100,centipede,2987,-,-,28757,2584,26782,study,study,study,VB,study
10086350JAM,25,25,List 100,centipede,2987,-,-,28757,2584,26782,draw,draw,draw,JJ,draw
10086350JAM,25,25,List 100,centipede,2987,-,-,28757,2584,26782,paint,paint,paint,NN,paint
10086350JAM,26,25,List 100,earplugs,2997,-,-,31720,3447,28672,listen,listen,listen,JJ,listen
10086350JAM,26,25,List 100,earplugs,2997,-,-,31720,3447,28672,clean,clean,clean,JJ,clean
10086350JAM,26,25,List 100,earplugs,2997,-,-,31720,3447,28672,charge,charge,charge,NN,charge
10086350JAM,26,25,List 100,earplugs,2997,-,-,31720,3447,28672,sync,sync,sync,JJ,sync
10086350JAM,26,25,List 100,earplugs,2997,-,-,31720,3447,28672,give,give,give,JJ,give
10086350JAM,26,25,List 100,earplugs,2997,-,-,31720,3447,28672,take,take,take,NN,take
10086350JAM,26,25,List 100,earplugs,2997,-,-,31720,3447,28672,recieve,receive,receive,VBP,receive
10086350JAM,27,25,List 100,wrist,2994,-,-,36595,2580,35608,bend,bend,bend,NN,bend
10086350JAM,27,25,List 100,wrist,2994,-,-,36595,2580,35608,twist,twist,twist,NN,twist
10086350JAM,27,25,List 100,wrist,2994,-,-,36595,2580,35608,roll,roll,roll,NN,roll
10086350JAM,27,25,List 100,wrist,2994,-,-,36595,2580,35608,flick,flick,flick,JJ,flick
10086350JAM,27,25,List 100,wrist,2994,-,-,36595,2580,35608,support,support,support,NN,support
10086350JAM,27,25,List 100,wrist,2994,-,-,36595,2580,35608,damage,damage,damage,NN,damage
10086350JAM,27,25,List 100,wrist,2994,-,-,36595,2580,35608,injur,injure,injure,NN,injure
10086350JAM,27,25,List 100,wrist,2994,-,-,36595,2580,35608,tattoo,tattoo,tattoo,NN,tattoo
10086350JAM,28,25,List 100,respirator,2996,-,-,29382,2791,28612,wear,wear,wear,JJ,wear
10086350JAM,28,25,List 100,respirator,2996,-,-,29382,2791,28612,buy,buy,buy,NN,buy
10086350JAM,28,25,List 100,respirator,2996,-,-,29382,2791,28612,sell,sell,sell,VBP,sell
10086350JAM,28,25,List 100,respirator,2996,-,-,29382,2791,28612,apply,apply,apply,RB,apply
10086350JAM,28,25,List 100,respirator,2996,-,-,29382,2791,28612,remove,remove,remove,VB,remove
10086350JAM,28,25,List 100,respirator,2996,-,-,29382,2791,28612,clean,clean,clean,NN,clean
10086350JAM,28,25,List 100,respirator,2996,-,-,29382,2791,28612,use,use,use,NN,use
10086350JAM,29,25,List 100,deck,2989,-,-,45458,3337,39673,walk,walk,walk,VBP,walk
10086350JAM,29,25,List 100,deck,2989,-,-,45458,3337,39673,sit,sit,sit,NN,sit
10086350JAM,29,25,List 100,deck,2989,-,-,45458,3337,39673,stand,stand,stand,VBP,stand
10086350JAM,29,25,List 100,deck,2989,-,-,45458,3337,39673,jump,jump,jump,NN,jump
10086350JAM,29,25,List 100,deck,2989,-,-,45458,3337,39673,paint,paint,paint,NN,paint
10086350JAM,29,25,List 100,deck,2989,-,-,45458,3337,39673,stain,stain,stain,NN,stain
10086350JAM,29,25,List 100,deck,2989,-,-,45458,3337,39673,admire,admire,admire,VBP,admire
10086350JAM,29,25,List 100,deck,2989,-,-,45458,3337,39673,build,build,build,JJ,build
10086350JAM,29,25,List 100,deck,2989,-,-,45458,3337,39673,demolish,demolish,demolish,JJ,demolish
10086350JAM,29,25,List 100,deck,2989,-,-,45458,3337,39673,burn,burn,burn,NN,burn
10086350JAM,30,25,List 100,dish,2982,-,-,38280,4312,37447,serve,serve,serve,VBP,serve
10086350JAM,30,25,List 100,dish,2982,-,-,38280,4312,37447,eat,eat,eat,NN,eat
10086350JAM,30,25,List 100,dish,2982,-,-,38280,4312,37447,wash,wash,wash,NN,wash
10086350JAM,30,25,List 100,dish,2982,-,-,38280,4312,37447,dirty,dirty,dirty,NN,dirty
10086350JAM,30,25,List 100,dish,2982,-,-,38280,4312,37447,use,use,use,NN,use
10086350JAM,30,25,List 100,dish,2982,-,-,38280,4312,37447,throw,throw,throw,JJ,throw
10086350JAM,30,25,List 100,dish,2982,-,-,38280,4312,37447,catch,catch,catch,NN,catch
10086350JAM,30,25,List 100,dish,2982,-,-,38280,4312,37447,break,break,break,NN,break
10086350JAM,30,25,List 100,dish,2982,-,-,38280,4312,37447,buy,buy,buy,VB,buy
10086350JAM,30,25,List 100,dish,2982,-,-,38280,4312,37447,sell,sell,sell,JJ,sell
10086350JAM,30,25,List 100,dish,2982,-,-,38280,4312,37447,collect,collect,collect,JJ,collect
10086350JAM,31,25,List 100,guardrail,2992,-,-,50058,4084,48797,paint,paint,paint,NN,paint
10086350JAM,31,25,List 100,guardrail,2992,-,-,50058,4084,48797,stain,stain,stain,NN,stain
10086350JAM,31,25,List 100,guardrail,2992,-,-,50058,4084,48797,decorate,decorate,decorate,NN,decorate
10086350JAM,31,25,List 100,guardrail,2992,-,-,50058,4084,48797,hold,hold,hold,NN,hold
10086350JAM,31,25,List 100,guardrail,2992,-,-,50058,4084,48797,use,use,use,NN,use
10086350JAM,31,25,List 100,guardrail,2992,-,-,50058,4084,48797,support,support,support,NN,support
10086350JAM,31,25,List 100,guardrail,2992,-,-,50058,4084,48797,destroy,destroy,destroy,NN,destroy
10086350JAM,32,25,List 100,dye,2973,-,-,49964,4396,45091,use,use,use,NN,use
10086350JAM,32,25,List 100,dye,2973,-,-,49964,4396,45091,blend,blend,blend,VBP,blend
10086350JAM,32,25,List 100,dye,2973,-,-,49964,4396,45091,apply,apply,apply,RB,apply
10086350JAM,32,25,List 100,dye,2973,-,-,49964,4396,45091,recieve,receive,receive,JJ,receive
10086350JAM,32,25,List 100,dye,2973,-,-,49964,4396,45091,give,give,give,NN,give
10086350JAM,32,25,List 100,dye,2973,-,-,49964,4396,45091,sell,sell,sell,NN,sell
10086350JAM,32,25,List 100,dye,2973,-,-,49964,4396,45091,buy,buy,buy,VB,buy
10086350JAM,32,25,List 100,dye,2973,-,-,49964,4396,45091,gift,gift,gift,NN,gift
10086350JAM,32,25,List 100,dye,2973,-,-,49964,4396,45091,wash,wash,wash,NN,wash
10086350JAM,33,25,List 100,blowgun,2986,-,-,20595,3851,19119,use,use,use,NN,use
10086350JAM,33,25,List 100,blowgun,2986,-,-,20595,3851,19119,buy,buy,buy,VBP,buy
10086350JAM,33,25,List 100,blowgun,2986,-,-,20595,3851,19119,sell,sell,sell,NN,sell
10086350JAM,33,25,List 100,blowgun,2986,-,-,20595,3851,19119,draw,draw,draw,NN,draw
10086350JAM,34,25,List 100,pulley,2974,-,-,31049,2596,24849,use,use,use,NN,use
10086350JAM,34,25,List 100,pulley,2974,-,-,31049,2596,24849,set,set,set,VBN,set
10086350JAM,34,25,List 100,pulley,2974,-,-,31049,2596,24849,remove,remove,remove,VB,remove
10086350JAM,34,25,List 100,pulley,2974,-,-,31049,2596,24849,adjust,adjust,adjust,JJ,adjust
10086350JAM,34,25,List 100,pulley,2974,-,-,31049,2596,24849,observe,observe,observe,NN,observe
10086350JAM,35,25,List 100,trampoline,2995,-,-,36766,2362,32621,jump,jump,jump,NN,jump
10086350JAM,35,25,List 100,trampoline,2995,-,-,36766,2362,32621,sit,sit,sit,NN,sit
10086350JAM,35,25,List 100,trampoline,2995,-,-,36766,2362,32621,lay,lay,lie,VBD,lay
10086350JAM,35,25,List 100,trampoline,2995,-,-,36766,2362,32621,play,play,play,NN,play
10086350JAM,35,25,List 100,trampoline,2995,-,-,36766,2362,32621,stand,stand,stand,NN,stand
10086350JAM,35,25,List 100,trampoline,2995,-,-,36766,2362,32621,enjoy,enjoy,enjoy,NN,enjoy
10086350JAM,35,25,List 100,trampoline,2995,-,-,36766,2362,32621,use,use,use,VBP,use
10086350JAM,35,25,List 100,trampoline,2995,-,-,36766,2362,32621,buy,buy,buy,NN,buy
10086350JAM,35,25,List 100,trampoline,2995,-,-,36766,2362,32621,sell,sell,sell,NN,sell
10086350JAM,35,25,List 100,trampoline,2995,-,-,36766,2362,32621,desire,desire,desire,NN,desire
10086350JAM,36,25,List 100,limb,2983,-,-,63535,4141,53285,break,break,break,NN,break
10086350JAM,36,25,List 100,limb,2983,-,-,63535,4141,53285,wash,wash,wash,NN,wash
10086350JAM,36,25,List 100,limb,2983,-,-,63535,4141,53285,hold,hold,hold,VBP,hold
10086350JAM,36,25,List 100,limb,2983,-,-,63535,4141,53285,support,support,support,NN,support
10086350JAM,36,25,List 100,limb,2983,-,-,63535,4141,53285,hit,hit,hit,VBD,hit
10086350JAM,36,25,List 100,limb,2983,-,-,63535,4141,53285,hurt,hurt,hurt,VBN,hurt
10086350JAM,36,25,List 100,limb,2983,-,-,63535,4141,53285,burn,burn,burn,JJ,burn
10086350JAM,37,25,List 100,brow,2999,-,-,48527,2412,46646,draw,draw,draw,JJ,draw
10086350JAM,37,25,List 100,brow,2999,-,-,48527,2412,46646,scratch,scratch,scratch,NN,scratch
10086350JAM,37,25,List 100,brow,2999,-,-,48527,2412,46646,tweeze,tweezers,tweezer,NNS,tweezer
10086350JAM,37,25,List 100,brow,2999,-,-,48527,2412,46646,thread,thread,thread,VBP,thread
10086350JAM,37,25,List 100,brow,2999,-,-,48527,2412,46646,wax,wax,wax,NN,wax
10086350JAM,37,25,List 100,brow,2999,-,-,48527,2412,46646,raise,raise,raise,VB,raise
10086350JAM,37,25,List 100,brow,2999,-,-,48527,2412,46646,lower,lower,low,JJR,lower
10086350JAM,37,25,List 100,brow,2999,-,-,48527,2412,46646,furrow,furrow,furrow,NN,furrow
10086350JAM,37,25,List 100,brow,2999,-,-,48527,2412,46646,dye,dye,dye,NN,dye
10086350JAM,37,25,List 100,brow,2999,-,-,48527,2412,46646,shave,shave,shave,VBP,shave
10086350JAM,37,25,List 100,brow,2999,-,-,48527,2412,46646,grow,grow,grow,NN,grow
10086350JAM,38,25,List 100,marketeer,2990,-,-,24066,4051,22154,know,know,know,VBP,know
10086350JAM,38,25,List 100,marketeer,2990,-,-,24066,4051,22154,become,become,become,VBN,become
10086350JAM,38,25,List 100,marketeer,2990,-,-,24066,4051,22154,meet,meet,meet,JJ,meet
10086350JAM,38,25,List 100,marketeer,2990,-,-,24066,4051,22154,use,use,use,JJ,use
10086350JAM,38,25,List 100,marketeer,2990,-,-,24066,4051,22154,hire,hire,hire,NN,hire
10086350JAM,38,25,List 100,marketeer,2990,-,-,24066,4051,22154,recommend,recommend,recommend,VBP,recommend
10086350JAM,39,25,List 100,hound,2975,-,-,69390,8961,66126,buy,buy,buy,NN,buy
10086350JAM,39,25,List 100,hound,2975,-,-,69390,8961,66126,sell,sell,sell,VBP,sell
10086350JAM,39,25,List 100,hound,2975,-,-,69390,8961,66126,breed,breed,breed,NN,breed
10086350JAM,39,25,List 100,hound,2975,-,-,69390,8961,66126,pet,pet,pet,JJ,pet
10086350JAM,39,25,List 100,hound,2975,-,-,69390,8961,66126,play,play,play,NN,play
10086350JAM,39,25,List 100,hound,2975,-,-,69390,8961,66126,bathe,bathe,bathe,NN,bathe
10086350JAM,39,25,List 100,hound,2975,-,-,69390,8961,66126,hunt,hunt,hunt,NN,hunt
10086350JAM,39,25,List 100,hound,2975,-,-,69390,8961,66126,kill,kill,kill,NNP,kill
10086350JAM,39,25,List 100,hound,2975,-,-,69390,8961,66126,bury,bury,bury,NN,bury
10086350JAM,40,25,List 100,tee,2985,-,-,39863,7033,38756,stick,stick,stick,NN,stick
10086350JAM,40,25,List 100,tee,2985,-,-,39863,7033,38756,grass,grass,grass,NN,grass
10086350JAM,40,25,List 100,tee,2985,-,-,39863,7033,38756,hit,hit,hit,VBD,hit
10086350JAM,40,25,List 100,tee,2985,-,-,39863,7033,38756,knock,knock,knock,NN,knock
10086350JAM,40,25,List 100,tee,2985,-,-,39863,7033,38756,set,set,set,VBN,set
10086350JAM,40,25,List 100,tee,2985,-,-,39863,7033,38756,place,place,place,NN,place
10086350JAM,40,25,List 100,tee,2985,-,-,39863,7033,38756,give,give,give,JJ,give
10086350JAM,40,25,List 100,tee,2985,-,-,39863,7033,38756,take,take,take,NN,take
10086350JAM,40,25,List 100,tee,2985,-,-,39863,7033,38756,use,use,use,NN,use
10088817XD,11,17,List 17,bubble,496,-,-,34169,4360,13846,pop,pop,pop,NN,pop
10088817XD,11,17,List 17,bubble,496,-,-,34169,4360,13846,blow,blow,blow,NN,blow
10088817XD,11,17,List 17,bubble,496,-,-,34169,4360,13846,eat,eat,eat,NN,eat
10088817XD,12,17,List 17,colander,502,-,-,53368,23412,31175,strain,strain,strain,VBP,strain
10088817XD,12,17,List 17,colander,502,-,-,53368,23412,31175,pour,pour,pour,JJ,pour
10088817XD,13,17,List 17,gearbox,488,-,-,70926,60476,68357,increase,increase,increase,NN,increase
10088817XD,13,17,List 17,gearbox,488,-,-,70926,60476,68357,decrease,decrease,decrease,NN,decrease
10088817XD,13,17,List 17,gearbox,488,-,-,70926,60476,68357,break,break,break,NN,break
10088817XD,14,17,List 17,bookseller,484,-,-,30681,3062,26779,sell,sell,sell,VB,sell
10088817XD,14,17,List 17,bookseller,484,-,-,30681,3062,26779,return,return,return,JJ,return
10088817XD,14,17,List 17,bookseller,484,-,-,30681,3062,26779,scan,scan,scan,JJ,scan
10088817XD,14,17,List 17,bookseller,484,-,-,30681,3062,26779,read,read,read,NN,read
10088817XD,14,17,List 17,bookseller,484,-,-,30681,3062,26779,stock,stock,stock,NN,stock
10088817XD,14,17,List 17,bookseller,484,-,-,30681,3062,26779,produce,produce,produce,VBP,produce
10088817XD,15,17,List 17,headphones,487,-,-,64559,4167,63290,break,break,break,JJ,break
10088817XD,15,17,List 17,headphones,487,-,-,64559,4167,63290,play,play,play,NN,play
10088817XD,15,17,List 17,headphones,487,-,-,64559,4167,63290,music,music,music,NN,music
10088817XD,15,17,List 17,headphones,487,-,-,64559,4167,63290,dirty,dirty,dirty,NN,dirty
10088817XD,16,17,List 17,frame,503,-,-,27827,5734,25077,hang,hang,hang,NN,hang
10088817XD,16,17,List 17,frame,503,-,-,27827,5734,25077,break,break,break,NN,break
10088817XD,16,17,List 17,frame,503,-,-,27827,5734,25077,protect,protect,protect,NN,protect
10088817XD,16,17,List 17,frame,503,-,-,27827,5734,25077,broadcast,broadcast,broadcast,NN,broadcast
10088817XD,17,17,List 17,wart,504,-,-,22095,2389,18540,pop,pop,pop,NN,pop
10088817XD,18,17,List 17,handbook,500,-,-,51043,4232,49749,break,break,break,NN,break
10088817XD,18,17,List 17,handbook,500,-,-,51043,4232,49749,give,give,give,JJ,give
10088817XD,18,17,List 17,handbook,500,-,-,51043,4232,49749,information,information,information,NN,information
10088817XD,18,17,List 17,handbook,500,-,-,51043,4232,49749,water,water,water,NN,water
10088817XD,18,17,List 17,handbook,500,-,-,51043,4232,49749,damaged,damaged,damage,VBD,damage
10088817XD,18,17,List 17,handbook,500,-,-,51043,4232,49749,tear,tear,tear,JJ,tear
10088817XD,18,17,List 17,handbook,500,-,-,51043,4232,49749,thrown,thrown,throw,JJ,thrown
10088817XD,18,17,List 17,handbook,500,-,-,51043,4232,49749,drop,drop,drop,NN,drop
10088817XD,18,17,List 17,handbook,500,-,-,51043,4232,49749,ran,ran,run,VBD,run
10088817XD,19,17,List 17,feline,495,-,-,54016,24306,52186,scratch,scratch,scratch,NN,scratch
10088817XD,19,17,List 17,feline,495,-,-,54016,24306,52186,cry,cry,cry,NN,cry
10088817XD,19,17,List 17,feline,495,-,-,54016,24306,52186,fall,fall,fall,NN,fall
10088817XD,19,17,List 17,feline,495,-,-,54016,24306,52186,roll,roll,roll,NN,roll
10088817XD,19,17,List 17,feline,495,-,-,54016,24306,52186,sit,sit,sit,NN,sit
10088817XD,19,17,List 17,feline,495,-,-,54016,24306,52186,hug,hug,hug,NN,hug
10088817XD,19,17,List 17,feline,495,-,-,54016,24306,52186,kiss,kiss,kiss,JJ,kiss
10088817XD,20,17,List 17,kid,497,-,-,273008,92289,147195,baby,baby,baby,NN,baby
10088817XD,20,17,List 17,kid,497,-,-,273008,92289,147195,whoop,whoop,whoop,VBD,whoop
10088817XD,20,17,List 17,kid,497,-,-,273008,92289,147195,feed,feed,fee,JJ,feed
10088817XD,20,17,List 17,kid,497,-,-,273008,92289,147195,take,take,take,NN,take
10088817XD,20,17,List 17,kid,497,-,-,273008,92289,147195,care,care,care,NN,care
10088817XD,20,17,List 17,kid,497,-,-,273008,92289,147195,talk,talk,talk,NN,talk
10088817XD,20,17,List 17,kid,497,-,-,273008,92289,147195,read,read,read,VBD,read
10088817XD,21,17,List 17,drill,486,-,-,27663,9539,18097,screws,screws,screw,NNS,screw
10088817XD,21,17,List 17,drill,486,-,-,27663,9539,18097,building,building,build,VBG,build
10088817XD,22,17,List 17,aftershave,506,-,-,96424,81789,94571,wash,wash,wash,NN,wash
10088817XD,22,17,List 17,aftershave,506,-,-,96424,81789,94571,rinse,rinse,rinse,NN,rinse
10088817XD,22,17,List 17,aftershave,506,-,-,96424,81789,94571,lotion,lotion,lotion,NN,lotion
10088817XD,23,17,List 17,doorknob,509,-,-,34617,3049,13810,twist,twist,twist,NN,twist
10088817XD,23,17,List 17,doorknob,509,-,-,34617,3049,13810,break,break,break,NN,break
10088817XD,23,17,List 17,doorknob,509,-,-,34617,3049,13810,install,install,install,JJ,install
10088817XD,24,17,List 17,memorabilia,491,-,-,108492,81810,107301,sale,sale,sale,NN,sale
10088817XD,24,17,List 17,memorabilia,491,-,-,108492,81810,107301,observe,observe,observe,NN,observe
10088817XD,24,17,List 17,memorabilia,491,-,-,108492,81810,107301,study,study,study,NN,study
10088817XD,24,17,List 17,memorabilia,491,-,-,108492,81810,107301,put,put,put,VBD,put
10088817XD,24,17,List 17,memorabilia,491,-,-,108492,81810,107301,museum,museum,museum,RB,museum
10088817XD,25,17,List 17,mincemeat,505,-,-,46936,12512,46225,eat,eat,eat,NN,eat
10088817XD,25,17,List 17,mincemeat,505,-,-,46936,12512,46225,cook,cook,cook,NN,cook
10088817XD,25,17,List 17,mincemeat,505,-,-,46936,12512,46225,buy,buy,buy,VB,buy
10088817XD,25,17,List 17,mincemeat,505,-,-,46936,12512,46225,sale,sale,sale,NN,sale
10088817XD,25,17,List 17,mincemeat,505,-,-,46936,12512,46225,hunt,hunt,hunt,NN,hunt
10088817XD,26,17,List 17,wastebasket,485,-,-,24771,3816,23111,throw,throw,throw,VB,throw
10088817XD,26,17,List 17,wastebasket,485,-,-,24771,3816,23111,away,away,away,RB,away
10088817XD,26,17,List 17,wastebasket,485,-,-,24771,3816,23111,weigh,weigh,weigh,JJ,weigh
10088817XD,26,17,List 17,wastebasket,485,-,-,24771,3816,23111,note,note,note,NN,note
10088817XD,27,17,List 17,groom,483,-,-,27084,11832,25692,shave,shave,shave,VBP,shave
10088817XD,27,17,List 17,groom,483,-,-,27084,11832,25692,marry,marry,marry,VBN,marry
10088817XD,27,17,List 17,groom,483,-,-,27084,11832,25692,clean,clean,clean,JJ,clean
10088817XD,27,17,List 17,groom,483,-,-,27084,11832,25692,love,love,love,NN,love
10088817XD,28,17,List 17,parka,482,-,-,45225,9844,43943,wear,wear,wear,NN,wear
10088817XD,28,17,List 17,parka,482,-,-,45225,9844,43943,wash,wash,wash,JJ,wash
10088817XD,28,17,List 17,parka,482,-,-,45225,9844,43943,dry,dry,spin-dry,JJ,dry
10088817XD,28,17,List 17,parka,482,-,-,45225,9844,43943,give,give,give,VB,give
10088817XD,28,17,List 17,parka,482,-,-,45225,9844,43943,away,away,away,RP,away
10088817XD,28,17,List 17,parka,482,-,-,45225,9844,43943,keep,keep,keep,VB,keep
10088817XD,28,17,List 17,parka,482,-,-,45225,9844,43943,roll,roll,roll,JJ,roll
10088817XD,28,17,List 17,parka,482,-,-,45225,9844,43943,step,step,step,NN,step
10088817XD,29,17,List 17,jacket,494,-,-,66084,2896,42832,wear,wear,wear,VBP,wear
10088817XD,29,17,List 17,jacket,494,-,-,66084,2896,42832,tear,tear,tear,JJ,tear
10088817XD,29,17,List 17,jacket,494,-,-,66084,2896,42832,wash,wash,wash,NN,wash
10088817XD,29,17,List 17,jacket,494,-,-,66084,2896,42832,grow,grow,grow,NN,grow
10088817XD,29,17,List 17,jacket,494,-,-,66084,2896,42832,pass,pass,pass,NN,pas
10088817XD,30,17,List 17,caddy,490,-,-,52418,25048,46076,store,store,store,NN,store
10088817XD,30,17,List 17,caddy,490,-,-,52418,25048,46076,stuff,stuff,stuff,NN,stuff
10088817XD,30,17,List 17,caddy,490,-,-,52418,25048,46076,spill,spill,spill,NN,spill
10088817XD,30,17,List 17,caddy,490,-,-,52418,25048,46076,stuff,stuff,stuff,NN,stuff
10088817XD,30,17,List 17,caddy,490,-,-,52418,25048,46076,can,can,can,MD,can
10088817XD,30,17,List 17,caddy,490,-,-,52418,25048,46076,break,break,break,VB,break
10088817XD,30,17,List 17,caddy,490,-,-,52418,25048,46076,can,can,can,MD,can
10088817XD,30,17,List 17,caddy,490,-,-,52418,25048,46076,tear,tear,tear,VB,tear
