Username,ID,ExperimentName,Session,Trial,Date,TimeDif,Condition.Number,Stimuli.File,Order.File,Condition.Description,Condition.Notes,Stimuli.Cue,Stimuli.Answer,Stimuli.Shuffle,Stimuli.Stimuli.Notes,Stimuli.Value,Procedure.Item,Procedure.Trial.Type,Procedure.Max.Time,Procedure.Min.Time,Procedure.Text,Procedure.Procedure.Notes,Procedure.Shuffle,Response.RT,Response.Response,Response.Accuracy,Response.RTfirst,Response.RTlast,Response.strictAcc,Response.lenientAcc,Response.focus,Response.JOL,Response.Focus
7551,j5xhbgobzf,Affordance Norms_ILSTU,1,11,2022-09-23T14:11:42+00:00,20.41538596,43,updated stim.csv,Version43.csv,Version 43,List 43,doorbell,NA,1263,5.916666667,822,1264,BOI,-,-,Please name all of the ways you could use this object. Keep in mind that one object can have many uses. Separate your responses with a comma.,NA,y,20122,NA,NA,1528,19988,NA,NA,NA,"rang, changed, ignored",1
7551,j5xhbgobzf,Affordance Norms_ILSTU,1,12,2022-09-23T14:11:50+00:00,7.839711189,43,updated stim.csv,Version43.csv,Version 43,List 43,environment,NA,1277,4.52173913,914,1278,BOI,-,-,Please name all of the ways you could use this object. Keep in mind that one object can have many uses. Separate your responses with a comma.,NA,y,7545,NA,NA,5122,7181,NA,NA,NA,"visit,clean",1
7551,j5xhbgobzf,Affordance Norms_ILSTU,1,13,2022-09-23T14:12:16+00:00,25.49299598,43,updated stim.csv,Version43.csv,Version 43,List 43,vaginal,NA,1271,4.36,2833,1272,BOI,-,-,Please name all of the ways you could use this object. Keep in mind that one object can have many uses. Separate your responses with a comma.,NA,y,25178,NA,NA,17450,21268,NA,NA,NA,,1
7551,j5xhbgobzf,Affordance Norms_ILSTU,1,14,2022-09-23T14:12:24+00:00,7.996451855,43,updated stim.csv,Version43.csv,Version 43,List 43,daughter,NA,1288,5.192307692,760,1289,BOI,-,-,Please name all of the ways you could use this object. Keep in mind that one object can have many uses. Separate your responses with a comma.,NA,y,7712,NA,NA,1600,7248,NA,NA,NA,"raised, grown up",1
7551,j5xhbgobzf,Affordance Norms_ILSTU,1,15,2022-09-23T14:12:29+00:00,4.819739103,43,updated stim.csv,Version43.csv,Version 43,List 43,marijuana,NA,1284,6.04,1606,1285,BOI,-,-,Please name all of the ways you could use this object. Keep in mind that one object can have many uses. Separate your responses with a comma.,NA,y,4529,NA,NA,1459,4311,NA,NA,NA,"smoked, grown ",1
7551,j5xhbgobzf,Affordance Norms_ILSTU,1,16,2022-09-23T14:12:38+00:00,9.351290941,43,updated stim.csv,Version43.csv,Version 43,List 43,ledge,NA,1267,4.541666667,1482,1268,BOI,-,-,Please name all of the ways you could use this object. Keep in mind that one object can have many uses. Separate your responses with a comma.,NA,y,9046,NA,NA,4293,8932,NA,NA,NA,"see views, fall off",1
7551,j5xhbgobzf,Affordance Norms_ILSTU,1,17,2022-09-23T14:12:43+00:00,4.819283009,43,updated stim.csv,Version43.csv,Version 43,List 43,bathroom,NA,1264,6,169,1265,BOI,-,-,Please name all of the ways you could use this object. Keep in mind that one object can have many uses. Separate your responses with a comma.,NA,y,4527,NA,NA,1119,3378,NA,NA,NA,"use, clean, ",1
7551,j5xhbgobzf,Affordance Norms_ILSTU,1,18,2022-09-23T14:12:49+00:00,6.096439123,43,updated stim.csv,Version43.csv,Version 43,List 43,waiter,NA,1278,4.48,2883,1279,BOI,-,-,Please name all of the ways you could use this object. Keep in mind that one object can have many uses. Separate your responses with a comma.,NA,y,5805,NA,NA,2323,5607,NA,NA,NA,"served, talked to ",1
7551,j5xhbgobzf,Affordance Norms_ILSTU,1,19,2022-09-23T14:12:56+00:00,7.424542904,43,updated stim.csv,Version43.csv,Version 43,List 43,granny,NA,1265,5.083333333,1155,1266,BOI,-,-,Please name all of the ways you could use this object. Keep in mind that one object can have many uses. Separate your responses with a comma.,NA,y,7133,NA,NA,2983,6968,NA,NA,NA,"cookies, food, love",1
7551,j5xhbgobzf,Affordance Norms_ILSTU,1,20,2022-09-23T14:13:04+00:00,7.94452405,43,updated stim.csv,Version43.csv,Version 43,List 43,sink,NA,1287,5.48,2385,1288,BOI,-,-,Please name all of the ways you could use this object. Keep in mind that one object can have many uses. Separate your responses with a comma.,NA,y,7629,NA,NA,1355,6792,NA,NA,NA,"wash dishes, wash hands, ",1
7551,j5xhbgobzf,Affordance Norms_ILSTU,1,21,2022-09-23T14:13:10+00:00,6.183477879,43,updated stim.csv,Version43.csv,Version 43,List 43,suspenders,NA,1274,5.24,2599,1275,BOI,-,-,Please name all of the ways you could use this object. Keep in mind that one object can have many uses. Separate your responses with a comma.,NA,y,5889,NA,NA,1806,5711,NA,NA,NA,worn as an outfit ,1
7551,j5xhbgobzf,Affordance Norms_ILSTU,1,22,2022-09-23T14:13:18+00:00,8.018105984,43,updated stim.csv,Version43.csv,Version 43,List 43,bin,NA,1286,5.260869565,217,1287,BOI,-,-,Please name all of the ways you could use this object. Keep in mind that one object can have many uses. Separate your responses with a comma.,NA,y,7722,NA,NA,1430,7357,NA,NA,NA,"throw out trash, carry items ",1
7551,j5xhbgobzf,Affordance Norms_ILSTU,1,23,2022-09-23T14:13:42+00:00,23.26857519,43,updated stim.csv,Version43.csv,Version 43,List 43,penny,NA,1275,6.448275862,1917,1276,BOI,-,-,Please name all of the ways you could use this object. Keep in mind that one object can have many uses. Separate your responses with a comma.,NA,y,22961,NA,NA,2196,22784,NA,NA,NA,"collect, use for payment ",1
7551,j5xhbgobzf,Affordance Norms_ILSTU,1,24,2022-09-23T14:13:48+00:00,6.293507814,43,updated stim.csv,Version43.csv,Version 43,List 43,footbath,NA,1276,5.090909091,1032,1277,BOI,-,-,Please name all of the ways you could use this object. Keep in mind that one object can have many uses. Separate your responses with a comma.,NA,y,6002,NA,NA,3578,5691,NA,NA,NA,put feet in ,1
7551,j5xhbgobzf,Affordance Norms_ILSTU,1,25,2022-09-23T14:13:50+00:00,2.122867107,43,updated stim.csv,Version43.csv,Version 43,List 43,minister,NA,1280,4.84,1663,1281,BOI,-,-,Please name all of the ways you could use this object. Keep in mind that one object can have many uses. Separate your responses with a comma.,NA,y,1939,NA,NA,-1,-1,NA,NA,NA,,1
7551,j5xhbgobzf,Affordance Norms_ILSTU,1,26,2022-09-23T14:13:51+00:00,1.300113916,43,updated stim.csv,Version43.csv,Version 43,List 43,bunkhouse,NA,1273,4.625,361,1274,BOI,-,-,Please name all of the ways you could use this object. Keep in mind that one object can have many uses. Separate your responses with a comma.,NA,y,1125,NA,NA,-1,-1,NA,NA,NA,,1
7551,j5xhbgobzf,Affordance Norms_ILSTU,1,27,2022-09-23T14:13:54+00:00,2.356428146,43,updated stim.csv,Version43.csv,Version 43,List 43,motorist,NA,1270,5.12,1698,1271,BOI,-,-,Please name all of the ways you could use this object. Keep in mind that one object can have many uses. Separate your responses with a comma.,NA,y,2182,NA,NA,-1,-1,NA,NA,NA,,1
7551,j5xhbgobzf,Affordance Norms_ILSTU,1,28,2022-09-23T14:14:55+00:00,61.5002048,43,updated stim.csv,Version43.csv,Version 43,List 43,boulder,NA,1266,4.958333333,288,1267,BOI,-,-,Please name all of the ways you could use this object. Keep in mind that one object can have many uses. Separate your responses with a comma.,NA,y,61205,NA,NA,57310,60967,NA,NA,NA,push,1
7551,j5xhbgobzf,Affordance Norms_ILSTU,1,29,2022-09-23T14:15:00+00:00,5.083756208,43,updated stim.csv,Version43.csv,Version 43,List 43,path,NA,1261,4.37037037,1887,1262,BOI,-,-,Please name all of the ways you could use this object. Keep in mind that one object can have many uses. Separate your responses with a comma.,NA,y,4778,NA,NA,2543,4340,NA,NA,NA,"walk on, ",1
7551,j5xhbgobzf,Affordance Norms_ILSTU,1,30,2022-09-23T14:15:08+00:00,7.335342884,43,updated stim.csv,Version43.csv,Version 43,List 43,maid,NA,1283,4.458333333,1574,1284,BOI,-,-,Please name all of the ways you could use this object. Keep in mind that one object can have many uses. Separate your responses with a comma.,NA,y,6729,NA,NA,3709,5417,NA,NA,NA,"clean, cook,",1
7551,j5xhbgobzf,Affordance Norms_ILSTU,1,31,2022-09-23T14:15:09+00:00,1.708864927,43,updated stim.csv,Version43.csv,Version 43,List 43,bangle,NA,1289,5.115384615,139,1290,BOI,-,-,Please name all of the ways you could use this object. Keep in mind that one object can have many uses. Separate your responses with a comma.,NA,y,1164,NA,NA,-1,-1,NA,NA,NA,,1
7551,j5xhbgobzf,Affordance Norms_ILSTU,1,32,2022-09-23T14:15:13+00:00,4.00475502,43,updated stim.csv,Version43.csv,Version 43,List 43,sling,NA,1285,4.909090909,2413,1286,BOI,-,-,Please name all of the ways you could use this object. Keep in mind that one object can have many uses. Separate your responses with a comma.,NA,y,3689,NA,NA,2306,3415,NA,NA,NA,hold arm ,1
7551,j5xhbgobzf,Affordance Norms_ILSTU,1,33,2022-09-23T14:15:17+00:00,4.058573961,43,updated stim.csv,Version43.csv,Version 43,List 43,fountainhead,NA,1272,4.523809524,1051,1273,BOI,-,-,Please name all of the ways you could use this object. Keep in mind that one object can have many uses. Separate your responses with a comma.,NA,y,3880,NA,NA,1520,3676,NA,NA,NA,drink water out of ,1
7551,j5xhbgobzf,Affordance Norms_ILSTU,1,34,2022-09-23T14:15:23+00:00,5.576528072,43,updated stim.csv,Version43.csv,Version 43,List 43,crowbar,NA,1268,6.25,710,1269,BOI,-,-,Please name all of the ways you could use this object. Keep in mind that one object can have many uses. Separate your responses with a comma.,NA,y,5296,NA,NA,2854,5167,NA,NA,NA,open things,1
7551,j5xhbgobzf,Affordance Norms_ILSTU,1,35,2022-09-23T14:15:26+00:00,2.989375114,43,updated stim.csv,Version43.csv,Version 43,List 43,holster,NA,1279,4.68,1298,1280,BOI,-,-,Please name all of the ways you could use this object. Keep in mind that one object can have many uses. Separate your responses with a comma.,NA,y,2806,NA,NA,-1,-1,NA,NA,NA,,1
7551,j5xhbgobzf,Affordance Norms_ILSTU,1,36,2022-09-23T14:15:36+00:00,10.119807,43,updated stim.csv,Version43.csv,Version 43,List 43,gauze,NA,1269,5.88,1088,1270,BOI,-,-,Please name all of the ways you could use this object. Keep in mind that one object can have many uses. Separate your responses with a comma.,NA,y,9807,NA,NA,8130,9615,NA,NA,NA,tighten wound ,1
7551,j5xhbgobzf,Affordance Norms_ILSTU,1,37,2022-09-23T14:15:45+00:00,9.337278843,43,updated stim.csv,Version43.csv,Version 43,List 43,chrysanthemum,NA,1262,5.727272727,540,1263,BOI,-,-,Please name all of the ways you could use this object. Keep in mind that one object can have many uses. Separate your responses with a comma.,NA,y,9033,NA,NA,2763,8776,NA,NA,NA,grow ,1
7551,j5xhbgobzf,Affordance Norms_ILSTU,1,38,2022-09-23T14:15:51+00:00,5.426532984,43,updated stim.csv,Version43.csv,Version 43,List 43,puke,NA,1290,4.5,2091,1291,BOI,-,-,Please name all of the ways you could use this object. Keep in mind that one object can have many uses. Separate your responses with a comma.,NA,y,5137,NA,NA,3626,4978,NA,NA,NA,nothing,1
7551,j5xhbgobzf,Affordance Norms_ILSTU,1,39,2022-09-23T14:15:55+00:00,3.928668976,43,updated stim.csv,Version43.csv,Version 43,List 43,axe,NA,1281,6.153846154,106,1282,BOI,-,-,Please name all of the ways you could use this object. Keep in mind that one object can have many uses. Separate your responses with a comma.,NA,y,3737,NA,NA,2150,3188,NA,NA,NA,chop wood ,1
7551,j5xhbgobzf,Affordance Norms_ILSTU,1,40,2022-09-23T14:15:57+00:00,2.652089119,43,updated stim.csv,Version43.csv,Version 43,List 43,prosthesis,NA,1282,4.689655172,2079,1283,BOI,-,-,Please name all of the ways you could use this object. Keep in mind that one object can have many uses. Separate your responses with a comma.,NA,y,2467,NA,NA,-1,-1,NA,NA,NA,,1
AC6629,tjzjqi2cc0,Affordance Norms_ILSTU,1,11,2022-09-22T18:13:07+00:00,25.05706382,26,updated stim.csv,Version26.csv,Version 26,List 26,sauce,NA,754,5.130434783,2247,755,BOI,-,-,Please name all of the ways you could use this object. Keep in mind that one object can have many uses. Separate your responses with a comma.,NA,y,24467,NA,NA,7372,22453,NA,NA,NA,"in pasta, on pizza, on burgers, ",1
AC6629,tjzjqi2cc0,Affordance Norms_ILSTU,1,12,2022-09-22T18:13:25+00:00,17.45382118,26,updated stim.csv,Version26.csv,Version 26,List 26,caretaker,NA,770,5.071428571,433,771,BOI,-,-,Please name all of the ways you could use this object. Keep in mind that one object can have many uses. Separate your responses with a comma.,NA,y,17232,NA,NA,2502,13653,NA,NA,NA,"for the elderly, for someone who is sick, ",1
AC6629,tjzjqi2cc0,Affordance Norms_ILSTU,1,13,2022-09-22T18:13:35+00:00,10.20766497,26,updated stim.csv,Version26.csv,Version 26,List 26,crepe,NA,756,5.416666667,692,757,BOI,-,-,Please name all of the ways you could use this object. Keep in mind that one object can have many uses. Separate your responses with a comma.,NA,y,9813,NA,NA,3716,8523,NA,NA,NA,"eat, breakfast, ",0.98
AC6629,tjzjqi2cc0,Affordance Norms_ILSTU,1,14,2022-09-22T18:14:02+00:00,27.61230302,26,updated stim.csv,Version26.csv,Version 26,List 26,mat,NA,772,5.814814815,1619,773,BOI,-,-,Please name all of the ways you could use this object. Keep in mind that one object can have many uses. Separate your responses with a comma.,NA,y,26826,NA,NA,1578,25862,NA,NA,NA,"doormat, to not dirty the floor, bathmat to not get the floor wet",1
AC6629,tjzjqi2cc0,Affordance Norms_ILSTU,1,15,2022-09-22T18:14:16+00:00,13.73353696,26,updated stim.csv,Version26.csv,Version 26,List 26,pal,NA,765,4.333333333,1852,766,BOI,-,-,Please name all of the ways you could use this object. Keep in mind that one object can have many uses. Separate your responses with a comma.,NA,y,13034,NA,NA,1764,11175,NA,NA,NA,"friend, keep close to you, hang out with",1
AC6629,tjzjqi2cc0,Affordance Norms_ILSTU,1,16,2022-09-22T18:14:30+00:00,13.6747849,26,updated stim.csv,Version26.csv,Version 26,List 26,citrus,NA,762,4.6,544,763,BOI,-,-,Please name all of the ways you could use this object. Keep in mind that one object can have many uses. Separate your responses with a comma.,NA,y,12536,NA,NA,1988,11842,NA,NA,NA,"juice, flavoring, in fruit",1
AC6629,tjzjqi2cc0,Affordance Norms_ILSTU,1,17,2022-09-22T18:14:56+00:00,25.68756008,26,updated stim.csv,Version26.csv,Version 26,List 26,poster,NA,764,5.583333333,2043,765,BOI,-,-,Please name all of the ways you could use this object. Keep in mind that one object can have many uses. Separate your responses with a comma.,NA,y,25193,NA,NA,1502,24249,NA,NA,NA,"hang up on wall, create for money, create for enjoyment, collect",1
AC6629,tjzjqi2cc0,Affordance Norms_ILSTU,1,18,2022-09-22T18:15:10+00:00,14.80063701,26,updated stim.csv,Version26.csv,Version 26,List 26,marble,NA,776,5.48,1602,777,BOI,-,-,Please name all of the ways you could use this object. Keep in mind that one object can have many uses. Separate your responses with a comma.,NA,y,14491,NA,NA,5160,14198,NA,NA,NA,"decoration, use as a toy",1
AC6629,tjzjqi2cc0,Affordance Norms_ILSTU,1,19,2022-09-22T18:15:20+00:00,9.716741085,26,updated stim.csv,Version26.csv,Version 26,List 26,slug,NA,751,4.434782609,2418,752,BOI,-,-,Please name all of the ways you could use this object. Keep in mind that one object can have many uses. Separate your responses with a comma.,NA,y,8888,NA,NA,3375,7018,NA,NA,NA,"roam around, ",1
AC6629,tjzjqi2cc0,Affordance Norms_ILSTU,1,20,2022-09-22T18:15:45+00:00,25.00587082,26,updated stim.csv,Version26.csv,Version 26,List 26,mistletoe,NA,774,4.592592593,1668,775,BOI,-,-,Please name all of the ways you could use this object. Keep in mind that one object can have many uses. Separate your responses with a comma.,NA,y,23759,NA,NA,1577,21839,NA,NA,NA,"kiss under it, take pictures under it, use as decoration ",1
AC6629,tjzjqi2cc0,Affordance Norms_ILSTU,1,21,2022-09-22T18:16:03+00:00,18.12821007,26,updated stim.csv,Version26.csv,Version 26,List 26,powder,NA,758,5.416666667,2054,759,BOI,-,-,Please name all of the ways you could use this object. Keep in mind that one object can have many uses. Separate your responses with a comma.,NA,y,17807,NA,NA,2490,13755,NA,NA,NA,"as sugar, as gun powder, makeup, ",1
AC6629,tjzjqi2cc0,Affordance Norms_ILSTU,1,22,2022-09-22T18:16:11+00:00,7.731334925,26,updated stim.csv,Version26.csv,Version 26,List 26,merchantman,NA,773,4.5,1649,774,BOI,-,-,Please name all of the ways you could use this object. Keep in mind that one object can have many uses. Separate your responses with a comma.,NA,y,7465,NA,NA,4624,7118,NA,NA,NA,ring items up,1
AC6629,tjzjqi2cc0,Affordance Norms_ILSTU,1,23,2022-09-22T18:16:15+00:00,4.248548031,26,updated stim.csv,Version26.csv,Version 26,List 26,steelworker,NA,778,4.44,2518,779,BOI,-,-,Please name all of the ways you could use this object. Keep in mind that one object can have many uses. Separate your responses with a comma.,NA,y,4041,NA,NA,1997,3770,NA,NA,NA,make things,1
AC6629,tjzjqi2cc0,Affordance Norms_ILSTU,1,24,2022-09-22T18:16:30+00:00,14.66284513,26,updated stim.csv,Version26.csv,Version 26,List 26,hatchet,NA,779,5.791666667,1261,780,BOI,-,-,Please name all of the ways you could use this object. Keep in mind that one object can have many uses. Separate your responses with a comma.,NA,y,14177,NA,NA,2340,13922,NA,NA,NA,"bury something, break into something",1
AC6629,tjzjqi2cc0,Affordance Norms_ILSTU,1,25,2022-09-22T18:16:44+00:00,14.613024,26,updated stim.csv,Version26.csv,Version 26,List 26,beverage,NA,771,6.208333333,206,772,BOI,-,-,Please name all of the ways you could use this object. Keep in mind that one object can have many uses. Separate your responses with a comma.,NA,y,14386,NA,NA,1197,13716,NA,NA,NA,"drink, throw, taste",1
AC6629,tjzjqi2cc0,Affordance Norms_ILSTU,1,26,2022-09-22T18:17:04+00:00,19.72593188,26,updated stim.csv,Version26.csv,Version 26,List 26,tracksuit,NA,766,5.653846154,2752,767,BOI,-,-,Please name all of the ways you could use this object. Keep in mind that one object can have many uses. Separate your responses with a comma.,NA,y,19518,NA,NA,3672,18871,NA,NA,NA,"for running, for fashion, for pictures, for warmth",1
AC6629,tjzjqi2cc0,Affordance Norms_ILSTU,1,27,2022-09-22T18:17:08+00:00,4.113957167,26,updated stim.csv,Version26.csv,Version 26,List 26,revolver,NA,775,5.555555556,2161,776,BOI,-,-,Please name all of the ways you could use this object. Keep in mind that one object can have many uses. Separate your responses with a comma.,NA,y,3758,NA,NA,2251,3432,NA,NA,NA,not sure,1
AC6629,tjzjqi2cc0,Affordance Norms_ILSTU,1,28,2022-09-22T18:17:15+00:00,6.792263985,26,updated stim.csv,Version26.csv,Version 26,List 26,pincushion,NA,757,5.260869565,1969,758,BOI,-,-,Please name all of the ways you could use this object. Keep in mind that one object can have many uses. Separate your responses with a comma.,NA,y,6571,NA,NA,3412,5967,NA,NA,NA,to pin something,1
AC6629,tjzjqi2cc0,Affordance Norms_ILSTU,1,29,2022-09-22T18:17:50+00:00,35.21447992,26,updated stim.csv,Version26.csv,Version 26,List 26,head,NA,780,5.48,1263,781,BOI,-,-,Please name all of the ways you could use this object. Keep in mind that one object can have many uses. Separate your responses with a comma.,NA,y,34692,NA,NA,19775,27712,NA,NA,NA,"think, do hair, ",1
AC6629,tjzjqi2cc0,Affordance Norms_ILSTU,1,30,2022-09-22T18:18:05+00:00,14.88122988,26,updated stim.csv,Version26.csv,Version 26,List 26,snot,NA,761,5.32,2429,762,BOI,-,-,Please name all of the ways you could use this object. Keep in mind that one object can have many uses. Separate your responses with a comma.,NA,y,14341,NA,NA,3937,13836,NA,NA,NA,puts tissues to use,1
AC6629,tjzjqi2cc0,Affordance Norms_ILSTU,1,31,2022-09-22T18:18:11+00:00,5.563731194,26,updated stim.csv,Version26.csv,Version 26,List 26,thumbscrew,NA,760,5.173913043,2689,761,BOI,-,-,Please name all of the ways you could use this object. Keep in mind that one object can have many uses. Separate your responses with a comma.,NA,y,5107,NA,NA,2753,4904,NA,NA,NA,not sure,1
AC6629,tjzjqi2cc0,Affordance Norms_ILSTU,1,32,2022-09-22T18:18:20+00:00,8.928849936,26,updated stim.csv,Version26.csv,Version 26,List 26,magazine,NA,752,6.166666667,1569,753,BOI,-,-,Please name all of the ways you could use this object. Keep in mind that one object can have many uses. Separate your responses with a comma.,NA,y,8317,NA,NA,1385,7557,NA,NA,NA,"read, enjoy, sell",1
AC6629,tjzjqi2cc0,Affordance Norms_ILSTU,1,33,2022-09-22T18:18:32+00:00,12.53706694,26,updated stim.csv,Version26.csv,Version 26,List 26,insect,NA,777,5.125,1357,778,BOI,-,-,Please name all of the ways you could use this object. Keep in mind that one object can have many uses. Separate your responses with a comma.,NA,y,12322,NA,NA,2853,11429,NA,NA,NA,"walk around, take picture",1
AC6629,tjzjqi2cc0,Affordance Norms_ILSTU,1,34,2022-09-22T18:18:44+00:00,12.16911697,26,updated stim.csv,Version26.csv,Version 26,List 26,weapon,NA,763,5.52173913,2914,764,BOI,-,-,Please name all of the ways you could use this object. Keep in mind that one object can have many uses. Separate your responses with a comma.,NA,y,11884,NA,NA,2814,11471,NA,NA,NA,"cause harm, protection, opening a box",1
AC6629,tjzjqi2cc0,Affordance Norms_ILSTU,1,35,2022-09-22T18:19:07+00:00,23.10930014,26,updated stim.csv,Version26.csv,Version 26,List 26,wallet,NA,768,6.136363636,2888,769,BOI,-,-,Please name all of the ways you could use this object. Keep in mind that one object can have many uses. Separate your responses with a comma.,NA,y,22793,NA,NA,1404,22361,NA,NA,NA,"store money and license, keep any personal belongings in it",1
AC6629,tjzjqi2cc0,Affordance Norms_ILSTU,1,36,2022-09-22T18:19:26+00:00,18.214077,26,updated stim.csv,Version26.csv,Version 26,List 26,roast,NA,759,4.821428571,2179,760,BOI,-,-,Please name all of the ways you could use this object. Keep in mind that one object can have many uses. Separate your responses with a comma.,NA,y,17855,NA,NA,2897,17599,NA,NA,NA,"marshmallows, any food, ",1
AC6629,tjzjqi2cc0,Affordance Norms_ILSTU,1,37,2022-09-22T18:19:29+00:00,3.730875969,26,updated stim.csv,Version26.csv,Version 26,List 26,paratrooper,NA,767,4.291666667,1872,768,BOI,-,-,Please name all of the ways you could use this object. Keep in mind that one object can have many uses. Separate your responses with a comma.,NA,y,3059,NA,NA,1825,2847,NA,NA,NA,not sure,1
AC6629,tjzjqi2cc0,Affordance Norms_ILSTU,1,38,2022-09-22T18:19:39+00:00,9.135397911,26,updated stim.csv,Version26.csv,Version 26,List 26,lamb,NA,769,4.444444444,1453,770,BOI,-,-,Please name all of the ways you could use this object. Keep in mind that one object can have many uses. Separate your responses with a comma.,NA,y,8867,NA,NA,3776,7679,NA,NA,NA,"food, ",1
AC6629,tjzjqi2cc0,Affordance Norms_ILSTU,1,39,2022-09-22T18:19:42+00:00,3.354063988,26,updated stim.csv,Version26.csv,Version 26,List 26,rucksack,NA,755,5.041666667,2203,756,BOI,-,-,Please name all of the ways you could use this object. Keep in mind that one object can have many uses. Separate your responses with a comma.,NA,y,3163,NA,NA,1649,2829,NA,NA,NA,not sure,1
AC6629,tjzjqi2cc0,Affordance Norms_ILSTU,1,40,2022-09-22T18:20:12+00:00,30.29003501,26,updated stim.csv,Version26.csv,Version 26,List 26,prisoner,NA,753,4.307692308,2067,754,BOI,-,-,Please name all of the ways you could use this object. Keep in mind that one object can have many uses. Separate your responses with a comma.,NA,y,29702,NA,NA,5558,29149,NA,NA,NA,"tax dollars, way to obtain info",1
ac9377,cs19g78fk0,Affordance Norms_ILSTU,1,11,2022-09-23T18:44:34+00:00,13.10659003,47,updated stim.csv,Version47.csv,Version 47,List 47,sled,NA,1392,6.086956522,2406,1393,BOI,-,-,Please name all of the ways you could use this object. Keep in mind that one object can have many uses. Separate your responses with a comma.,NA,y,12889,NA,NA,1805,9936,NA,NA,NA,"snow, drag things",1
ac9377,cs19g78fk0,Affordance Norms_ILSTU,1,12,2022-09-23T18:44:46+00:00,12.03205204,47,updated stim.csv,Version47.csv,Version 47,List 47,chest,NA,1403,5.851851852,513,1404,BOI,-,-,Please name all of the ways you could use this object. Keep in mind that one object can have many uses. Separate your responses with a comma.,NA,y,11822,NA,NA,2318,10736,NA,NA,NA,"push ups, lay",1
ac9377,cs19g78fk0,Affordance Norms_ILSTU,1,13,2022-09-23T18:44:54+00:00,7.73340106,47,updated stim.csv,Version47.csv,Version 47,List 47,stream,NA,1391,4.678571429,2562,1392,BOI,-,-,Please name all of the ways you could use this object. Keep in mind that one object can have many uses. Separate your responses with a comma.,NA,y,7520,NA,NA,4963,6347,NA,NA,NA,water,1
ac9377,cs19g78fk0,Affordance Norms_ILSTU,1,14,2022-09-23T18:45:04+00:00,9.665679932,47,updated stim.csv,Version47.csv,Version 47,List 47,harpsichord,NA,1386,4.904761905,1255,1387,BOI,-,-,Please name all of the ways you could use this object. Keep in mind that one object can have many uses. Separate your responses with a comma.,NA,y,9441,NA,NA,3175,8517,NA,NA,NA,not sure what that is,1
ac9377,cs19g78fk0,Affordance Norms_ILSTU,1,15,2022-09-23T18:45:23+00:00,19.25475001,47,updated stim.csv,Version47.csv,Version 47,List 47,handkerchief,NA,1410,5.72,1238,1411,BOI,-,-,Please name all of the ways you could use this object. Keep in mind that one object can have many uses. Separate your responses with a comma.,NA,y,19046,NA,NA,3282,18212,NA,NA,NA,"blow your nose, wipe your hands",1
ac9377,cs19g78fk0,Affordance Norms_ILSTU,1,16,2022-09-23T18:45:29+00:00,5.63310504,47,updated stim.csv,Version47.csv,Version 47,List 47,headrest,NA,1395,5.346153846,1271,1396,BOI,-,-,Please name all of the ways you could use this object. Keep in mind that one object can have many uses. Separate your responses with a comma.,NA,y,5412,NA,NA,2516,4332,NA,NA,NA,lay down,1
ac9377,cs19g78fk0,Affordance Norms_ILSTU,1,17,2022-09-23T18:45:46+00:00,17.78371286,47,updated stim.csv,Version47.csv,Version 47,List 47,floorboard,NA,1397,5.791666667,1009,1398,BOI,-,-,Please name all of the ways you could use this object. Keep in mind that one object can have many uses. Separate your responses with a comma.,NA,y,17561,NA,NA,11979,16017,NA,NA,NA,"stand on, weapon",1
ac9377,cs19g78fk0,Affordance Norms_ILSTU,1,18,2022-09-23T18:46:19+00:00,32.99670601,47,updated stim.csv,Version47.csv,Version 47,List 47,firstborn,NA,1394,4.518518519,988,1395,BOI,-,-,Please name all of the ways you could use this object. Keep in mind that one object can have many uses. Separate your responses with a comma.,NA,y,32670,NA,NA,29474,31712,NA,NA,NA,baby sitter,1
ac9377,cs19g78fk0,Affordance Norms_ILSTU,1,19,2022-09-23T18:46:27+00:00,7.571807146,47,updated stim.csv,Version47.csv,Version 47,List 47,keepsake,NA,1400,4.75,1403,1401,BOI,-,-,Please name all of the ways you could use this object. Keep in mind that one object can have many uses. Separate your responses with a comma.,NA,y,7356,NA,NA,3925,6626,NA,NA,NA,to remember,1
ac9377,cs19g78fk0,Affordance Norms_ILSTU,1,20,2022-09-23T18:46:41+00:00,14.51333785,47,updated stim.csv,Version47.csv,Version 47,List 47,kit,NA,1404,4.739130435,1424,1405,BOI,-,-,Please name all of the ways you could use this object. Keep in mind that one object can have many uses. Separate your responses with a comma.,NA,y,14301,NA,NA,10857,12351,NA,NA,NA,first aid,1
ac9377,cs19g78fk0,Affordance Norms_ILSTU,1,21,2022-09-23T18:46:47+00:00,5.899857998,47,updated stim.csv,Version47.csv,Version 47,List 47,confetti,NA,1389,4.76,626,1390,BOI,-,-,Please name all of the ways you could use this object. Keep in mind that one object can have many uses. Separate your responses with a comma.,NA,y,5680,NA,NA,1804,3335,NA,NA,NA,party,1
ac9377,cs19g78fk0,Affordance Norms_ILSTU,1,22,2022-09-23T18:47:05+00:00,17.70347619,47,updated stim.csv,Version47.csv,Version 47,List 47,mink,NA,1381,4.904761905,1664,1382,BOI,-,-,Please name all of the ways you could use this object. Keep in mind that one object can have many uses. Separate your responses with a comma.,NA,y,17494,NA,NA,13333,16520,NA,NA,NA,status symbol,1
ac9377,cs19g78fk0,Affordance Norms_ILSTU,1,23,2022-09-23T18:47:30+00:00,24.465168,47,updated stim.csv,Version47.csv,Version 47,List 47,secretary,NA,1405,5.2,2305,1406,BOI,-,-,Please name all of the ways you could use this object. Keep in mind that one object can have many uses. Separate your responses with a comma.,NA,y,24135,NA,NA,9958,12570,NA,NA,NA,to take notes,1
ac9377,cs19g78fk0,Affordance Norms_ILSTU,1,24,2022-09-23T18:47:37+00:00,7.348165989,47,updated stim.csv,Version47.csv,Version 47,List 47,apron,NA,1385,5.96,67,1386,BOI,-,-,Please name all of the ways you could use this object. Keep in mind that one object can have many uses. Separate your responses with a comma.,NA,y,7102,NA,NA,2540,6253,NA,NA,NA,to keep clothes clean,1
ac9377,cs19g78fk0,Affordance Norms_ILSTU,1,25,2022-09-23T18:47:51+00:00,14.14994502,47,updated stim.csv,Version47.csv,Version 47,List 47,newspaper,NA,1406,5.76,1760,1407,BOI,-,-,Please name all of the ways you could use this object. Keep in mind that one object can have many uses. Separate your responses with a comma.,NA,y,13939,NA,NA,1534,13073,NA,NA,NA,"read, learn about the current news",1
ac9377,cs19g78fk0,Affordance Norms_ILSTU,1,26,2022-09-23T18:48:10+00:00,18.95403981,47,updated stim.csv,Version47.csv,Version 47,List 47,pot,NA,1383,6.16,2046,1384,BOI,-,-,Please name all of the ways you could use this object. Keep in mind that one object can have many uses. Separate your responses with a comma.,NA,y,18748,NA,NA,16437,17683,NA,NA,NA,flowers,1
ac9377,cs19g78fk0,Affordance Norms_ILSTU,1,27,2022-09-23T18:48:16+00:00,6.212874174,47,updated stim.csv,Version47.csv,Version 47,List 47,loin,NA,1393,4.391304348,1543,1394,BOI,-,-,Please name all of the ways you could use this object. Keep in mind that one object can have many uses. Separate your responses with a comma.,NA,y,5965,NA,NA,5014,5014,NA,NA,NA,?,1
ac9377,cs19g78fk0,Affordance Norms_ILSTU,1,28,2022-09-23T18:48:23+00:00,6.615525007,47,updated stim.csv,Version47.csv,Version 47,List 47,longbow,NA,1401,5.285714286,1546,1402,BOI,-,-,Please name all of the ways you could use this object. Keep in mind that one object can have many uses. Separate your responses with a comma.,NA,y,6344,NA,NA,4439,5635,NA,NA,NA,to shoot,1
ac9377,cs19g78fk0,Affordance Norms_ILSTU,1,29,2022-09-23T18:48:28+00:00,5.254750967,47,updated stim.csv,Version47.csv,Version 47,List 47,comforter,NA,1409,6.16,607,1410,BOI,-,-,Please name all of the ways you could use this object. Keep in mind that one object can have many uses. Separate your responses with a comma.,NA,y,4873,NA,NA,2108,3981,NA,NA,NA,to sleep with,1
ac9377,cs19g78fk0,Affordance Norms_ILSTU,1,30,2022-09-23T18:48:32+00:00,3.58028698,47,updated stim.csv,Version47.csv,Version 47,List 47,newt,NA,1396,4.391304348,1765,1397,BOI,-,-,Please name all of the ways you could use this object. Keep in mind that one object can have many uses. Separate your responses with a comma.,NA,y,3276,NA,NA,2390,2390,NA,NA,NA,?,1
ac9377,cs19g78fk0,Affordance Norms_ILSTU,1,31,2022-09-23T18:48:43+00:00,11.21654487,47,updated stim.csv,Version47.csv,Version 47,List 47,duckweed,NA,1408,4.4,861,1409,BOI,-,-,Please name all of the ways you could use this object. Keep in mind that one object can have many uses. Separate your responses with a comma.,NA,y,11006,NA,NA,10182,10182,NA,NA,NA,?,1
ac9377,cs19g78fk0,Affordance Norms_ILSTU,1,32,2022-09-23T18:49:09+00:00,26.19650507,47,updated stim.csv,Version47.csv,Version 47,List 47,radiologist,NA,1399,4.913043478,2123,1400,BOI,-,-,Please name all of the ways you could use this object. Keep in mind that one object can have many uses. Separate your responses with a comma.,NA,y,25866,NA,NA,23296,25084,NA,NA,NA,take x rays,0.806
ac9377,cs19g78fk0,Affordance Norms_ILSTU,1,33,2022-09-23T18:49:13+00:00,3.817320108,47,updated stim.csv,Version47.csv,Version 47,List 47,axle,NA,1398,4.904761905,108,1399,BOI,-,-,Please name all of the ways you could use this object. Keep in mind that one object can have many uses. Separate your responses with a comma.,NA,y,3604,NA,NA,1532,1904,NA,NA,NA,car,1
ac9377,cs19g78fk0,Affordance Norms_ILSTU,1,34,2022-09-23T18:49:20+00:00,6.851228952,47,updated stim.csv,Version47.csv,Version 47,List 47,pet,NA,1384,6.214285714,1932,1385,BOI,-,-,Please name all of the ways you could use this object. Keep in mind that one object can have many uses. Separate your responses with a comma.,NA,y,6643,NA,NA,3390,5718,NA,NA,NA,comfort,1
ac9377,cs19g78fk0,Affordance Norms_ILSTU,1,35,2022-09-23T18:49:26+00:00,5.833020926,47,updated stim.csv,Version47.csv,Version 47,List 47,spear,NA,1382,5.208333333,2465,1383,BOI,-,-,Please name all of the ways you could use this object. Keep in mind that one object can have many uses. Separate your responses with a comma.,NA,y,5612,NA,NA,2579,4757,NA,NA,NA,to stab,1
ac9377,cs19g78fk0,Affordance Norms_ILSTU,1,36,2022-09-23T18:49:35+00:00,9.933934927,47,updated stim.csv,Version47.csv,Version 47,List 47,tortoise,NA,1402,4.541666667,2741,1403,BOI,-,-,Please name all of the ways you could use this object. Keep in mind that one object can have many uses. Separate your responses with a comma.,NA,y,9713,NA,NA,8391,8721,NA,NA,NA,pet,1
ac9377,cs19g78fk0,Affordance Norms_ILSTU,1,37,2022-09-23T18:49:39+00:00,3.400863171,47,updated stim.csv,Version47.csv,Version 47,List 47,hamster,NA,1390,5.583333333,1226,1391,BOI,-,-,Please name all of the ways you could use this object. Keep in mind that one object can have many uses. Separate your responses with a comma.,NA,y,3181,NA,NA,2041,2423,NA,NA,NA,pet,1
ac9377,cs19g78fk0,Affordance Norms_ILSTU,1,38,2022-09-23T18:49:43+00:00,3.768968821,47,updated stim.csv,Version47.csv,Version 47,List 47,comb,NA,1387,5.923076923,606,1388,BOI,-,-,Please name all of the ways you could use this object. Keep in mind that one object can have many uses. Separate your responses with a comma.,NA,y,3548,NA,NA,1541,2129,NA,NA,NA,hair,1
ac9377,cs19g78fk0,Affordance Norms_ILSTU,1,39,2022-09-23T18:49:49+00:00,6.407278061,47,updated stim.csv,Version47.csv,Version 47,List 47,animal,NA,1407,5.958333333,41,1408,BOI,-,-,Please name all of the ways you could use this object. Keep in mind that one object can have many uses. Separate your responses with a comma.,NA,y,6189,NA,NA,3948,5187,NA,NA,NA,comfort,1
ac9377,cs19g78fk0,Affordance Norms_ILSTU,1,40,2022-09-23T18:49:58+00:00,9.107490063,47,updated stim.csv,Version47.csv,Version 47,List 47,gate,NA,1388,5.956521739,1085,1389,BOI,-,-,Please name all of the ways you could use this object. Keep in mind that one object can have many uses. Separate your responses with a comma.,NA,y,8893,NA,NA,2408,8187,NA,NA,NA,to keep people in or out,1
AC9772,l9cqvsptm0,Affordance Norms_ILSTU,1,11,2022-09-22T15:16:21+00:00,17.13829184,17,updated stim.csv,Version17.csv,Version 17,List 17,kitten,NA,492,6.4,1428,493,BOI,-,-,Please name all of the ways you could use this object. Keep in mind that one object can have many uses. Separate your responses with a comma.,NA,y,16851,NA,NA,1987,16322,NA,NA,NA,"pet, emotional support, best friend",1
AC9772,l9cqvsptm0,Affordance Norms_ILSTU,1,12,2022-09-22T15:16:33+00:00,11.81630611,17,updated stim.csv,Version17.csv,Version 17,List 17,mincemeat,NA,504,5.083333333,1662,505,BOI,-,-,Please name all of the ways you could use this object. Keep in mind that one object can have many uses. Separate your responses with a comma.,NA,y,11603,NA,NA,10921,11090,NA,NA,NA,eat,0.868
AC9772,l9cqvsptm0,Affordance Norms_ILSTU,1,13,2022-09-22T15:16:51+00:00,18.05179596,17,updated stim.csv,Version17.csv,Version 17,List 17,nutshell,NA,500,4.375,1793,501,BOI,-,-,Please name all of the ways you could use this object. Keep in mind that one object can have many uses. Separate your responses with a comma.,NA,y,17900,NA,NA,2080,17534,NA,NA,NA,"crack, eat, throw away, craft",1
AC9772,l9cqvsptm0,Affordance Norms_ILSTU,1,14,2022-09-22T15:17:05+00:00,13.72418094,17,updated stim.csv,Version17.csv,Version 17,List 17,aftershave,NA,505,5.375,18,506,BOI,-,-,Please name all of the ways you could use this object. Keep in mind that one object can have many uses. Separate your responses with a comma.,NA,y,13574,NA,NA,4649,9600,NA,NA,NA,"crafting, shaving",1
AC9772,l9cqvsptm0,Affordance Norms_ILSTU,1,15,2022-09-22T15:17:22+00:00,17.63409615,17,updated stim.csv,Version17.csv,Version 17,List 17,jacket,NA,493,6.333333333,1370,494,BOI,-,-,Please name all of the ways you could use this object. Keep in mind that one object can have many uses. Separate your responses with a comma.,NA,y,17492,NA,NA,4033,16937,NA,NA,NA,"hold, wear, hang",1
AC9772,l9cqvsptm0,Affordance Norms_ILSTU,1,16,2022-09-22T15:17:30+00:00,8.194330931,17,updated stim.csv,Version17.csv,Version 17,List 17,chapel,NA,497,4.52,494,498,BOI,-,-,Please name all of the ways you could use this object. Keep in mind that one object can have many uses. Separate your responses with a comma.,NA,y,8051,NA,NA,2957,7241,NA,NA,NA,"get married, go to church, pray",1
AC9772,l9cqvsptm0,Affordance Norms_ILSTU,1,17,2022-09-22T15:17:44+00:00,13.77642107,17,updated stim.csv,Version17.csv,Version 17,List 17,fingerboard,NA,506,5.15,978,507,BOI,-,-,Please name all of the ways you could use this object. Keep in mind that one object can have many uses. Separate your responses with a comma.,NA,y,13627,NA,NA,12015,13166,NA,NA,NA,manipulate,1
AC9772,l9cqvsptm0,Affordance Norms_ILSTU,1,18,2022-09-22T15:18:14+00:00,30.03463888,17,updated stim.csv,Version17.csv,Version 17,List 17,gearbox,NA,487,5.041666667,1092,488,BOI,-,-,Please name all of the ways you could use this object. Keep in mind that one object can have many uses. Separate your responses with a comma.,NA,y,29813,NA,NA,16780,28939,NA,NA,NA,"video games, fix",0.955
AC9772,l9cqvsptm0,Affordance Norms_ILSTU,1,19,2022-09-22T15:18:22+00:00,7.900644064,17,updated stim.csv,Version17.csv,Version 17,List 17,washerwoman,NA,510,4.55,2900,511,BOI,-,-,Please name all of the ways you could use this object. Keep in mind that one object can have many uses. Separate your responses with a comma.,NA,y,7747,NA,NA,6564,7226,NA,NA,NA,clean,1
AC9772,l9cqvsptm0,Affordance Norms_ILSTU,1,20,2022-09-22T15:19:03+00:00,40.6779089,17,updated stim.csv,Version17.csv,Version 17,List 17,gingersnap,NA,488,4.703703704,1106,489,BOI,-,-,Please name all of the ways you could use this object. Keep in mind that one object can have many uses. Separate your responses with a comma.,NA,y,40455,NA,NA,16367,39189,NA,NA,NA,eat,0.984
AC9772,l9cqvsptm0,Affordance Norms_ILSTU,1,21,2022-09-22T15:19:47+00:00,44.0782001,17,updated stim.csv,Version17.csv,Version 17,List 17,wastebasket,NA,484,6.217391304,2904,485,BOI,-,-,Please name all of the ways you could use this object. Keep in mind that one object can have many uses. Separate your responses with a comma.,NA,y,43851,NA,NA,33980,36948,NA,NA,NA,"storage, throw away",1
AC9772,l9cqvsptm0,Affordance Norms_ILSTU,1,22,2022-09-22T15:19:57+00:00,10.08200312,17,updated stim.csv,Version17.csv,Version 17,List 17,parka,NA,481,5.875,1876,482,BOI,-,-,Please name all of the ways you could use this object. Keep in mind that one object can have many uses. Separate your responses with a comma.,NA,y,9939,NA,NA,2576,9437,NA,NA,NA,"protect from rain, keep warm",1
AC9772,l9cqvsptm0,Affordance Norms_ILSTU,1,23,2022-09-22T15:20:17+00:00,19.65735292,17,updated stim.csv,Version17.csv,Version 17,List 17,colander,NA,501,6,598,502,BOI,-,-,Please name all of the ways you could use this object. Keep in mind that one object can have many uses. Separate your responses with a comma.,NA,y,19524,NA,NA,9654,12279,NA,NA,NA,strain,0.922
AC9772,l9cqvsptm0,Affordance Norms_ILSTU,1,24,2022-09-22T15:20:28+00:00,11.30210185,17,updated stim.csv,Version17.csv,Version 17,List 17,headphones,NA,486,6.083333333,1269,487,BOI,-,-,Please name all of the ways you could use this object. Keep in mind that one object can have many uses. Separate your responses with a comma.,NA,y,11164,NA,NA,5644,10751,NA,NA,NA,"listen to music, drown out noise",1
AC9772,l9cqvsptm0,Affordance Norms_ILSTU,1,25,2022-09-22T15:20:54+00:00,25.79320502,17,updated stim.csv,Version17.csv,Version 17,List 17,spice,NA,509,5.125,2470,510,BOI,-,-,Please name all of the ways you could use this object. Keep in mind that one object can have many uses. Separate your responses with a comma.,NA,y,25580,NA,NA,6259,25131,NA,NA,NA,"make life interesting, add taste to food",1
AC9772,l9cqvsptm0,Affordance Norms_ILSTU,1,26,2022-09-22T15:21:48+00:00,54.44837213,17,updated stim.csv,Version17.csv,Version 17,List 17,bubble,NA,495,4.64,339,496,BOI,-,-,Please name all of the ways you could use this object. Keep in mind that one object can have many uses. Separate your responses with a comma.,NA,y,54235,NA,NA,41154,41682,NA,NA,NA,play,1
AC9772,l9cqvsptm0,Affordance Norms_ILSTU,1,27,2022-09-22T15:22:28+00:00,39.92793894,17,updated stim.csv,Version17.csv,Version 17,List 17,frame,NA,502,4.956521739,1053,503,BOI,-,-,Please name all of the ways you could use this object. Keep in mind that one object can have many uses. Separate your responses with a comma.,NA,y,39696,NA,NA,27604,34815,NA,NA,NA,hang photos,1
AC9772,l9cqvsptm0,Affordance Norms_ILSTU,1,28,2022-09-22T15:22:55+00:00,27.00694108,17,updated stim.csv,Version17.csv,Version 17,List 17,kid,NA,496,5.68,1414,497,BOI,-,-,Please name all of the ways you could use this object. Keep in mind that one object can have many uses. Separate your responses with a comma.,NA,y,26784,NA,NA,1547,19653,NA,NA,NA,"have fun, go to park",1
AC9772,l9cqvsptm0,Affordance Norms_ILSTU,1,29,2022-09-22T15:23:02+00:00,7.157700062,17,updated stim.csv,Version17.csv,Version 17,List 17,rum,NA,491,5.64,2206,492,BOI,-,-,Please name all of the ways you could use this object. Keep in mind that one object can have many uses. Separate your responses with a comma.,NA,y,7003,NA,NA,2086,5907,NA,NA,NA,"drink, get drunk",1
AC9772,l9cqvsptm0,Affordance Norms_ILSTU,1,30,2022-09-22T15:23:12+00:00,9.512549877,17,updated stim.csv,Version17.csv,Version 17,List 17,doorknob,NA,508,6.518518519,824,509,BOI,-,-,Please name all of the ways you could use this object. Keep in mind that one object can have many uses. Separate your responses with a comma.,NA,y,9369,NA,NA,1512,9045,NA,NA,NA,"open a door, close a door, make noise",1
AC9772,l9cqvsptm0,Affordance Norms_ILSTU,1,31,2022-09-22T15:23:27+00:00,15.15061712,17,updated stim.csv,Version17.csv,Version 17,List 17,drill,NA,485,5.739130435,848,486,BOI,-,-,Please name all of the ways you could use this object. Keep in mind that one object can have many uses. Separate your responses with a comma.,NA,y,14999,NA,NA,5946,14078,NA,NA,NA,"make a hole, screw in a screw",1
AC9772,l9cqvsptm0,Affordance Norms_ILSTU,1,32,2022-09-22T15:23:48+00:00,20.87035084,17,updated stim.csv,Version17.csv,Version 17,List 17,feline,NA,494,5.458333333,959,495,BOI,-,-,Please name all of the ways you could use this object. Keep in mind that one object can have many uses. Separate your responses with a comma.,NA,y,20649,NA,NA,19472,20218,NA,NA,NA,not sure,0.725
AC9772,l9cqvsptm0,Affordance Norms_ILSTU,1,33,2022-09-22T15:23:58+00:00,10.40495896,17,updated stim.csv,Version17.csv,Version 17,List 17,sleigh,NA,507,4.84,2410,508,BOI,-,-,Please name all of the ways you could use this object. Keep in mind that one object can have many uses. Separate your responses with a comma.,NA,y,10257,NA,NA,3302,9736,NA,NA,NA,"go sledding, pretend to be santa",1
AC9772,l9cqvsptm0,Affordance Norms_ILSTU,1,34,2022-09-22T15:24:09+00:00,10.48226905,17,updated stim.csv,Version17.csv,Version 17,List 17,bookseller,NA,483,5,278,484,BOI,-,-,Please name all of the ways you could use this object. Keep in mind that one object can have many uses. Separate your responses with a comma.,NA,y,10336,NA,NA,5445,8738,NA,NA,NA,"buy books, sell books",1
AC9772,l9cqvsptm0,Affordance Norms_ILSTU,1,35,2022-09-22T15:24:19+00:00,10.03784895,17,updated stim.csv,Version17.csv,Version 17,List 17,memorabilia,NA,490,4.434782609,1643,491,BOI,-,-,Please name all of the ways you could use this object. Keep in mind that one object can have many uses. Separate your responses with a comma.,NA,y,9893,NA,NA,2077,9395,NA,NA,NA,"hang on shelf, keep in box, sell for big money",1
AC9772,l9cqvsptm0,Affordance Norms_ILSTU,1,36,2022-09-22T15:24:49+00:00,30.04203701,17,updated stim.csv,Version17.csv,Version 17,List 17,caddy,NA,489,4.913043478,393,490,BOI,-,-,Please name all of the ways you could use this object. Keep in mind that one object can have many uses. Separate your responses with a comma.,NA,y,29814,NA,NA,7297,29429,NA,NA,NA,"get drinks, not have to carry golf bag",1
AC9772,l9cqvsptm0,Affordance Norms_ILSTU,1,37,2022-09-22T15:25:11+00:00,22.211905,17,updated stim.csv,Version17.csv,Version 17,List 17,handbook,NA,499,5.782608696,1231,500,BOI,-,-,Please name all of the ways you could use this object. Keep in mind that one object can have many uses. Separate your responses with a comma.,NA,y,21996,NA,NA,1887,21401,NA,NA,NA,"read, know rules, call teacher out",1
AC9772,l9cqvsptm0,Affordance Norms_ILSTU,1,38,2022-09-22T15:26:14+00:00,62.97942495,17,updated stim.csv,Version17.csv,Version 17,List 17,wart,NA,503,4.56,2894,504,BOI,-,-,Please name all of the ways you could use this object. Keep in mind that one object can have many uses. Separate your responses with a comma.,NA,y,62756,NA,NA,58484,61119,NA,NA,NA,keep people away,1
AC9772,l9cqvsptm0,Affordance Norms_ILSTU,1,39,2022-09-22T15:26:25+00:00,11.40714407,17,updated stim.csv,Version17.csv,Version 17,List 17,leech,NA,498,4.291666667,1484,499,BOI,-,-,Please name all of the ways you could use this object. Keep in mind that one object can have many uses. Separate your responses with a comma.,NA,y,11248,NA,NA,3423,10891,NA,NA,NA,"lose blood, pedicure",1
AC9772,l9cqvsptm0,Affordance Norms_ILSTU,1,40,2022-09-22T15:26:55+00:00,29.28639913,17,updated stim.csv,Version17.csv,Version 17,List 17,groom,NA,482,5,1181,483,BOI,-,-,Please name all of the ways you could use this object. Keep in mind that one object can have many uses. Separate your responses with a comma.,NA,y,29058,NA,NA,5239,28694,NA,NA,NA,"marriage, clean, make animals look cute",1
AF6541,stma9x62ul,Affordance Norms_ILSTU,1,11,2022-09-22T22:08:45+00:00,21.641294,37,updated stim.csv,Version37.csv,Version 37,List 37,gear,NA,1083,4.695652174,1091,1084,BOI,-,-,Please name all of the ways you could use this object. Keep in mind that one object can have many uses. Separate your responses with a comma.,NA,y,21359,NA,NA,4002,17365,NA,NA,NA,"shift, move, turn, slide",1
AF6541,stma9x62ul,Affordance Norms_ILSTU,1,12,2022-09-22T22:08:59+00:00,14.69757509,37,updated stim.csv,Version37.csv,Version 37,List 37,handle,NA,1086,4.958333333,1239,1087,BOI,-,-,Please name all of the ways you could use this object. Keep in mind that one object can have many uses. Separate your responses with a comma.,NA,y,14170,NA,NA,3408,12896,NA,NA,NA,"grab, hold, push, pull, twist",1
AF6541,stma9x62ul,Affordance Norms_ILSTU,1,13,2022-09-22T22:09:15+00:00,15.97385192,37,updated stim.csv,Version37.csv,Version 37,List 37,scorecard,NA,1090,4.875,2279,1091,BOI,-,-,Please name all of the ways you could use this object. Keep in mind that one object can have many uses. Separate your responses with a comma.,NA,y,15695,NA,NA,2196,12768,NA,NA,NA,"tally, keep check, add up",1
AF6541,stma9x62ul,Affordance Norms_ILSTU,1,14,2022-09-22T22:09:48+00:00,32.32470703,37,updated stim.csv,Version37.csv,Version 37,List 37,lotion,NA,1097,6.28,1548,1098,BOI,-,-,Please name all of the ways you could use this object. Keep in mind that one object can have many uses. Separate your responses with a comma.,NA,y,31982,NA,NA,1966,28286,NA,NA,NA,"apply, smear, smell, lift",1
AF6541,stma9x62ul,Affordance Norms_ILSTU,1,15,2022-09-22T22:10:28+00:00,40.15368009,37,updated stim.csv,Version37.csv,Version 37,List 37,mustard,NA,1104,5.8,1727,1105,BOI,-,-,Please name all of the ways you could use this object. Keep in mind that one object can have many uses. Separate your responses with a comma.,NA,y,39677,NA,NA,3245,38255,NA,NA,NA,"apply on sandwiches and hamburger, eat, make food ",1
AF6541,stma9x62ul,Affordance Norms_ILSTU,1,16,2022-09-22T22:10:56+00:00,28.19870901,37,updated stim.csv,Version37.csv,Version 37,List 37,shirttail,NA,1093,5.333333333,2348,1094,BOI,-,-,Please name all of the ways you could use this object. Keep in mind that one object can have many uses. Separate your responses with a comma.,NA,y,27922,NA,NA,11148,16594,NA,NA,NA,"scrunch up, pull down",1
AF6541,stma9x62ul,Affordance Norms_ILSTU,1,17,2022-09-22T22:11:19+00:00,22.99636507,37,updated stim.csv,Version37.csv,Version 37,List 37,toffee,NA,1091,5.608695652,2716,1092,BOI,-,-,Please name all of the ways you could use this object. Keep in mind that one object can have many uses. Separate your responses with a comma.,NA,y,22696,NA,NA,21268,21636,NA,NA,NA,mix,1
AF6541,stma9x62ul,Affordance Norms_ILSTU,1,18,2022-09-22T22:11:33+00:00,13.5722878,37,updated stim.csv,Version37.csv,Version 37,List 37,forklift,NA,1094,5.541666667,1048,1095,BOI,-,-,Please name all of the ways you could use this object. Keep in mind that one object can have many uses. Separate your responses with a comma.,NA,y,13273,NA,NA,7789,10882,NA,NA,NA,"lift, carry",1
AF6541,stma9x62ul,Affordance Norms_ILSTU,1,19,2022-09-22T22:11:52+00:00,19.541924,37,updated stim.csv,Version37.csv,Version 37,List 37,rag,NA,1085,5.666666667,2126,1086,BOI,-,-,Please name all of the ways you could use this object. Keep in mind that one object can have many uses. Separate your responses with a comma.,NA,y,19260,NA,NA,2045,18187,NA,NA,NA,"clean, dry up, toss, squeeze",1
AF6541,stma9x62ul,Affordance Norms_ILSTU,1,20,2022-09-22T22:12:11+00:00,19.29488015,37,updated stim.csv,Version37.csv,Version 37,List 37,jeweler,NA,1100,4.695652174,1385,1101,BOI,-,-,Please name all of the ways you could use this object. Keep in mind that one object can have many uses. Separate your responses with a comma.,NA,y,19015,NA,NA,16352,16820,NA,NA,NA,sell ,0.948
AF6541,stma9x62ul,Affordance Norms_ILSTU,1,21,2022-09-22T22:12:26+00:00,14.75304604,37,updated stim.csv,Version37.csv,Version 37,List 37,vase,NA,1081,5.36,2838,1082,BOI,-,-,Please name all of the ways you could use this object. Keep in mind that one object can have many uses. Separate your responses with a comma.,NA,y,14467,NA,NA,1900,11605,NA,NA,NA,"hold, sit, carry",1
AF6541,stma9x62ul,Affordance Norms_ILSTU,1,22,2022-09-22T22:12:38+00:00,11.79721093,37,updated stim.csv,Version37.csv,Version 37,List 37,lid,NA,1107,5.428571429,1503,1108,BOI,-,-,Please name all of the ways you could use this object. Keep in mind that one object can have many uses. Separate your responses with a comma.,NA,y,11512,NA,NA,2422,10290,NA,NA,NA,"close, open, crack ",1
AF6541,stma9x62ul,Affordance Norms_ILSTU,1,23,2022-09-22T22:13:05+00:00,26.87253904,37,updated stim.csv,Version37.csv,Version 37,List 37,chair,NA,1110,6.88,485,1111,BOI,-,-,Please name all of the ways you could use this object. Keep in mind that one object can have many uses. Separate your responses with a comma.,NA,y,26593,NA,NA,1981,23047,NA,NA,NA,"sit, lay, block, swirl, rock back and forth ",1
AF6541,stma9x62ul,Affordance Norms_ILSTU,1,24,2022-09-22T22:13:16+00:00,10.74532294,37,updated stim.csv,Version37.csv,Version 37,List 37,jet,NA,1084,5.041666667,1383,1085,BOI,-,-,Please name all of the ways you could use this object. Keep in mind that one object can have many uses. Separate your responses with a comma.,NA,y,10469,NA,NA,7404,8656,NA,NA,NA,spray,1
AF6541,stma9x62ul,Affordance Norms_ILSTU,1,25,2022-09-22T22:13:24+00:00,8.451045036,37,updated stim.csv,Version37.csv,Version 37,List 37,dressing,NA,1098,5.08,845,1099,BOI,-,-,Please name all of the ways you could use this object. Keep in mind that one object can have many uses. Separate your responses with a comma.,NA,y,8175,NA,NA,4681,7269,NA,NA,NA,on salads,1
AF6541,stma9x62ul,Affordance Norms_ILSTU,1,26,2022-09-22T22:13:49+00:00,24.49366784,37,updated stim.csv,Version37.csv,Version 37,List 37,greenery,NA,1103,4.375,1170,1104,BOI,-,-,Please name all of the ways you could use this object. Keep in mind that one object can have many uses. Separate your responses with a comma.,NA,y,23961,NA,NA,15088,22939,NA,NA,NA,"look pretty, decorate ",1
AF6541,stma9x62ul,Affordance Norms_ILSTU,1,27,2022-09-22T22:14:11+00:00,22.72499299,37,updated stim.csv,Version37.csv,Version 37,List 37,clover,NA,1089,4.695652174,574,1090,BOI,-,-,Please name all of the ways you could use this object. Keep in mind that one object can have many uses. Separate your responses with a comma.,NA,y,22121,NA,NA,12417,20999,NA,NA,NA,"wish, hold, collect, pull",1
AF6541,stma9x62ul,Affordance Norms_ILSTU,1,28,2022-09-22T22:14:40+00:00,28.94184518,37,updated stim.csv,Version37.csv,Version 37,List 37,rosary,NA,1082,5.791666667,2193,1083,BOI,-,-,Please name all of the ways you could use this object. Keep in mind that one object can have many uses. Separate your responses with a comma.,NA,y,28524,NA,NA,26248,27535,NA,NA,NA,not sure ,1
AF6541,stma9x62ul,Affordance Norms_ILSTU,1,29,2022-09-22T22:14:55+00:00,14.58371496,37,updated stim.csv,Version37.csv,Version 37,List 37,critter,NA,1087,4.863636364,697,1088,BOI,-,-,Please name all of the ways you could use this object. Keep in mind that one object can have many uses. Separate your responses with a comma.,NA,y,14311,NA,NA,2665,4319,NA,NA,NA,crawl,1
AF6541,stma9x62ul,Affordance Norms_ILSTU,1,30,2022-09-22T22:15:06+00:00,11.42069793,37,updated stim.csv,Version37.csv,Version 37,List 37,kneecap,NA,1092,5.714285714,1434,1093,BOI,-,-,Please name all of the ways you could use this object. Keep in mind that one object can have many uses. Separate your responses with a comma.,NA,y,11149,NA,NA,2577,7121,NA,NA,NA,"move, kneel",1
AF6541,stma9x62ul,Affordance Norms_ILSTU,1,31,2022-09-22T22:15:28+00:00,21.374717,37,updated stim.csv,Version37.csv,Version 37,List 37,tummy,NA,1105,5.125,2796,1106,BOI,-,-,Please name all of the ways you could use this object. Keep in mind that one object can have many uses. Separate your responses with a comma.,NA,y,21094,NA,NA,3416,20104,NA,NA,NA,"squeeze, pull, push out, lay on, fill up ",1
AF6541,stma9x62ul,Affordance Norms_ILSTU,1,32,2022-09-22T22:15:48+00:00,19.99121213,37,updated stim.csv,Version37.csv,Version 37,List 37,elephant,NA,1108,4.36,900,1109,BOI,-,-,Please name all of the ways you could use this object. Keep in mind that one object can have many uses. Separate your responses with a comma.,NA,y,19626,NA,NA,7194,18719,NA,NA,NA,"ride, look at, play with",1
AF6541,stma9x62ul,Affordance Norms_ILSTU,1,33,2022-09-22T22:16:14+00:00,26.64253688,37,updated stim.csv,Version37.csv,Version 37,List 37,twig,NA,1109,5.28,2811,1110,BOI,-,-,Please name all of the ways you could use this object. Keep in mind that one object can have many uses. Separate your responses with a comma.,NA,y,26368,NA,NA,23393,25429,NA,NA,NA,"pull, grab",1
AF6541,stma9x62ul,Affordance Norms_ILSTU,1,34,2022-09-22T22:16:21+00:00,7.158589125,37,updated stim.csv,Version37.csv,Version 37,List 37,locket,NA,1088,5.333333333,1537,1089,BOI,-,-,Please name all of the ways you could use this object. Keep in mind that one object can have many uses. Separate your responses with a comma.,NA,y,6878,NA,NA,5268,5654,NA,NA,NA,lock,1
AF6541,stma9x62ul,Affordance Norms_ILSTU,1,35,2022-09-22T22:16:54+00:00,32.88159299,37,updated stim.csv,Version37.csv,Version 37,List 37,auto,NA,1096,4.391304348,100,1097,BOI,-,-,Please name all of the ways you could use this object. Keep in mind that one object can have many uses. Separate your responses with a comma.,NA,y,32606,NA,NA,22732,30080,NA,NA,NA,"mobile, do yourself ",1
AF6541,stma9x62ul,Affordance Norms_ILSTU,1,36,2022-09-22T22:17:08+00:00,13.45714498,37,updated stim.csv,Version37.csv,Version 37,List 37,stereo,NA,1102,5.68,2531,1103,BOI,-,-,Please name all of the ways you could use this object. Keep in mind that one object can have many uses. Separate your responses with a comma.,NA,y,13189,NA,NA,2563,10331,NA,NA,NA,"listen, play, dance",1
AF6541,stma9x62ul,Affordance Norms_ILSTU,1,37,2022-09-22T22:17:23+00:00,15.55161095,37,updated stim.csv,Version37.csv,Version 37,List 37,lamplight,NA,1095,4.291666667,1456,1096,BOI,-,-,Please name all of the ways you could use this object. Keep in mind that one object can have many uses. Separate your responses with a comma.,NA,y,15167,NA,NA,2566,10886,NA,NA,NA,"turn on and off, set down",1
AF6541,stma9x62ul,Affordance Norms_ILSTU,1,38,2022-09-22T22:17:38+00:00,15.00348806,37,updated stim.csv,Version37.csv,Version 37,List 37,tub,NA,1099,6.086956522,2789,1100,BOI,-,-,Please name all of the ways you could use this object. Keep in mind that one object can have many uses. Separate your responses with a comma.,NA,y,14721,NA,NA,4745,13832,NA,NA,NA,"put things in, lay in, store items ",1
AF6541,stma9x62ul,Affordance Norms_ILSTU,1,39,2022-09-22T22:17:53+00:00,15.00180697,37,updated stim.csv,Version37.csv,Version 37,List 37,pistachio,NA,1101,5.541666667,1978,1102,BOI,-,-,Please name all of the ways you could use this object. Keep in mind that one object can have many uses. Separate your responses with a comma.,NA,y,14725,NA,NA,3315,11584,NA,NA,NA,"eat, crack, spit, chew ",1
AF6541,stma9x62ul,Affordance Norms_ILSTU,1,40,2022-09-22T22:18:06+00:00,12.70323396,37,updated stim.csv,Version37.csv,Version 37,List 37,glue,NA,1106,5.043478261,1118,1107,BOI,-,-,Please name all of the ways you could use this object. Keep in mind that one object can have many uses. Separate your responses with a comma.,NA,y,12410,NA,NA,2313,10566,NA,NA,NA,"stick, hold together ",1
AP5326,2ckdckva6o,Affordance Norms_ILSTU,1,11,2022-09-25T16:59:11+00:00,38.53900409,12,updated stim.csv,Version12.csv,Version 12,List 12,fungus,NA,346,4.32,1064,347,BOI,-,-,Please name all of the ways you could use this object. Keep in mind that one object can have many uses. Separate your responses with a comma.,NA,y,38171,NA,NA,9587,34611,NA,NA,NA,"make, eat",1
AP5326,2ckdckva6o,Affordance Norms_ILSTU,1,12,2022-09-25T16:59:33+00:00,22.3044529,12,updated stim.csv,Version12.csv,Version 12,List 12,sifter,NA,350,4.782608696,2378,351,BOI,-,-,Please name all of the ways you could use this object. Keep in mind that one object can have many uses. Separate your responses with a comma.,NA,y,21965,NA,NA,2821,14215,NA,NA,NA,"cooking, baking, draining, sifting, ",1
AP5326,2ckdckva6o,Affordance Norms_ILSTU,1,13,2022-09-25T17:00:36+00:00,62.937042,12,updated stim.csv,Version12.csv,Version 12,List 12,toddler,NA,349,5.875,2714,350,BOI,-,-,Please name all of the ways you could use this object. Keep in mind that one object can have many uses. Separate your responses with a comma.,NA,y,62715,NA,NA,3387,47318,NA,NA,NA,"playing, jumping, running, ",1
AP5326,2ckdckva6o,Affordance Norms_ILSTU,1,14,2022-09-25T17:01:24+00:00,48.27119017,12,updated stim.csv,Version12.csv,Version 12,List 12,necklace,NA,338,5.821428571,1741,339,BOI,-,-,Please name all of the ways you could use this object. Keep in mind that one object can have many uses. Separate your responses with a comma.,NA,y,47905,NA,NA,2766,45010,NA,NA,NA,"wear, hide, keepsake, hold, break, tangle",1
AP5326,2ckdckva6o,Affordance Norms_ILSTU,1,15,2022-09-25T17:01:53+00:00,28.46537685,12,updated stim.csv,Version12.csv,Version 12,List 12,bystander,NA,331,4.791666667,384,332,BOI,-,-,Please name all of the ways you could use this object. Keep in mind that one object can have many uses. Separate your responses with a comma.,NA,y,28041,NA,NA,2199,26503,NA,NA,NA,"look, talk, touch, walk with or next to",1
AP5326,2ckdckva6o,Affordance Norms_ILSTU,1,16,2022-09-25T17:02:45+00:00,52.328233,12,updated stim.csv,Version12.csv,Version 12,List 12,hip,NA,341,5.086956522,1291,342,BOI,-,-,Please name all of the ways you could use this object. Keep in mind that one object can have many uses. Separate your responses with a comma.,NA,y,51912,NA,NA,8303,40188,NA,NA,NA,"touch, break, fracture, lay on, ",1
AP5326,2ckdckva6o,Affordance Norms_ILSTU,1,17,2022-09-25T17:03:06+00:00,21.09395504,12,updated stim.csv,Version12.csv,Version 12,List 12,dock,NA,336,4.541666667,808,337,BOI,-,-,Please name all of the ways you could use this object. Keep in mind that one object can have many uses. Separate your responses with a comma.,NA,y,20783,NA,NA,1462,12513,NA,NA,NA,"stand on, fall off, walk, run, jump, play, ",1
AP5326,2ckdckva6o,Affordance Norms_ILSTU,1,18,2022-09-25T17:03:50+00:00,43.90977502,12,updated stim.csv,Version12.csv,Version 12,List 12,hourglass,NA,354,4.583333333,1325,355,BOI,-,-,Please name all of the ways you could use this object. Keep in mind that one object can have many uses. Separate your responses with a comma.,NA,y,43617,NA,NA,3281,42802,NA,NA,NA,"tell time, flip upwards or downwards, hold, look at it, touch it, see it, hear the sand falling inside",1
AP5326,2ckdckva6o,Affordance Norms_ILSTU,1,19,2022-09-25T17:04:07+00:00,16.75047708,12,updated stim.csv,Version12.csv,Version 12,List 12,bass,NA,337,4.37037037,164,338,BOI,-,-,Please name all of the ways you could use this object. Keep in mind that one object can have many uses. Separate your responses with a comma.,NA,y,16524,NA,NA,2222,6589,NA,NA,NA,"feel it, hear it, ",1
AP5326,2ckdckva6o,Affordance Norms_ILSTU,1,20,2022-09-25T17:04:42+00:00,35.29006791,12,updated stim.csv,Version12.csv,Version 12,List 12,stockings,NA,344,5.84,2542,345,BOI,-,-,Please name all of the ways you could use this object. Keep in mind that one object can have many uses. Separate your responses with a comma.,NA,y,34873,NA,NA,1846,9229,NA,NA,NA,"wear, touch them, ",1
AP5326,2ckdckva6o,Affordance Norms_ILSTU,1,21,2022-09-25T17:05:25+00:00,42.39446306,12,updated stim.csv,Version12.csv,Version 12,List 12,closet,NA,348,4.962962963,567,349,BOI,-,-,Please name all of the ways you could use this object. Keep in mind that one object can have many uses. Separate your responses with a comma.,NA,y,42072,NA,NA,2077,37348,NA,NA,NA,"hang clothes, walk around, store items, organize, ",1
AP5326,2ckdckva6o,Affordance Norms_ILSTU,1,22,2022-09-25T17:06:18+00:00,53.55864191,12,updated stim.csv,Version12.csv,Version 12,List 12,bartender,NA,353,4.64,156,354,BOI,-,-,Please name all of the ways you could use this object. Keep in mind that one object can have many uses. Separate your responses with a comma.,NA,y,53230,NA,NA,1551,48310,NA,NA,NA,"talk, see, pay, grab a drink, ",1
AP5326,2ckdckva6o,Affordance Norms_ILSTU,1,23,2022-09-25T17:07:33+00:00,74.85248613,12,updated stim.csv,Version12.csv,Version 12,List 12,mall,NA,340,4.36,1582,341,BOI,-,-,Please name all of the ways you could use this object. Keep in mind that one object can have many uses. Separate your responses with a comma.,NA,y,74459,NA,NA,1520,73507,NA,NA,NA,"shop, see people, walk with people, talk to people, walk around, eat at, play, go on escalators, bathrooms, meet new people",1
AP5326,2ckdckva6o,Affordance Norms_ILSTU,1,24,2022-09-25T17:07:53+00:00,19.92675781,12,updated stim.csv,Version12.csv,Version 12,List 12,beet,NA,345,5.32,193,346,BOI,-,-,Please name all of the ways you could use this object. Keep in mind that one object can have many uses. Separate your responses with a comma.,NA,y,19727,NA,NA,1761,10471,NA,NA,NA,"eat, cook, feel, taste it",1
AP5326,2ckdckva6o,Affordance Norms_ILSTU,1,25,2022-09-25T17:13:26+00:00,333.158138,12,updated stim.csv,Version12.csv,Version 12,List 12,dairy,NA,335,4.28,750,336,BOI,-,-,Please name all of the ways you could use this object. Keep in mind that one object can have many uses. Separate your responses with a comma.,NA,y,332678,NA,NA,3930,250070,NA,NA,NA,"eat, drink, touch",1
AP5326,2ckdckva6o,Affordance Norms_ILSTU,1,26,2022-09-25T17:16:03+00:00,157.0910001,12,updated stim.csv,Version12.csv,Version 12,List 12,champagne,NA,333,5.583333333,493,334,BOI,-,-,Please name all of the ways you could use this object. Keep in mind that one object can have many uses. Separate your responses with a comma.,NA,y,156851,NA,NA,1360,30645,NA,NA,NA,"drink, see, taste, pour, hold, spill, ",0.985
AP5326,2ckdckva6o,Affordance Norms_ILSTU,1,27,2022-09-25T17:17:10+00:00,66.24367809,12,updated stim.csv,Version12.csv,Version 12,List 12,condiment,NA,347,5.76,620,348,BOI,-,-,Please name all of the ways you could use this object. Keep in mind that one object can have many uses. Separate your responses with a comma.,NA,y,65830,NA,NA,9747,51384,NA,NA,NA,"pour, taste, touch, see, spill, eat, ",1
AP5326,2ckdckva6o,Affordance Norms_ILSTU,1,28,2022-09-25T17:17:44+00:00,34.6541369,12,updated stim.csv,Version12.csv,Version 12,List 12,ruby,NA,332,4.76,2202,333,BOI,-,-,Please name all of the ways you could use this object. Keep in mind that one object can have many uses. Separate your responses with a comma.,NA,y,34357,NA,NA,2025,24124,NA,NA,NA,"wear, break, hold it, feel it, see it, ",1
AP5326,2ckdckva6o,Affordance Norms_ILSTU,1,29,2022-09-25T17:19:19+00:00,94.88474703,12,updated stim.csv,Version12.csv,Version 12,List 12,flower,NA,343,5.916666667,1015,344,BOI,-,-,Please name all of the ways you could use this object. Keep in mind that one object can have many uses. Separate your responses with a comma.,NA,y,94599,NA,NA,1480,91819,NA,NA,NA,"hold, smell, feel, touch, taste, eat, stomp, break, crumble, use as decoration, save, grow, water them, ",1
AP5326,2ckdckva6o,Affordance Norms_ILSTU,1,30,2022-09-25T17:20:13+00:00,53.65527391,12,updated stim.csv,Version12.csv,Version 12,List 12,shot,NA,356,4.392857143,2360,357,BOI,-,-,Please name all of the ways you could use this object. Keep in mind that one object can have many uses. Separate your responses with a comma.,NA,y,53261,NA,NA,2406,23892,NA,NA,NA,"get one, feel, see, ",1
AP5326,2ckdckva6o,Affordance Norms_ILSTU,1,31,2022-09-25T17:20:59+00:00,45.87518215,12,updated stim.csv,Version12.csv,Version 12,List 12,cobweb,NA,359,4.916666667,584,360,BOI,-,-,Please name all of the ways you could use this object. Keep in mind that one object can have many uses. Separate your responses with a comma.,NA,y,45428,NA,NA,5402,34124,NA,NA,NA,"see them, feel them, walk into, get tangled, clean, ",1
AP5326,2ckdckva6o,Affordance Norms_ILSTU,1,32,2022-09-25T17:21:39+00:00,40.55197382,12,updated stim.csv,Version12.csv,Version 12,List 12,mulberry,NA,339,4.703703704,1714,340,BOI,-,-,Please name all of the ways you could use this object. Keep in mind that one object can have many uses. Separate your responses with a comma.,NA,y,40229,NA,NA,2262,38473,NA,NA,NA,"eat, pick, smash, throw, stomp, taste, smush, feel, ",1
AP5326,2ckdckva6o,Affordance Norms_ILSTU,1,33,2022-09-25T17:22:56+00:00,76.59687304,12,updated stim.csv,Version12.csv,Version 12,List 12,pinkie,NA,355,5.260869565,1974,356,BOI,-,-,Please name all of the ways you could use this object. Keep in mind that one object can have many uses. Separate your responses with a comma.,NA,y,76209,NA,NA,2569,70152,NA,NA,NA,"extend, see your pinkie, use for everyday things, grow nail,",1
AP5326,2ckdckva6o,Affordance Norms_ILSTU,1,34,2022-09-25T17:24:28+00:00,92.1670711,12,updated stim.csv,Version12.csv,Version 12,List 12,man,NA,352,5.346153846,1586,353,BOI,-,-,Please name all of the ways you could use this object. Keep in mind that one object can have many uses. Separate your responses with a comma.,NA,y,91859,NA,NA,6832,88711,NA,NA,NA,"talking to, loving, to have fun, having a child, cooking, cleaning, ",1
AP5326,2ckdckva6o,Affordance Norms_ILSTU,1,35,2022-09-25T17:25:06+00:00,38.18766499,12,updated stim.csv,Version12.csv,Version 12,List 12,dumbbell,NA,351,5.958333333,865,352,BOI,-,-,Please name all of the ways you could use this object. Keep in mind that one object can have many uses. Separate your responses with a comma.,NA,y,37861,NA,NA,3871,30625,NA,NA,NA,"lifting, getting stronger, hold something down, ",1
AP5326,2ckdckva6o,Affordance Norms_ILSTU,1,36,2022-09-25T17:26:55+00:00,109.16205,12,updated stim.csv,Version12.csv,Version 12,List 12,String,NA,334,5.626180837,2568,335,BOI,-,-,Please name all of the ways you could use this object. Keep in mind that one object can have many uses. Separate your responses with a comma.,NA,y,108872,NA,NA,3168,68072,NA,NA,NA,"tying things, shoelaces, belt, hold things together, hair tie, ",1
AP5326,2ckdckva6o,Affordance Norms_ILSTU,1,37,2022-09-25T17:27:36+00:00,40.44847393,12,updated stim.csv,Version12.csv,Version 12,List 12,showerhead,NA,360,5.041666667,2365,361,BOI,-,-,Please name all of the ways you could use this object. Keep in mind that one object can have many uses. Separate your responses with a comma.,NA,y,40068,NA,NA,2515,37309,NA,NA,NA,"washing hair or body, wash pets, getting clean, cleaning bathtub, ",1
AP5326,2ckdckva6o,Affordance Norms_ILSTU,1,38,2022-09-25T17:28:49+00:00,73.1158061,12,updated stim.csv,Version12.csv,Version 12,List 12,someone,NA,357,4.625,2450,358,BOI,-,-,Please name all of the ways you could use this object. Keep in mind that one object can have many uses. Separate your responses with a comma.,NA,y,72765,NA,NA,2518,64592,NA,NA,NA,"talking, sharing, playing, loving, holding, touching, for cleaning, for cooking, ",1
AP5326,2ckdckva6o,Affordance Norms_ILSTU,1,39,2022-09-25T17:29:21+00:00,31.946347,12,updated stim.csv,Version12.csv,Version 12,List 12,mayonnaise,NA,342,5.523809524,1628,343,BOI,-,-,Please name all of the ways you could use this object. Keep in mind that one object can have many uses. Separate your responses with a comma.,NA,y,31620,NA,NA,2744,19898,NA,NA,NA,"make sandwich, use as condiment, eat it, touch it, ",1
AP5326,2ckdckva6o,Affordance Norms_ILSTU,1,40,2022-09-25T17:30:18+00:00,57.55136585,12,updated stim.csv,Version12.csv,Version 12,List 12,certificate,NA,358,5.041666667,482,359,BOI,-,-,Please name all of the ways you could use this object. Keep in mind that one object can have many uses. Separate your responses with a comma.,NA,y,57230,NA,NA,5921,52067,NA,NA,NA,"showing off, praising yourself, getting a job, showing certifications,",1
AR0075,qkrdkpz92n,Affordance Norms_ILSTU,1,11,2022-09-23T01:19:15+00:00,43.32702494,41,updated stim.csv,Version41.csv,Version 41,List 41,suitcase,NA,1202,6.08,2583,1203,BOI,-,-,Please name all of the ways you could use this object. Keep in mind that one object can have many uses. Separate your responses with a comma.,NA,y,43004,NA,NA,6618,25636,NA,NA,NA,"hold clothes, travel easily, storage",1
AR0075,qkrdkpz92n,Affordance Norms_ILSTU,1,12,2022-09-23T01:19:39+00:00,23.25582194,41,updated stim.csv,Version41.csv,Version 41,List 41,germ,NA,1220,4.333333333,1100,1221,BOI,-,-,Please name all of the ways you could use this object. Keep in mind that one object can have many uses. Separate your responses with a comma.,NA,y,22948,NA,NA,10306,15068,NA,NA,NA,infection,1
AR0075,qkrdkpz92n,Affordance Norms_ILSTU,1,13,2022-09-23T01:20:36+00:00,57.10187101,41,updated stim.csv,Version41.csv,Version 41,List 41,taxi,NA,1226,5.464285714,2639,1227,BOI,-,-,Please name all of the ways you could use this object. Keep in mind that one object can have many uses. Separate your responses with a comma.,NA,y,56782,NA,NA,7054,50393,NA,NA,NA,"transport people, provide a wage, hold luggage, keep people safe",1
AR0075,qkrdkpz92n,Affordance Norms_ILSTU,1,14,2022-09-23T01:21:59+00:00,83.48087096,41,updated stim.csv,Version41.csv,Version 41,List 41,dildo,NA,1218,6.52173913,792,1219,BOI,-,-,Please name all of the ways you could use this object. Keep in mind that one object can have many uses. Separate your responses with a comma.,NA,y,83156,NA,NA,11693,81485,NA,NA,NA,"masturbation, sex",1
AR0075,qkrdkpz92n,Affordance Norms_ILSTU,1,15,2022-09-23T01:24:08+00:00,129.2504342,41,updated stim.csv,Version41.csv,Version 41,List 41,narcotics,NA,1225,4.956521739,1736,1226,BOI,-,-,Please name all of the ways you could use this object. Keep in mind that one object can have many uses. Separate your responses with a comma.,NA,y,128943,NA,NA,88633,123682,NA,NA,NA,"recreational drug use, changes mood, makes people feel good",1
AR0075,qkrdkpz92n,Affordance Norms_ILSTU,1,16,2022-09-23T01:25:57+00:00,108.817214,41,updated stim.csv,Version41.csv,Version 41,List 41,chairwoman,NA,1219,4.347826087,488,1220,BOI,-,-,Please name all of the ways you could use this object. Keep in mind that one object can have many uses. Separate your responses with a comma.,NA,y,108509,NA,NA,78271,104296,NA,NA,NA,"leadership, participate on a committee, make decisions",1
AR0075,qkrdkpz92n,Affordance Norms_ILSTU,1,17,2022-09-23T01:26:34+00:00,36.73993993,41,updated stim.csv,Version41.csv,Version 41,List 41,backgammon,NA,1209,4.869565217,115,1210,BOI,-,-,Please name all of the ways you could use this object. Keep in mind that one object can have many uses. Separate your responses with a comma.,NA,y,36424,NA,NA,9213,35171,NA,NA,NA,"have fun, build community",1
AR0075,qkrdkpz92n,Affordance Norms_ILSTU,1,18,2022-09-23T01:27:24+00:00,49.83653092,41,updated stim.csv,Version41.csv,Version 41,List 41,gift,NA,1208,5.380952381,1102,1209,BOI,-,-,Please name all of the ways you could use this object. Keep in mind that one object can have many uses. Separate your responses with a comma.,NA,y,49521,NA,NA,4073,44893,NA,NA,NA,"show love and appreciation, celebrate ",1
AR0075,qkrdkpz92n,Affordance Norms_ILSTU,1,19,2022-09-23T01:28:11+00:00,47.69524097,41,updated stim.csv,Version41.csv,Version 41,List 41,train,NA,1201,5.333333333,2756,1202,BOI,-,-,Please name all of the ways you could use this object. Keep in mind that one object can have many uses. Separate your responses with a comma.,NA,y,47376,NA,NA,2034,43396,NA,NA,NA,"transport people and things, provide peoples salaries, store stuff",1
AR0075,qkrdkpz92n,Affordance Norms_ILSTU,1,20,2022-09-23T01:29:10+00:00,58.12427807,41,updated stim.csv,Version41.csv,Version 41,List 41,brickwork,NA,1215,4.777777778,319,1216,BOI,-,-,Please name all of the ways you could use this object. Keep in mind that one object can have many uses. Separate your responses with a comma.,NA,y,57791,NA,NA,27946,36571,NA,NA,NA,"keep structures up, decoration",1
AR0075,qkrdkpz92n,Affordance Norms_ILSTU,1,21,2022-09-23T01:30:15+00:00,65.13003993,41,updated stim.csv,Version41.csv,Version 41,List 41,broccoli,NA,1217,5.04,327,1218,BOI,-,-,Please name all of the ways you could use this object. Keep in mind that one object can have many uses. Separate your responses with a comma.,NA,y,64826,NA,NA,15227,63831,NA,NA,NA,"cooking, eating, nutrition, keeps people healthy",1
AR0075,qkrdkpz92n,Affordance Norms_ILSTU,1,22,2022-09-23T01:31:36+00:00,81.41520214,41,updated stim.csv,Version41.csv,Version 41,List 41,roommate,NA,1207,5.16,2189,1208,BOI,-,-,Please name all of the ways you could use this object. Keep in mind that one object can have many uses. Separate your responses with a comma.,NA,y,81106,NA,NA,28166,79905,NA,NA,NA,"split rent, companionship, cleaning, safety ",1
AR0075,qkrdkpz92n,Affordance Norms_ILSTU,1,23,2022-09-23T01:32:04+00:00,28.33560681,41,updated stim.csv,Version41.csv,Version 41,List 41,binoculars,NA,1205,6.16,218,1206,BOI,-,-,Please name all of the ways you could use this object. Keep in mind that one object can have many uses. Separate your responses with a comma.,NA,y,27983,NA,NA,12509,26958,NA,NA,NA,"make things easier to see, prop",1
AR0075,qkrdkpz92n,Affordance Norms_ILSTU,1,24,2022-09-23T01:32:49+00:00,44.29219723,41,updated stim.csv,Version41.csv,Version 41,List 41,bridegroom,NA,1213,4.384615385,320,1214,BOI,-,-,Please name all of the ways you could use this object. Keep in mind that one object can have many uses. Separate your responses with a comma.,NA,y,43981,NA,NA,37817,42546,NA,NA,NA,married,1
AR0075,qkrdkpz92n,Affordance Norms_ILSTU,1,25,2022-09-23T01:33:49+00:00,60.35367894,41,updated stim.csv,Version41.csv,Version 41,List 41,game,NA,1214,4.518518519,1071,1215,BOI,-,-,Please name all of the ways you could use this object. Keep in mind that one object can have many uses. Separate your responses with a comma.,NA,y,60043,NA,NA,2016,54867,NA,NA,NA,"entertainment, education, form relationships, exercise",1
AR0075,qkrdkpz92n,Affordance Norms_ILSTU,1,26,2022-09-23T01:34:02+00:00,13.01243806,41,updated stim.csv,Version41.csv,Version 41,List 41,tricycle,NA,1210,6.173913043,2775,1211,BOI,-,-,Please name all of the ways you could use this object. Keep in mind that one object can have many uses. Separate your responses with a comma.,NA,y,12799,NA,NA,2820,5860,NA,NA,NA,transportation,1
AR0075,qkrdkpz92n,Affordance Norms_ILSTU,1,27,2022-09-23T01:34:22+00:00,20.20695996,41,updated stim.csv,Version41.csv,Version 41,List 41,broach,NA,1228,5.041666667,326,1229,BOI,-,-,Please name all of the ways you could use this object. Keep in mind that one object can have many uses. Separate your responses with a comma.,NA,y,19899,NA,NA,2791,8824,NA,NA,NA,decoration,1
AR0075,qkrdkpz92n,Affordance Norms_ILSTU,1,28,2022-09-23T01:35:33+00:00,70.75608897,41,updated stim.csv,Version41.csv,Version 41,List 41,salt,NA,1230,5.260869565,2227,1231,BOI,-,-,Please name all of the ways you could use this object. Keep in mind that one object can have many uses. Separate your responses with a comma.,NA,y,70440,NA,NA,8686,69004,NA,NA,NA,"provide electrolytes, season food, keep snow from sticking, make ice cream",1
AR0075,qkrdkpz92n,Affordance Norms_ILSTU,1,29,2022-09-23T01:35:56+00:00,22.54869199,41,updated stim.csv,Version41.csv,Version 41,List 41,tepee,NA,1206,4.916666667,2665,1207,BOI,-,-,Please name all of the ways you could use this object. Keep in mind that one object can have many uses. Separate your responses with a comma.,NA,y,22243,NA,NA,15888,21252,NA,NA,NA,"housing, cultural symbol",1
AR0075,qkrdkpz92n,Affordance Norms_ILSTU,1,30,2022-09-23T01:36:10+00:00,13.953269,41,updated stim.csv,Version41.csv,Version 41,List 41,cologne,NA,1222,5.541666667,604,1223,BOI,-,-,Please name all of the ways you could use this object. Keep in mind that one object can have many uses. Separate your responses with a comma.,NA,y,13716,NA,NA,2974,12504,NA,NA,NA,"make people smell good, attract attention",1
AR0075,qkrdkpz92n,Affordance Norms_ILSTU,1,31,2022-09-23T01:36:31+00:00,21.08485508,41,updated stim.csv,Version41.csv,Version 41,List 41,horseshoe,NA,1223,5.2,1316,1224,BOI,-,-,Please name all of the ways you could use this object. Keep in mind that one object can have many uses. Separate your responses with a comma.,NA,y,20777,NA,NA,15692,19229,NA,NA,NA,protect a horse foot,1
AR0075,qkrdkpz92n,Affordance Norms_ILSTU,1,32,2022-09-23T01:39:26+00:00,175.0281899,41,updated stim.csv,Version41.csv,Version 41,List 41,mammal,NA,1224,5.291666667,1585,1225,BOI,-,-,Please name all of the ways you could use this object. Keep in mind that one object can have many uses. Separate your responses with a comma.,NA,y,174708,NA,NA,142159,171519,NA,NA,NA,"pet, zoo animal, food chain",1
AR0075,qkrdkpz92n,Affordance Norms_ILSTU,1,33,2022-09-23T01:39:54+00:00,28.12268901,41,updated stim.csv,Version41.csv,Version 41,List 41,bulb,NA,1211,5.391304348,351,1212,BOI,-,-,Please name all of the ways you could use this object. Keep in mind that one object can have many uses. Separate your responses with a comma.,NA,y,27807,NA,NA,4365,7667,NA,NA,NA,light rooms,1
AR0075,qkrdkpz92n,Affordance Norms_ILSTU,1,34,2022-09-23T01:40:15+00:00,21.32814908,41,updated stim.csv,Version41.csv,Version 41,List 41,calipers,NA,1204,4.666666667,403,1205,BOI,-,-,Please name all of the ways you could use this object. Keep in mind that one object can have many uses. Separate your responses with a comma.,NA,y,21012,NA,NA,16955,19875,NA,NA,NA,measure things,1
AR0075,qkrdkpz92n,Affordance Norms_ILSTU,1,35,2022-09-23T01:42:12+00:00,116.6636369,41,updated stim.csv,Version41.csv,Version 41,List 41,damsel,NA,1203,4.652173913,752,1204,BOI,-,-,Please name all of the ways you could use this object. Keep in mind that one object can have many uses. Separate your responses with a comma.,NA,y,116340,NA,NA,110654,115182,NA,NA,NA,women arent objects,1
AR0075,qkrdkpz92n,Affordance Norms_ILSTU,1,36,2022-09-23T01:43:16+00:00,63.90818,41,updated stim.csv,Version41.csv,Version 41,List 41,lei,NA,1221,5.058823529,1488,1222,BOI,-,-,Please name all of the ways you could use this object. Keep in mind that one object can have many uses. Separate your responses with a comma.,NA,y,63567,NA,NA,16477,59820,NA,NA,NA,"cultural symbol, accessory",1
AR0075,qkrdkpz92n,Affordance Norms_ILSTU,1,37,2022-09-23T01:43:49+00:00,33.25535989,41,updated stim.csv,Version41.csv,Version 41,List 41,snail,NA,1227,4.52173913,2426,1228,BOI,-,-,Please name all of the ways you could use this object. Keep in mind that one object can have many uses. Separate your responses with a comma.,NA,y,32936,NA,NA,16951,30510,NA,NA,NA,"eating, cleaning fish tanks, pet",1
AR0075,qkrdkpz92n,Affordance Norms_ILSTU,1,38,2022-09-23T01:44:04+00:00,15.39841509,41,updated stim.csv,Version41.csv,Version 41,List 41,fedora,NA,1212,6.291666667,958,1213,BOI,-,-,Please name all of the ways you could use this object. Keep in mind that one object can have many uses. Separate your responses with a comma.,NA,y,15177,NA,NA,3749,11532,NA,NA,NA,"protect head, accessory",1
AR0075,qkrdkpz92n,Affordance Norms_ILSTU,1,39,2022-09-23T01:45:43+00:00,98.27083802,41,updated stim.csv,Version41.csv,Version 41,List 41,offspring,NA,1216,4.913043478,1801,1217,BOI,-,-,Please name all of the ways you could use this object. Keep in mind that one object can have many uses. Separate your responses with a comma.,NA,y,97932,NA,NA,69387,96152,NA,NA,NA,"taken care of, financial support in future",1
AR0075,qkrdkpz92n,Affordance Norms_ILSTU,1,40,2022-09-23T01:46:09+00:00,26.39746904,41,updated stim.csv,Version41.csv,Version 41,List 41,nutcracker,NA,1229,5.36,1790,1230,BOI,-,-,Please name all of the ways you could use this object. Keep in mind that one object can have many uses. Separate your responses with a comma.,NA,y,25119,NA,NA,3729,23084,NA,NA,NA,"open nuts, christmas decoration, entertainment",1
AU1755,nvjm88b363,Affordance Norms_ILSTU,1,11,2022-09-22T03:05:08+00:00,8.628875017,11,updated stim.csv,Version11.csv,Version 11,List 11,kettledrum,NA,304,4.916666667,1410,305,BOI,-,-,Please name all of the ways you could use this object. Keep in mind that one object can have many uses. Separate your responses with a comma.,NA,y,8516,NA,NA,3225,7349,NA,NA,NA,"bang, hit, throw",1
AU1755,nvjm88b363,Affordance Norms_ILSTU,1,12,2022-09-22T03:05:27+00:00,18.53685212,11,updated stim.csv,Version11.csv,Version 11,List 11,pan,NA,326,6.409090909,1856,327,BOI,-,-,Please name all of the ways you could use this object. Keep in mind that one object can have many uses. Separate your responses with a comma.,NA,y,18408,NA,NA,2310,17585,NA,NA,NA,"bang, hit, throw, cook, clean, drop, hit",1
AU1755,nvjm88b363,Affordance Norms_ILSTU,1,13,2022-09-22T03:05:51+00:00,24.16372395,11,updated stim.csv,Version11.csv,Version 11,List 11,grandchild,NA,315,5.24,1145,316,BOI,-,-,Please name all of the ways you could use this object. Keep in mind that one object can have many uses. Separate your responses with a comma.,NA,y,23965,NA,NA,2084,21073,NA,NA,NA,"play, laugh, teach, help",1
AU1755,nvjm88b363,Affordance Norms_ILSTU,1,14,2022-09-22T03:06:22+00:00,31.53379607,11,updated stim.csv,Version11.csv,Version 11,List 11,flatiron,NA,310,5.590909091,1004,311,BOI,-,-,Please name all of the ways you could use this object. Keep in mind that one object can have many uses. Separate your responses with a comma.,NA,y,31339,NA,NA,9484,29376,NA,NA,NA,straighten,1
AU1755,nvjm88b363,Affordance Norms_ILSTU,1,15,2022-09-22T03:06:52+00:00,29.79355097,11,updated stim.csv,Version11.csv,Version 11,List 11,billiards,NA,327,4.925925926,216,328,BOI,-,-,Please name all of the ways you could use this object. Keep in mind that one object can have many uses. Separate your responses with a comma.,NA,y,29600,NA,NA,19962,22319,NA,NA,NA,"play, compete",1
AU1755,nvjm88b363,Affordance Norms_ILSTU,1,16,2022-09-22T03:07:20+00:00,27.74754095,11,updated stim.csv,Version11.csv,Version 11,List 11,nut,NA,306,5.555555556,1789,307,BOI,-,-,Please name all of the ways you could use this object. Keep in mind that one object can have many uses. Separate your responses with a comma.,NA,y,27542,NA,NA,1351,26411,NA,NA,NA,"eat, cook, crush, chew, throw, collect",1
AU1755,nvjm88b363,Affordance Norms_ILSTU,1,17,2022-09-22T03:07:28+00:00,8.555471897,11,updated stim.csv,Version11.csv,Version 11,List 11,raincoat,NA,325,5.954545455,2130,326,BOI,-,-,Please name all of the ways you could use this object. Keep in mind that one object can have many uses. Separate your responses with a comma.,NA,y,8436,NA,NA,3421,5729,NA,NA,NA,protect,1
AU1755,nvjm88b363,Affordance Norms_ILSTU,1,18,2022-09-22T03:07:43+00:00,14.93082809,11,updated stim.csv,Version11.csv,Version 11,List 11,parakeet,NA,328,5.12,1870,329,BOI,-,-,Please name all of the ways you could use this object. Keep in mind that one object can have many uses. Separate your responses with a comma.,NA,y,14814,NA,NA,1968,13577,NA,NA,NA,"talk, take care, love, play with",1
AU1755,nvjm88b363,Affordance Norms_ILSTU,1,19,2022-09-22T03:07:52+00:00,8.645879984,11,updated stim.csv,Version11.csv,Version 11,List 11,mongoose,NA,329,4.5,1679,330,BOI,-,-,Please name all of the ways you could use this object. Keep in mind that one object can have many uses. Separate your responses with a comma.,NA,y,8527,NA,NA,2011,7051,NA,NA,NA,"play with, feed, chase",1
AU1755,nvjm88b363,Affordance Norms_ILSTU,1,20,2022-09-22T03:07:59+00:00,7.416496992,11,updated stim.csv,Version11.csv,Version 11,List 11,teaspoonful,NA,322,4.4,2654,323,BOI,-,-,Please name all of the ways you could use this object. Keep in mind that one object can have many uses. Separate your responses with a comma.,NA,y,7302,NA,NA,2907,5473,NA,NA,NA,"cook, measure",1
AU1755,nvjm88b363,Affordance Norms_ILSTU,1,21,2022-09-22T03:08:08+00:00,8.469587088,11,updated stim.csv,Version11.csv,Version 11,List 11,trigger,NA,319,5.16,2776,320,BOI,-,-,Please name all of the ways you could use this object. Keep in mind that one object can have many uses. Separate your responses with a comma.,NA,y,8349,NA,NA,6145,6709,NA,NA,NA,shoot,1
AU1755,nvjm88b363,Affordance Norms_ILSTU,1,22,2022-09-22T03:08:17+00:00,9.517182827,11,updated stim.csv,Version11.csv,Version 11,List 11,village,NA,321,4.44,2858,322,BOI,-,-,Please name all of the ways you could use this object. Keep in mind that one object can have many uses. Separate your responses with a comma.,NA,y,9398,NA,NA,2726,7573,NA,NA,NA,"communicate, explore",1
AU1755,nvjm88b363,Affordance Norms_ILSTU,1,23,2022-09-22T03:08:24+00:00,6.679479122,11,updated stim.csv,Version11.csv,Version 11,List 11,butt,NA,311,5.652173913,374,312,BOI,-,-,Please name all of the ways you could use this object. Keep in mind that one object can have many uses. Separate your responses with a comma.,NA,y,6561,NA,NA,3895,4624,NA,NA,NA,fart,1
AU1755,nvjm88b363,Affordance Norms_ILSTU,1,24,2022-09-22T03:08:37+00:00,13.26136208,11,updated stim.csv,Version11.csv,Version 11,List 11,bondsman,NA,307,4.416666667,266,308,BOI,-,-,Please name all of the ways you could use this object. Keep in mind that one object can have many uses. Separate your responses with a comma.,NA,y,13145,NA,NA,3648,11683,NA,NA,NA,"contact, communicate",1
AU1755,nvjm88b363,Affordance Norms_ILSTU,1,25,2022-09-22T03:09:06+00:00,29.132514,11,updated stim.csv,Version11.csv,Version 11,List 11,acupuncture,NA,301,5.285714286,12,302,BOI,-,-,Please name all of the ways you could use this object. Keep in mind that one object can have many uses. Separate your responses with a comma.,NA,y,28942,NA,NA,18830,28031,NA,NA,NA,"stab, relax",1
AU1755,nvjm88b363,Affordance Norms_ILSTU,1,26,2022-09-22T03:09:25+00:00,18.81943083,11,updated stim.csv,Version11.csv,Version 11,List 11,molasses,NA,320,5,1675,321,BOI,-,-,Please name all of the ways you could use this object. Keep in mind that one object can have many uses. Separate your responses with a comma.,NA,y,18712,NA,NA,13983,17222,NA,NA,NA,"bake, cook",1
AU1755,nvjm88b363,Affordance Norms_ILSTU,1,27,2022-09-22T03:09:35+00:00,10.16796613,11,updated stim.csv,Version11.csv,Version 11,List 11,crust,NA,303,5.125,716,304,BOI,-,-,Please name all of the ways you could use this object. Keep in mind that one object can have many uses. Separate your responses with a comma.,NA,y,10064,NA,NA,1625,5993,NA,NA,NA,"eat, throw, chew",1
AU1755,nvjm88b363,Affordance Norms_ILSTU,1,28,2022-09-22T03:10:00+00:00,24.35049391,11,updated stim.csv,Version11.csv,Version 11,List 11,rectum,NA,308,5.041666667,2150,309,BOI,-,-,Please name all of the ways you could use this object. Keep in mind that one object can have many uses. Separate your responses with a comma.,NA,y,24169,NA,NA,23082,23605,NA,NA,NA,poop,1
AU1755,nvjm88b363,Affordance Norms_ILSTU,1,29,2022-09-22T03:10:16+00:00,15.73433709,11,updated stim.csv,Version11.csv,Version 11,List 11,flowerpot,NA,314,5,1017,315,BOI,-,-,Please name all of the ways you could use this object. Keep in mind that one object can have many uses. Separate your responses with a comma.,NA,y,15605,NA,NA,2100,8437,NA,NA,NA,"plant, change, throw",1
AU1755,nvjm88b363,Affordance Norms_ILSTU,1,30,2022-09-22T03:10:27+00:00,11.109514,11,updated stim.csv,Version11.csv,Version 11,List 11,stepdaughter,NA,313,4.72,2525,314,BOI,-,-,Please name all of the ways you could use this object. Keep in mind that one object can have many uses. Separate your responses with a comma.,NA,y,10991,NA,NA,2173,9010,NA,NA,NA,"play, have fun, teach, love",1
AU1755,nvjm88b363,Affordance Norms_ILSTU,1,31,2022-09-22T03:10:36+00:00,9.799509048,11,updated stim.csv,Version11.csv,Version 11,List 11,dirt,NA,324,5.08,801,325,BOI,-,-,Please name all of the ways you could use this object. Keep in mind that one object can have many uses. Separate your responses with a comma.,NA,y,9688,NA,NA,2377,5793,NA,NA,NA,"step on, throw",1
AU1755,nvjm88b363,Affordance Norms_ILSTU,1,32,2022-09-22T03:10:44+00:00,7.044921875,11,updated stim.csv,Version11.csv,Version 11,List 11,casserole,NA,305,5.88,452,306,BOI,-,-,Please name all of the ways you could use this object. Keep in mind that one object can have many uses. Separate your responses with a comma.,NA,y,6922,NA,NA,1534,5625,NA,NA,NA,"eat, throw",1
AU1755,nvjm88b363,Affordance Norms_ILSTU,1,33,2022-09-22T03:10:55+00:00,11.18803811,11,updated stim.csv,Version11.csv,Version 11,List 11,furnace,NA,330,4.68,1066,331,BOI,-,-,Please name all of the ways you could use this object. Keep in mind that one object can have many uses. Separate your responses with a comma.,NA,y,11075,NA,NA,2576,9365,NA,NA,NA,"sit, bounce, throw",1
AU1755,nvjm88b363,Affordance Norms_ILSTU,1,34,2022-09-22T03:10:59+00:00,3.883275986,11,updated stim.csv,Version11.csv,Version 11,List 11,mullets,NA,318,4.304347826,1718,319,BOI,-,-,Please name all of the ways you could use this object. Keep in mind that one object can have many uses. Separate your responses with a comma.,NA,y,3771,NA,NA,1834,2567,NA,NA,NA,style,1
AU1755,nvjm88b363,Affordance Norms_ILSTU,1,35,2022-09-22T03:11:07+00:00,8.275238991,11,updated stim.csv,Version11.csv,Version 11,List 11,apartments,NA,309,4.851851852,56,310,BOI,-,-,Please name all of the ways you could use this object. Keep in mind that one object can have many uses. Separate your responses with a comma.,NA,y,8159,NA,NA,2113,6741,NA,NA,NA,"enjoy, clean, live",1
AU1755,nvjm88b363,Affordance Norms_ILSTU,1,36,2022-09-22T03:11:23+00:00,15.65844798,11,updated stim.csv,Version11.csv,Version 11,List 11,taffy,NA,323,4.6,2622,324,BOI,-,-,Please name all of the ways you could use this object. Keep in mind that one object can have many uses. Separate your responses with a comma.,NA,y,15542,NA,NA,10292,14077,NA,NA,NA,"eat, share, enjoy",1
AU1755,nvjm88b363,Affordance Norms_ILSTU,1,37,2022-09-22T03:11:45+00:00,22.83845305,11,updated stim.csv,Version11.csv,Version 11,List 11,hibachi,NA,312,4.666666667,1284,313,BOI,-,-,Please name all of the ways you could use this object. Keep in mind that one object can have many uses. Separate your responses with a comma.,NA,y,22639,NA,NA,19087,21325,NA,NA,NA,"eat, enjoy",1
AU1755,nvjm88b363,Affordance Norms_ILSTU,1,38,2022-09-22T03:11:57+00:00,11.2435658,11,updated stim.csv,Version11.csv,Version 11,List 11,belt,NA,317,5.80952381,202,318,BOI,-,-,Please name all of the ways you could use this object. Keep in mind that one object can have many uses. Separate your responses with a comma.,NA,y,11111,NA,NA,4595,9929,NA,NA,NA,"hit, protect, style",1
AU1755,nvjm88b363,Affordance Norms_ILSTU,1,39,2022-09-22T03:12:03+00:00,6.715102196,11,updated stim.csv,Version11.csv,Version 11,List 11,device,NA,302,5.75,784,303,BOI,-,-,Please name all of the ways you could use this object. Keep in mind that one object can have many uses. Separate your responses with a comma.,NA,y,6597,NA,NA,2825,4450,NA,NA,NA,communicate,1
AU1755,nvjm88b363,Affordance Norms_ILSTU,1,40,2022-09-22T03:12:12+00:00,8.99750495,11,updated stim.csv,Version11.csv,Version 11,List 11,corn,NA,316,6,644,317,BOI,-,-,Please name all of the ways you could use this object. Keep in mind that one object can have many uses. Separate your responses with a comma.,NA,y,8884,NA,NA,1248,8289,NA,NA,NA,"eat, plant",1
AUR1755,oyqbt8tp9s,Affordance Norms_ILSTU,1,11,2022-09-22T17:40:58+00:00,28.7670939,23,updated stim.csv,Version23.csv,Version 23,List 23,honeydew,NA,667,5.444444444,1304,668,BOI,-,-,Please name all of the ways you could use this object. Keep in mind that one object can have many uses. Separate your responses with a comma.,NA,y,28577,NA,NA,26691,27118,NA,NA,NA,grab,0.644
AUR1755,oyqbt8tp9s,Affordance Norms_ILSTU,1,12,2022-09-22T17:41:09+00:00,11.08594608,23,updated stim.csv,Version23.csv,Version 23,List 23,stapler,NA,682,6.458333333,2508,683,BOI,-,-,Please name all of the ways you could use this object. Keep in mind that one object can have many uses. Separate your responses with a comma.,NA,y,10958,NA,NA,3001,5495,NA,NA,NA,press,1
AUR1755,oyqbt8tp9s,Affordance Norms_ILSTU,1,13,2022-09-22T17:41:21+00:00,12.12514305,23,updated stim.csv,Version23.csv,Version 23,List 23,actress,NA,684,4.92,11,685,BOI,-,-,Please name all of the ways you could use this object. Keep in mind that one object can have many uses. Separate your responses with a comma.,NA,y,12004,NA,NA,5575,9475,NA,NA,NA,"entertain, admire",1
AUR1755,oyqbt8tp9s,Affordance Norms_ILSTU,1,14,2022-09-22T17:41:31+00:00,9.827153921,23,updated stim.csv,Version23.csv,Version 23,List 23,pill,NA,666,6.36,1960,667,BOI,-,-,Please name all of the ways you could use this object. Keep in mind that one object can have many uses. Separate your responses with a comma.,NA,y,9700,NA,NA,2297,8433,NA,NA,NA,"swallow, heal",1
AUR1755,oyqbt8tp9s,Affordance Norms_ILSTU,1,15,2022-09-22T17:41:43+00:00,11.80027699,23,updated stim.csv,Version23.csv,Version 23,List 23,bifocals,NA,672,5.875,212,673,BOI,-,-,Please name all of the ways you could use this object. Keep in mind that one object can have many uses. Separate your responses with a comma.,NA,y,11678,NA,NA,3593,10140,NA,NA,NA,"twist, closeness",1
AUR1755,oyqbt8tp9s,Affordance Norms_ILSTU,1,16,2022-09-22T17:41:51+00:00,7.789252996,23,updated stim.csv,Version23.csv,Version 23,List 23,heroin,NA,665,4.423076923,1282,666,BOI,-,-,Please name all of the ways you could use this object. Keep in mind that one object can have many uses. Separate your responses with a comma.,NA,y,7651,NA,NA,5872,6506,NA,NA,NA,sniff,1
AUR1755,oyqbt8tp9s,Affordance Norms_ILSTU,1,17,2022-09-22T17:42:02+00:00,11.316149,23,updated stim.csv,Version23.csv,Version 23,List 23,journal,NA,674,6,1390,675,BOI,-,-,Please name all of the ways you could use this object. Keep in mind that one object can have many uses. Separate your responses with a comma.,NA,y,11196,NA,NA,2298,9666,NA,NA,NA,"write, express, cut, break",1
AUR1755,oyqbt8tp9s,Affordance Norms_ILSTU,1,18,2022-09-22T17:42:10+00:00,8.276060104,23,updated stim.csv,Version23.csv,Version 23,List 23,earplug,NA,689,6.111111111,879,690,BOI,-,-,Please name all of the ways you could use this object. Keep in mind that one object can have many uses. Separate your responses with a comma.,NA,y,8150,NA,NA,3626,4817,NA,NA,NA,listen,1
AUR1755,oyqbt8tp9s,Affordance Norms_ILSTU,1,19,2022-09-22T17:42:19+00:00,8.726217985,23,updated stim.csv,Version23.csv,Version 23,List 23,breadbasket,NA,680,5.222222222,309,681,BOI,-,-,Please name all of the ways you could use this object. Keep in mind that one object can have many uses. Separate your responses with a comma.,NA,y,8600,NA,NA,5905,6864,NA,NA,NA,collect,0.867
AUR1755,oyqbt8tp9s,Affordance Norms_ILSTU,1,20,2022-09-22T17:42:37+00:00,18.29069996,23,updated stim.csv,Version23.csv,Version 23,List 23,suture,NA,686,4.652173913,2600,687,BOI,-,-,Please name all of the ways you could use this object. Keep in mind that one object can have many uses. Separate your responses with a comma.,NA,y,18167,NA,NA,9767,16862,NA,NA,NA,"heal, combine, treat",0.931
AUR1755,oyqbt8tp9s,Affordance Norms_ILSTU,1,21,2022-09-22T17:42:53+00:00,15.59492493,23,updated stim.csv,Version23.csv,Version 23,List 23,lodge,NA,677,4.833333333,1539,678,BOI,-,-,Please name all of the ways you could use this object. Keep in mind that one object can have many uses. Separate your responses with a comma.,NA,y,15459,NA,NA,2971,14364,NA,NA,NA,"roll, cut, split, heat, throw",1
AUR1755,oyqbt8tp9s,Affordance Norms_ILSTU,1,22,2022-09-22T17:43:25+00:00,32.1156559,23,updated stim.csv,Version23.csv,Version 23,List 23,lasso,NA,663,5.555555556,1468,664,BOI,-,-,Please name all of the ways you could use this object. Keep in mind that one object can have many uses. Separate your responses with a comma.,NA,y,31923,NA,NA,2237,30460,NA,NA,NA,"grab, hit, contain",1
AUR1755,oyqbt8tp9s,Affordance Norms_ILSTU,1,23,2022-09-22T17:43:43+00:00,17.55959702,23,updated stim.csv,Version23.csv,Version 23,List 23,podiatrist,NA,662,4.791666667,2016,663,BOI,-,-,Please name all of the ways you could use this object. Keep in mind that one object can have many uses. Separate your responses with a comma.,NA,y,17412,NA,NA,14454,15751,NA,NA,NA,"help, heal",0.683
AUR1755,oyqbt8tp9s,Affordance Norms_ILSTU,1,24,2022-09-22T17:43:55+00:00,12.50886917,23,updated stim.csv,Version23.csv,Version 23,List 23,shovel,NA,688,5.925925926,2363,689,BOI,-,-,Please name all of the ways you could use this object. Keep in mind that one object can have many uses. Separate your responses with a comma.,NA,y,12383,NA,NA,2362,9168,NA,NA,NA,"hit, uncover, cover",1
AUR1755,oyqbt8tp9s,Affordance Norms_ILSTU,1,25,2022-09-22T17:44:07+00:00,12.20010185,23,updated stim.csv,Version23.csv,Version 23,List 23,prize,NA,687,4.916666667,2069,688,BOI,-,-,Please name all of the ways you could use this object. Keep in mind that one object can have many uses. Separate your responses with a comma.,NA,y,12081,NA,NA,2090,10661,NA,NA,NA,"admire, enjoy",1
AUR1755,oyqbt8tp9s,Affordance Norms_ILSTU,1,26,2022-09-22T17:44:50+00:00,42.37013817,23,updated stim.csv,Version23.csv,Version 23,List 23,woodcraft,NA,664,4.296296296,2959,665,BOI,-,-,Please name all of the ways you could use this object. Keep in mind that one object can have many uses. Separate your responses with a comma.,NA,y,42163,NA,NA,39877,40289,NA,NA,NA,heat,0.943
AUR1755,oyqbt8tp9s,Affordance Norms_ILSTU,1,27,2022-09-22T17:45:42+00:00,52.49979687,23,updated stim.csv,Version23.csv,Version 23,List 23,brick,NA,671,5.64,317,672,BOI,-,-,Please name all of the ways you could use this object. Keep in mind that one object can have many uses. Separate your responses with a comma.,NA,y,52302,NA,NA,32380,34318,NA,NA,NA,"build, hit",1
AUR1755,oyqbt8tp9s,Affordance Norms_ILSTU,1,28,2022-09-22T17:45:49+00:00,6.718701124,23,updated stim.csv,Version23.csv,Version 23,List 23,bucket,NA,669,6,341,670,BOI,-,-,Please name all of the ways you could use this object. Keep in mind that one object can have many uses. Separate your responses with a comma.,NA,y,6570,NA,NA,1622,3463,NA,NA,NA,"fill, dump",1
