"Username","ID","ExperimentName","Session","Trial","Date","TimeDif","Condition.Number","Stimuli.File","Order.File","Condition.Description","Condition.Notes","Stimuli.Cue","Stimuli.Answer","Stimuli.Shuffle","Stimuli.Stimuli.Notes","Stimuli.Value","Stimuli.Rand","Procedure.Item","Procedure.Trial.Type","Procedure.Max.Time","Procedure.Min.Time","Procedure.Text","Procedure.Procedure.Notes","Procedure.Shuffle","Response.RT","Response.Response","Response.Accuracy","Response.RTfirst","Response.RTlast","Response.strictAcc","Response.lenientAcc","Response.focus","Response.JOL","Response.Focus"
"575f387c91f8b40006c332e1","hjug38oiui","Affordance Norms_Prolific",1,11,"2023-01-05T20:51:34+00:00",77.14231801033,41,"updated stim.csv","Version41.csv","Version 41","List 41","salt",NA,1230,5.260869565,2227,0.201353444,1231,"BOI","-","-","Please name all of the ways you could use this object. Keep in mind that one object can have many uses. Separate your responses with a comma.",NA,"y",76593,NA,NA,13713,60529,NA,NA,NA,"preserving food, making saline solution, tanning leather, flavouring food, killing slugs",0.968
"575f387c91f8b40006c332e1","hjug38oiui","Affordance Norms_Prolific",1,12,"2023-01-05T20:52:11+00:00",37.660155057907,41,"updated stim.csv","Version41.csv","Version 41","List 41","horseshoe",NA,1223,5.2,1316,0.39136791,1224,"BOI","-","-","Please name all of the ways you could use this object. Keep in mind that one object can have many uses. Separate your responses with a comma.",NA,"y",37007,NA,NA,5663,35959,NA,NA,NA,"playing horseshoes, protecting horses hooves ",0.949
"575f387c91f8b40006c332e1","hjug38oiui","Affordance Norms_Prolific",1,13,"2023-01-05T20:53:02+00:00",50.663639068604,41,"updated stim.csv","Version41.csv","Version 41","List 41","binoculars",NA,1205,6.16,218,0.501386564,1206,"BOI","-","-","Please name all of the ways you could use this object. Keep in mind that one object can have many uses. Separate your responses with a comma.",NA,"y",50125,NA,NA,10566,49733,NA,NA,NA,"train spotting, bird watching, spying, finding things, setting things on fire",0.959
"575f387c91f8b40006c332e1","hjug38oiui","Affordance Norms_Prolific",1,14,"2023-01-05T20:54:13+00:00",71.280894994736,41,"updated stim.csv","Version41.csv","Version 41","List 41","taxi",NA,1226,5.464285714,2639,0.84208141,1227,"BOI","-","-","Please name all of the ways you could use this object. Keep in mind that one object can have many uses. Separate your responses with a comma.",NA,"y",70720,NA,NA,11736,69704,NA,NA,NA,"Transportation, logistics(?), deliveries, safety",0.962
"575f387c91f8b40006c332e1","hjug38oiui","Affordance Norms_Prolific",1,15,"2023-01-05T20:55:19+00:00",65.521785974503,41,"updated stim.csv","Version41.csv","Version 41","List 41","bulb",NA,1211,5.391304348,351,0.177968887,1212,"BOI","-","-","Please name all of the ways you could use this object. Keep in mind that one object can have many uses. Separate your responses with a comma.",NA,"y",64970,NA,NA,10466,64626,NA,NA,NA,"Lighting rooms, illuminating dark areas, heating spaces (like enclosures for snakes)",0.973
"575f387c91f8b40006c332e1","hjug38oiui","Affordance Norms_Prolific",1,16,"2023-01-05T20:56:25+00:00",65.744823932648,41,"updated stim.csv","Version41.csv","Version 41","List 41","mammal",NA,1224,5.291666667,1585,0.612894163,1225,"BOI","-","-","Please name all of the ways you could use this object. Keep in mind that one object can have many uses. Separate your responses with a comma.",NA,"y",65186,NA,NA,2698,24954,NA,NA,NA,"food, companionship, materials (leather, bones)",0.991
"575f387c91f8b40006c332e1","hjug38oiui","Affordance Norms_Prolific",1,17,"2023-01-05T20:57:43+00:00",78.510318994522,41,"updated stim.csv","Version41.csv","Version 41","List 41","brickwork",NA,1215,4.777777778,319,0.63034646,1216,"BOI","-","-","Please name all of the ways you could use this object. Keep in mind that one object can have many uses. Separate your responses with a comma.",NA,"y",77979,NA,NA,6121,49666,NA,NA,NA,"Building walls, Building buildings, used as a weapon, doorstop, paper weight, ",0.972
"575f387c91f8b40006c332e1","hjug38oiui","Affordance Norms_Prolific",1,18,"2023-01-05T20:59:30+00:00",106.64231705666,41,"updated stim.csv","Version41.csv","Version 41","List 41","damsel",NA,1203,4.652173913,752,0.979544968,1204,"BOI","-","-","Please name all of the ways you could use this object. Keep in mind that one object can have many uses. Separate your responses with a comma.",NA,"y",106078,NA,NA,7430,105686,NA,NA,NA,"companionship, employment, labour",0.992
"575f387c91f8b40006c332e1","hjug38oiui","Affordance Norms_Prolific",1,19,"2023-01-05T21:00:59+00:00",89.361799955368,41,"updated stim.csv","Version41.csv","Version 41","List 41","cologne",NA,1222,5.541666667,604,0.545252119,1223,"BOI","-","-","Please name all of the ways you could use this object. Keep in mind that one object can have many uses. Separate your responses with a comma.",NA,"y",88800,NA,NA,32680,63375,NA,NA,NA,"removing smells, improving smells, blinding someone, starting a fire",0.819
"575f387c91f8b40006c332e1","hjug38oiui","Affordance Norms_Prolific",1,20,"2023-01-05T21:01:38+00:00",39.118119001389,41,"updated stim.csv","Version41.csv","Version 41","List 41","backgammon",NA,1209,4.869565217,115,0.973864898,1210,"BOI","-","-","Please name all of the ways you could use this object. Keep in mind that one object can have many uses. Separate your responses with a comma.",NA,"y",38572,NA,NA,6515,14795,NA,NA,NA,"Play with",0.971
"575f387c91f8b40006c332e1","hjug38oiui","Affordance Norms_Prolific",1,21,"2023-01-05T21:02:48+00:00",69.58620095253,41,"updated stim.csv","Version41.csv","Version 41","List 41","suitcase",NA,1202,6.08,2583,0.497880313,1203,"BOI","-","-","Please name all of the ways you could use this object. Keep in mind that one object can have many uses. Separate your responses with a comma.",NA,"y",69036,NA,NA,3380,66732,NA,NA,NA,"For storing things, Sitting on, riding down a slope, as a weapon, as a fashion accessory ",1
"575f387c91f8b40006c332e1","hjug38oiui","Affordance Norms_Prolific",1,22,"2023-01-05T21:04:03+00:00",75.251708984375,41,"updated stim.csv","Version41.csv","Version 41","List 41","gift",NA,1208,5.380952381,1102,0.119299181,1209,"BOI","-","-","Please name all of the ways you could use this object. Keep in mind that one object can have many uses. Separate your responses with a comma.",NA,"y",74693,NA,NA,44133,68084,NA,NA,NA,"to get closer to someone, to appease someone, to say sorry to someone, to show love",0.995
"575f387c91f8b40006c332e1","hjug38oiui","Affordance Norms_Prolific",1,23,"2023-01-05T21:05:07+00:00",64.47083902359,41,"updated stim.csv","Version41.csv","Version 41","List 41","tepee",NA,1206,4.916666667,2665,0.031465611,1207,"BOI","-","-","Please name all of the ways you could use this object. Keep in mind that one object can have many uses. Separate your responses with a comma.",NA,"y",63907,NA,NA,8979,59338,NA,NA,NA,"a home, a shelter from weather, a space for activities, as a decoration, fuel on a fire",1
"575f387c91f8b40006c332e1","hjug38oiui","Affordance Norms_Prolific",1,24,"2023-01-05T21:06:41+00:00",93.611267089844,41,"updated stim.csv","Version41.csv","Version 41","List 41","dildo",NA,1218,6.52173913,792,0.359697318,1219,"BOI","-","-","Please name all of the ways you could use this object. Keep in mind that one object can have many uses. Separate your responses with a comma.",NA,"y",93041,NA,NA,7641,76432,NA,NA,NA,"masturbation, pleasuring others, scaring people away, as a weapon, decoration",1
"575f387c91f8b40006c332e1","hjug38oiui","Affordance Norms_Prolific",1,25,"2023-01-05T21:08:00+00:00",78.825428962708,41,"updated stim.csv","Version41.csv","Version 41","List 41","lei",NA,1221,5.058823529,1488,0.689243752,1222,"BOI","-","-","Please name all of the ways you could use this object. Keep in mind that one object can have many uses. Separate your responses with a comma.",NA,"y",78250,NA,NA,38858,77706,NA,NA,NA,"as a gift, a decoration, a greeting",0.888
"575f387c91f8b40006c332e1","hjug38oiui","Affordance Norms_Prolific",1,26,"2023-01-05T21:09:00+00:00",59.668854951859,41,"updated stim.csv","Version41.csv","Version 41","List 41","tricycle",NA,1210,6.173913043,2775,0.61037498,1211,"BOI","-","-","Please name all of the ways you could use this object. Keep in mind that one object can have many uses. Separate your responses with a comma.",NA,"y",59112,NA,NA,11600,59056,NA,NA,NA,"transport, getting fitter, g",1
"575f387c91f8b40006c332e1","hjug38oiui","Affordance Norms_Prolific",1,27,"2023-01-05T21:10:27+00:00",87.094778060913,41,"updated stim.csv","Version41.csv","Version 41","List 41","roommate",NA,1207,5.16,2189,0.700228299,1208,"BOI","-","-","Please name all of the ways you could use this object. Keep in mind that one object can have many uses. Separate your responses with a comma.",NA,"y",86020,NA,NA,6348,83548,NA,NA,NA,"Doing chores, Paying rent, being a general dogsbody, for safety, companionship, to lessen burdens",0.983
"575f387c91f8b40006c332e1","hjug38oiui","Affordance Norms_Prolific",1,28,"2023-01-05T21:13:31+00:00",184.34211587906,41,"updated stim.csv","Version41.csv","Version 41","List 41","offspring",NA,1216,4.913043478,1801,0.688727773,1217,"BOI","-","-","Please name all of the ways you could use this object. Keep in mind that one object can have many uses. Separate your responses with a comma.",NA,"y",183256,NA,NA,62562,175354,NA,NA,NA,"to use more of the worlds resources, for fame, for prestige, for menial labour, to lower your networth",0.998
"575f387c91f8b40006c332e1","hjug38oiui","Affordance Norms_Prolific",1,29,"2023-01-05T21:14:36+00:00",65.192620038986,41,"updated stim.csv","Version41.csv","Version 41","List 41","nutcracker",NA,1229,5.36,1790,0.39078167,1230,"BOI","-","-","Please name all of the ways you could use this object. Keep in mind that one object can have many uses. Separate your responses with a comma.",NA,"y",64624,NA,NA,3705,58392,NA,NA,NA,"Cracking nuts, opening lobster, cracking open most crustaceans ",0.855
"575f387c91f8b40006c332e1","hjug38oiui","Affordance Norms_Prolific",1,30,"2023-01-05T21:16:10+00:00",93.60081911087,41,"updated stim.csv","Version41.csv","Version 41","List 41","germ",NA,1220,4.333333333,1100,0.401387694,1221,"BOI","-","-","Please name all of the ways you could use this object. Keep in mind that one object can have many uses. Separate your responses with a comma.",NA,"y",92519,NA,NA,11149,92125,NA,NA,NA,"To learn, to teach, making vaccines, digesting",0.831
"575f387c91f8b40006c332e1","hjug38oiui","Affordance Norms_Prolific",1,31,"2023-01-05T21:16:35+00:00",25.459056854248,41,"updated stim.csv","Version41.csv","Version 41","List 41","broach",NA,1228,5.041666667,326,0.873476961,1229,"BOI","-","-","Please name all of the ways you could use this object. Keep in mind that one object can have many uses. Separate your responses with a comma.",NA,"y",24902,NA,NA,-1,-1,NA,NA,NA,"",0.543
"575f387c91f8b40006c332e1","hjug38oiui","Affordance Norms_Prolific",1,32,"2023-01-05T21:17:45+00:00",69.877860069275,41,"updated stim.csv","Version41.csv","Version 41","List 41","snail",NA,1227,4.52173913,2426,0.923421612,1228,"BOI","-","-","Please name all of the ways you could use this object. Keep in mind that one object can have many uses. Separate your responses with a comma.",NA,"y",69336,NA,NA,5848,68999,NA,NA,NA,"Food for animals, A pet, A companion, Food, dissecting (teaching?) ",1
"575f387c91f8b40006c332e1","hjug38oiui","Affordance Norms_Prolific",1,33,"2023-01-05T21:19:35+00:00",109.78558397293,41,"updated stim.csv","Version41.csv","Version 41","List 41","bridegroom",NA,1213,4.384615385,320,0.221741376,1214,"BOI","-","-","Please name all of the ways you could use this object. Keep in mind that one object can have many uses. Separate your responses with a comma.",NA,"y",109236,NA,NA,43371,85947,NA,NA,NA,"A source for a new suit, companionship, an inspiration ",0.98
"575f387c91f8b40006c332e1","hjug38oiui","Affordance Norms_Prolific",1,34,"2023-01-05T21:20:43+00:00",68.156106948853,41,"updated stim.csv","Version41.csv","Version 41","List 41","calipers",NA,1204,4.666666667,403,0.126530189,1205,"BOI","-","-","Please name all of the ways you could use this object. Keep in mind that one object can have many uses. Separate your responses with a comma.",NA,"y",67581,NA,NA,13589,66172,NA,NA,NA,"to measure, to calculate body fat",0.801
"575f387c91f8b40006c332e1","hjug38oiui","Affordance Norms_Prolific",1,35,"2023-01-05T21:21:35+00:00",51.873748064041,41,"updated stim.csv","Version41.csv","Version 41","List 41","narcotics",NA,1225,4.956521739,1736,0.332286581,1226,"BOI","-","-","Please name all of the ways you could use this object. Keep in mind that one object can have many uses. Separate your responses with a comma.",NA,"y",51310,NA,NA,6077,17637,NA,NA,NA,"for release, for fun, for money",0.979
"575f387c91f8b40006c332e1","hjug38oiui","Affordance Norms_Prolific",1,36,"2023-01-05T21:22:35+00:00",59.787042140961,41,"updated stim.csv","Version41.csv","Version 41","List 41","game",NA,1214,4.518518519,1071,0.724311599,1215,"BOI","-","-","Please name all of the ways you could use this object. Keep in mind that one object can have many uses. Separate your responses with a comma.",NA,"y",58703,NA,NA,38287,58263,NA,NA,NA,"To entertain, to learn, to exercise, to compete",1
"575f387c91f8b40006c332e1","hjug38oiui","Affordance Norms_Prolific",1,37,"2023-01-05T21:23:23+00:00",48.540856838226,41,"updated stim.csv","Version41.csv","Version 41","List 41","fedora",NA,1212,6.291666667,958,0.921091513,1213,"BOI","-","-","Please name all of the ways you could use this object. Keep in mind that one object can have many uses. Separate your responses with a comma.",NA,"y",47933,NA,NA,3820,46188,NA,NA,NA,"to shield from weather, as a fashion accessory, as fuel, for its materials",1
"575f387c91f8b40006c332e1","hjug38oiui","Affordance Norms_Prolific",1,38,"2023-01-05T21:24:03+00:00",39.799086093903,41,"updated stim.csv","Version41.csv","Version 41","List 41","broccoli",NA,1217,5.04,327,0.675911769,1218,"BOI","-","-","Please name all of the ways you could use this object. Keep in mind that one object can have many uses. Separate your responses with a comma.",NA,"y",39259,NA,NA,7923,22267,NA,NA,NA,"to eat, for compost, to feed animals, ",1
"575f387c91f8b40006c332e1","hjug38oiui","Affordance Norms_Prolific",1,39,"2023-01-05T21:25:15+00:00",72.373578071594,41,"updated stim.csv","Version41.csv","Version 41","List 41","train",NA,1201,5.333333333,2756,0.399821565,1202,"BOI","-","-","Please name all of the ways you could use this object. Keep in mind that one object can have many uses. Separate your responses with a comma.",NA,"y",71258,NA,NA,8291,70714,NA,NA,NA,"to travel, transporting things, suicide, for entertainment (trainspotters?)",0.909
"575f387c91f8b40006c332e1","hjug38oiui","Affordance Norms_Prolific",1,40,"2023-01-05T21:26:15+00:00",59.120054960251,41,"updated stim.csv","Version41.csv","Version 41","List 41","chairwoman",NA,1219,4.347826087,488,0.537040183,1220,"BOI","-","-","Please name all of the ways you could use this object. Keep in mind that one object can have many uses. Separate your responses with a comma.",NA,"y",58051,NA,NA,5155,57866,NA,NA,NA,"companionship, for a promotion",0.965
"583c7c44164cd30001c345d6","ct9x8vglhv","Affordance Norms_Prolific",1,11,"2023-01-05T20:33:46+00:00",27.406612873077,89,"updated stim.csv","Version89.csv","Version 89","List 89","bathtub",NA,2650,6.565217391,170,0.48897818,2651,"BOI","-","-","Please name all of the ways you could use this object. Keep in mind that one object can have many uses. Separate your responses with a comma.",NA,"y",26770,NA,NA,2562,25111,NA,NA,NA,"washing self, washing clothes, planter box",1
"583c7c44164cd30001c345d6","ct9x8vglhv","Affordance Norms_Prolific",1,12,"2023-01-05T20:34:19+00:00",33.248883962631,89,"updated stim.csv","Version89.csv","Version 89","List 89","crackers",NA,2667,5.913043478,677,0.103099472,2668,"BOI","-","-","Please name all of the ways you could use this object. Keep in mind that one object can have many uses. Separate your responses with a comma.",NA,"y",23782,NA,NA,1898,21468,NA,NA,NA,"food, art, noise maker",1
"583c7c44164cd30001c345d6","ct9x8vglhv","Affordance Norms_Prolific",1,13,"2023-01-05T20:34:47+00:00",27.329832077026,89,"updated stim.csv","Version89.csv","Version 89","List 89","husband",NA,2662,6.041666667,1338,0.500019135,2663,"BOI","-","-","Please name all of the ways you could use this object. Keep in mind that one object can have many uses. Separate your responses with a comma.",NA,"y",26683,NA,NA,5365,25060,NA,NA,NA,"partner, father, helper",1
"583c7c44164cd30001c345d6","ct9x8vglhv","Affordance Norms_Prolific",1,14,"2023-01-05T20:35:21+00:00",34.178155899048,89,"updated stim.csv","Version89.csv","Version 89","List 89","rail",NA,2658,5.517241379,2127,0.025104214,2659,"BOI","-","-","Please name all of the ways you could use this object. Keep in mind that one object can have many uses. Separate your responses with a comma.",NA,"y",33387,NA,NA,5769,32008,NA,NA,NA,"guide, help getting down stairs",1
"583c7c44164cd30001c345d6","ct9x8vglhv","Affordance Norms_Prolific",1,15,"2023-01-05T20:35:56+00:00",35.326821088791,89,"updated stim.csv","Version89.csv","Version 89","List 89","waitress",NA,2649,4.826086957,2884,0.178678826,2650,"BOI","-","-","Please name all of the ways you could use this object. Keep in mind that one object can have many uses. Separate your responses with a comma.",NA,"y",27857,NA,NA,9497,26482,NA,NA,NA,"deliver food, accept payment, cleaning",1
"583c7c44164cd30001c345d6","ct9x8vglhv","Affordance Norms_Prolific",1,16,"2023-01-05T20:36:27+00:00",30.454619884491,89,"updated stim.csv","Version89.csv","Version 89","List 89","mum",NA,2646,4.416666667,1719,0.704204495,2647,"BOI","-","-","Please name all of the ways you could use this object. Keep in mind that one object can have many uses. Separate your responses with a comma.",NA,"y",23194,NA,NA,6244,21494,NA,NA,NA,"friend, helper",1
"583c7c44164cd30001c345d6","ct9x8vglhv","Affordance Norms_Prolific",1,17,"2023-01-05T20:36:50+00:00",23.143335103989,89,"updated stim.csv","Version89.csv","Version 89","List 89","congresswoman",NA,2648,4.32,627,0.309120151,2649,"BOI","-","-","Please name all of the ways you could use this object. Keep in mind that one object can have many uses. Separate your responses with a comma.",NA,"y",22542,NA,NA,5044,20753,NA,NA,NA,"passing bills, spokesperson",1
"583c7c44164cd30001c345d6","ct9x8vglhv","Affordance Norms_Prolific",1,18,"2023-01-05T20:37:12+00:00",22.53250002861,89,"updated stim.csv","Version89.csv","Version 89","List 89","barkeep",NA,2670,4.260869565,148,0.310357294,2671,"BOI","-","-","Please name all of the ways you could use this object. Keep in mind that one object can have many uses. Separate your responses with a comma.",NA,"y",20714,NA,NA,4442,18162,NA,NA,NA,"deliver drinks, accept payment",1
"583c7c44164cd30001c345d6","ct9x8vglhv","Affordance Norms_Prolific",1,19,"2023-01-05T20:37:42+00:00",30.121887922287,89,"updated stim.csv","Version89.csv","Version 89","List 89","picnicker",NA,2668,4.458333333,1951,0.609841409,2669,"BOI","-","-","Please name all of the ways you could use this object. Keep in mind that one object can have many uses. Separate your responses with a comma.",NA,"y",24101,NA,NA,19165,21244,NA,NA,NA,"food?",1
"583c7c44164cd30001c345d6","ct9x8vglhv","Affordance Norms_Prolific",1,20,"2023-01-05T20:38:03+00:00",20.664456129074,89,"updated stim.csv","Version89.csv","Version 89","List 89","cupboard",NA,2661,5.782608696,727,0.324024312,2662,"BOI","-","-","Please name all of the ways you could use this object. Keep in mind that one object can have many uses. Separate your responses with a comma.",NA,"y",19152,NA,NA,5902,17234,NA,NA,NA,"storage, hiding",0.966
"583c7c44164cd30001c345d6","ct9x8vglhv","Affordance Norms_Prolific",1,21,"2023-01-05T20:38:16+00:00",12.699185848236,89,"updated stim.csv","Version89.csv","Version 89","List 89","rocker",NA,2656,5.04,2184,0.968839811,2657,"BOI","-","-","Please name all of the ways you could use this object. Keep in mind that one object can have many uses. Separate your responses with a comma.",NA,"y",11970,NA,NA,7220,10399,NA,NA,NA,"musician",1
"583c7c44164cd30001c345d6","ct9x8vglhv","Affordance Norms_Prolific",1,22,"2023-01-05T20:38:33+00:00",17.754439115524,89,"updated stim.csv","Version89.csv","Version 89","List 89","catwalk",NA,2665,4.652173913,464,0.140628779,2666,"BOI","-","-","Please name all of the ways you could use this object. Keep in mind that one object can have many uses. Separate your responses with a comma.",NA,"y",17056,NA,NA,4870,7899,NA,NA,NA,"bridge",1
"583c7c44164cd30001c345d6","ct9x8vglhv","Affordance Norms_Prolific",1,23,"2023-01-05T20:38:46+00:00",12.159862995148,89,"updated stim.csv","Version89.csv","Version 89","List 89","banister",NA,2651,5.130434783,140,0.506891939,2652,"BOI","-","-","Please name all of the ways you could use this object. Keep in mind that one object can have many uses. Separate your responses with a comma.",NA,"y",11564,NA,NA,4591,8350,NA,NA,NA,"railing, guide",1
"583c7c44164cd30001c345d6","ct9x8vglhv","Affordance Norms_Prolific",1,24,"2023-01-05T20:39:16+00:00",30.141535043716,89,"updated stim.csv","Version89.csv","Version 89","List 89","hat",NA,2652,6.44,1258,0.995555698,2653,"BOI","-","-","Please name all of the ways you could use this object. Keep in mind that one object can have many uses. Separate your responses with a comma.",NA,"y",29548,NA,NA,4061,27987,NA,NA,NA,"coverage from rain, keep head warm, storage",1
"583c7c44164cd30001c345d6","ct9x8vglhv","Affordance Norms_Prolific",1,25,"2023-01-05T20:39:45+00:00",28.842116832733,89,"updated stim.csv","Version89.csv","Version 89","List 89","trash",NA,2663,5.136363636,2764,0.824491911,2664,"BOI","-","-","Please name all of the ways you could use this object. Keep in mind that one object can have many uses. Separate your responses with a comma.",NA,"y",26861,NA,NA,3790,25553,NA,NA,NA,"storage, waste bin, hiding something",1
"583c7c44164cd30001c345d6","ct9x8vglhv","Affordance Norms_Prolific",1,26,"2023-01-05T20:40:00+00:00",15.020106077194,89,"updated stim.csv","Version89.csv","Version 89","List 89","brooch",NA,2664,5.130434783,331,0.778970626,2665,"BOI","-","-","Please name all of the ways you could use this object. Keep in mind that one object can have many uses. Separate your responses with a comma.",NA,"y",14458,NA,NA,8413,13258,NA,NA,NA,"art, jewllery",1
"583c7c44164cd30001c345d6","ct9x8vglhv","Affordance Norms_Prolific",1,27,"2023-01-05T20:40:45+00:00",45.249577999115,89,"updated stim.csv","Version89.csv","Version 89","List 89","jar",NA,2655,6.208333333,1373,0.13576901,2656,"BOI","-","-","Please name all of the ways you could use this object. Keep in mind that one object can have many uses. Separate your responses with a comma.",NA,"y",12939,NA,NA,2108,11170,NA,NA,NA,"noise maker, storage",1
"583c7c44164cd30001c345d6","ct9x8vglhv","Affordance Norms_Prolific",1,28,"2023-01-05T20:41:03+00:00",18.457653999329,89,"updated stim.csv","Version89.csv","Version 89","List 89","icepick",NA,2657,5.416666667,1347,0.619650655,2658,"BOI","-","-","Please name all of the ways you could use this object. Keep in mind that one object can have many uses. Separate your responses with a comma.",NA,"y",17849,NA,NA,2501,14976,NA,NA,NA,"weapon, chiseling ice",1
"583c7c44164cd30001c345d6","ct9x8vglhv","Affordance Norms_Prolific",1,29,"2023-01-05T20:41:26+00:00",22.983528137207,89,"updated stim.csv","Version89.csv","Version 89","List 89","guestroom",NA,2642,4.538461538,1190,0.361886166,2643,"BOI","-","-","Please name all of the ways you could use this object. Keep in mind that one object can have many uses. Separate your responses with a comma.",NA,"y",19850,NA,NA,6805,18446,NA,NA,NA,"bed, hiding spot",1
"583c7c44164cd30001c345d6","ct9x8vglhv","Affordance Norms_Prolific",1,30,"2023-01-05T20:41:54+00:00",27.35452580452,89,"updated stim.csv","Version89.csv","Version 89","List 89","band",NA,2643,4.384615385,137,0.320058041,2644,"BOI","-","-","Please name all of the ways you could use this object. Keep in mind that one object can have many uses. Separate your responses with a comma.",NA,"y",23750,NA,NA,6534,22253,NA,NA,NA,"musician , music, holding things",1
"583c7c44164cd30001c345d6","ct9x8vglhv","Affordance Norms_Prolific",1,31,"2023-01-05T20:42:09+00:00",15.58522605896,89,"updated stim.csv","Version89.csv","Version 89","List 89","entree",NA,2645,5.28,912,0.254776783,2646,"BOI","-","-","Please name all of the ways you could use this object. Keep in mind that one object can have many uses. Separate your responses with a comma.",NA,"y",9546,NA,NA,5434,6497,NA,NA,NA,"food",1
"583c7c44164cd30001c345d6","ct9x8vglhv","Affordance Norms_Prolific",1,32,"2023-01-05T20:42:23+00:00",13.773265123367,89,"updated stim.csv","Version89.csv","Version 89","List 89","dwarf",NA,2666,4.333333333,871,0.117156022,2667,"BOI","-","-","Please name all of the ways you could use this object. Keep in mind that one object can have many uses. Separate your responses with a comma.",NA,"y",12466,NA,NA,2500,10376,NA,NA,NA,"short, friend, helper",0.984
"583c7c44164cd30001c345d6","ct9x8vglhv","Affordance Norms_Prolific",1,33,"2023-01-05T20:42:39+00:00",16.062691926956,89,"updated stim.csv","Version89.csv","Version 89","List 89","radio",NA,2647,5.291666667,2122,0.897583079,2648,"BOI","-","-","Please name all of the ways you could use this object. Keep in mind that one object can have many uses. Separate your responses with a comma.",NA,"y",15427,NA,NA,2793,13828,NA,NA,NA,"entertainment, music, news, ads",1
"583c7c44164cd30001c345d6","ct9x8vglhv","Affordance Norms_Prolific",1,34,"2023-01-05T20:42:48+00:00",8.4424469470978,89,"updated stim.csv","Version89.csv","Version 89","List 89","garb",NA,2653,4.541666667,1074,0.214589886,2654,"BOI","-","-","Please name all of the ways you could use this object. Keep in mind that one object can have many uses. Separate your responses with a comma.",NA,"y",7874,NA,NA,4344,6295,NA,NA,NA,"clothing",1
"583c7c44164cd30001c345d6","ct9x8vglhv","Affordance Norms_Prolific",1,35,"2023-01-05T20:42:59+00:00",11.25177192688,89,"updated stim.csv","Version89.csv","Version 89","List 89","lick",NA,2644,4.652173913,1502,0.157624694,2645,"BOI","-","-","Please name all of the ways you could use this object. Keep in mind that one object can have many uses. Separate your responses with a comma.",NA,"y",10627,NA,NA,3363,9217,NA,NA,NA,"feeling, wet",1
"583c7c44164cd30001c345d6","ct9x8vglhv","Affordance Norms_Prolific",1,36,"2023-01-05T20:43:08+00:00",9.1637380123138,89,"updated stim.csv","Version89.csv","Version 89","List 89","hamburger",NA,2660,6.148148148,1222,0.48776635,2661,"BOI","-","-","Please name all of the ways you could use this object. Keep in mind that one object can have many uses. Separate your responses with a comma.",NA,"y",8342,NA,NA,1949,3051,NA,NA,NA,"food",1
"583c7c44164cd30001c345d6","ct9x8vglhv","Affordance Norms_Prolific",1,37,"2023-01-05T20:43:22+00:00",14.268311023712,89,"updated stim.csv","Version89.csv","Version 89","List 89","croquette",NA,2669,4.681818182,702,0.945016361,2670,"BOI","-","-","Please name all of the ways you could use this object. Keep in mind that one object can have many uses. Separate your responses with a comma.",NA,"y",13673,NA,NA,2817,3945,NA,NA,NA,"food",1
"583c7c44164cd30001c345d6","ct9x8vglhv","Affordance Norms_Prolific",1,38,"2023-01-05T20:43:40+00:00",17.833817958832,89,"updated stim.csv","Version89.csv","Version 89","List 89","needles",NA,2659,5.416666667,1747,0.410145567,2660,"BOI","-","-","Please name all of the ways you could use this object. Keep in mind that one object can have many uses. Separate your responses with a comma.",NA,"y",17050,NA,NA,4935,13594,NA,NA,NA,"medicine, drugs",1
"583c7c44164cd30001c345d6","ct9x8vglhv","Affordance Norms_Prolific",1,39,"2023-01-05T20:44:03+00:00",22.57538819313,89,"updated stim.csv","Version89.csv","Version 89","List 89","lace",NA,2641,4.869565217,1445,0.627616705,2642,"BOI","-","-","Please name all of the ways you could use this object. Keep in mind that one object can have many uses. Separate your responses with a comma.",NA,"y",21954,NA,NA,7538,18565,NA,NA,NA,"tie something",1
"583c7c44164cd30001c345d6","ct9x8vglhv","Affordance Norms_Prolific",1,40,"2023-01-05T20:44:26+00:00",23.116259813309,89,"updated stim.csv","Version89.csv","Version 89","List 89","plaintiff",NA,2654,4.375,1985,0.803622684,2655,"BOI","-","-","Please name all of the ways you could use this object. Keep in mind that one object can have many uses. Separate your responses with a comma.",NA,"y",22535,NA,NA,19528,20789,NA,NA,NA,"court",1
"596e1edd39e9d00001b7bb98","h42frml2ok","Affordance Norms_Prolific",1,11,"2023-01-05T20:52:16+00:00",31.157021999359,44,"updated stim.csv","Version44.csv","Version 44","List 44","footstool",NA,1311,6.304347826,1039,0.950781043,1312,"BOI","-","-","Please name all of the ways you could use this object. Keep in mind that one object can have many uses. Separate your responses with a comma.",NA,"y",30811,NA,NA,1717,20884,NA,NA,NA,"put feet on it, hold door open with it, put stuff on top of it, stand on it, ",1
"596e1edd39e9d00001b7bb98","h42frml2ok","Affordance Norms_Prolific",1,12,"2023-01-05T20:52:48+00:00",31.99759221077,44,"updated stim.csv","Version44.csv","Version 44","List 44","handbag",NA,1293,6,1229,0.494065236,1294,"BOI","-","-","Please name all of the ways you could use this object. Keep in mind that one object can have many uses. Separate your responses with a comma.",NA,"y",31651,NA,NA,1735,9110,NA,NA,NA,"put stuff in it, hit people with it, ",1
"596e1edd39e9d00001b7bb98","h42frml2ok","Affordance Norms_Prolific",1,13,"2023-01-05T20:53:30+00:00",42.225886821747,44,"updated stim.csv","Version44.csv","Version 44","List 44","vodka",NA,1312,5.56,2872,0.424897598,1313,"BOI","-","-","Please name all of the ways you could use this object. Keep in mind that one object can have many uses. Separate your responses with a comma.",NA,"y",41897,NA,NA,1726,39605,NA,NA,NA,"drink it, make a molotov cocktail, mix it, give it to someone",1
"596e1edd39e9d00001b7bb98","h42frml2ok","Affordance Norms_Prolific",1,14,"2023-01-05T20:53:52+00:00",21.665088176727,44,"updated stim.csv","Version44.csv","Version 44","List 44","divorcee",NA,1301,4.5,807,0.882392822,1302,"BOI","-","-","Please name all of the ways you could use this object. Keep in mind that one object can have many uses. Separate your responses with a comma.",NA,"y",21321,NA,NA,3945,12326,NA,NA,NA,"""Divorcee"" is not an object",1
"596e1edd39e9d00001b7bb98","h42frml2ok","Affordance Norms_Prolific",1,15,"2023-01-05T20:54:14+00:00",22.283217906952,44,"updated stim.csv","Version44.csv","Version 44","List 44","residence",NA,1304,4.333333333,2157,0.416081032,1305,"BOI","-","-","Please name all of the ways you could use this object. Keep in mind that one object can have many uses. Separate your responses with a comma.",NA,"y",21956,NA,NA,12490,20978,NA,NA,NA,"live in it?",1
"596e1edd39e9d00001b7bb98","h42frml2ok","Affordance Norms_Prolific",1,16,"2023-01-05T20:54:42+00:00",27.934015989304,44,"updated stim.csv","Version44.csv","Version 44","List 44","compass",NA,1308,5.538461538,612,0.979445035,1309,"BOI","-","-","Please name all of the ways you could use this object. Keep in mind that one object can have many uses. Separate your responses with a comma.",NA,"y",27587,NA,NA,1606,25917,NA,NA,NA,"use it to navigate, use it as an aesthetic background object",1
"596e1edd39e9d00001b7bb98","h42frml2ok","Affordance Norms_Prolific",1,17,"2023-01-05T20:54:59+00:00",16.966272115707,44,"updated stim.csv","Version44.csv","Version 44","List 44","shortbread",NA,1314,5.416666667,2356,0.792275281,1315,"BOI","-","-","Please name all of the ways you could use this object. Keep in mind that one object can have many uses. Separate your responses with a comma.",NA,"y",16638,NA,NA,1738,15434,NA,NA,NA,"eat it, feed it to someone or something else",1
"596e1edd39e9d00001b7bb98","h42frml2ok","Affordance Norms_Prolific",1,18,"2023-01-05T20:55:14+00:00",15.652486801147,44,"updated stim.csv","Version44.csv","Version 44","List 44","cellophane",NA,1315,4.703703704,475,0.725467962,1316,"BOI","-","-","Please name all of the ways you could use this object. Keep in mind that one object can have many uses. Separate your responses with a comma.",NA,"y",15019,NA,NA,1543,3719,NA,NA,NA,"wrap stuff with it,",1
"596e1edd39e9d00001b7bb98","h42frml2ok","Affordance Norms_Prolific",1,19,"2023-01-05T20:55:44+00:00",29.404966115952,44,"updated stim.csv","Version44.csv","Version 44","List 44","braid",NA,1318,5.64,301,0.361765589,1319,"BOI","-","-","Please name all of the ways you could use this object. Keep in mind that one object can have many uses. Separate your responses with a comma.",NA,"y",28995,NA,NA,5962,27754,NA,NA,NA,"""braid"" is not an object",0.993
"596e1edd39e9d00001b7bb98","h42frml2ok","Affordance Norms_Prolific",1,20,"2023-01-05T20:55:56+00:00",12.0005838871,44,"updated stim.csv","Version44.csv","Version 44","List 44","yearbook",NA,1294,5.56,2992,0.3747712,1295,"BOI","-","-","Please name all of the ways you could use this object. Keep in mind that one object can have many uses. Separate your responses with a comma.",NA,"y",11662,NA,NA,2224,10592,NA,NA,NA,"look at it, put it on the shelf, bin it, sell it?",1
"596e1edd39e9d00001b7bb98","h42frml2ok","Affordance Norms_Prolific",1,21,"2023-01-05T20:56:13+00:00",17.296252965927,44,"updated stim.csv","Version44.csv","Version 44","List 44","cradle",NA,1306,5.652173913,678,0.526019594,1307,"BOI","-","-","Please name all of the ways you could use this object. Keep in mind that one object can have many uses. Separate your responses with a comma.",NA,"y",16969,NA,NA,1712,13632,NA,NA,NA,"rock it, do nothing with it, put a child in it",1
"596e1edd39e9d00001b7bb98","h42frml2ok","Affordance Norms_Prolific",1,22,"2023-01-05T20:56:24+00:00",10.800849199295,44,"updated stim.csv","Version44.csv","Version 44","List 44","oregano",NA,1302,5.64,1819,0.948711001,1303,"BOI","-","-","Please name all of the ways you could use this object. Keep in mind that one object can have many uses. Separate your responses with a comma.",NA,"y",10471,NA,NA,2239,8167,NA,NA,NA,"use it on food, throw it away",1
"596e1edd39e9d00001b7bb98","h42frml2ok","Affordance Norms_Prolific",1,23,"2023-01-05T20:56:42+00:00",17.919899940491,44,"updated stim.csv","Version44.csv","Version 44","List 44","pepper",NA,1298,5.875,1921,0.51260415,1299,"BOI","-","-","Please name all of the ways you could use this object. Keep in mind that one object can have many uses. Separate your responses with a comma.",NA,"y",17588,NA,NA,3796,7828,NA,NA,NA,"put it on food, sniff it, ",1
"596e1edd39e9d00001b7bb98","h42frml2ok","Affordance Norms_Prolific",1,24,"2023-01-05T20:56:50+00:00",8.2052590847015,44,"updated stim.csv","Version44.csv","Version 44","List 44","lyre",NA,1317,4.45,1561,0.008434586,1318,"BOI","-","-","Please name all of the ways you could use this object. Keep in mind that one object can have many uses. Separate your responses with a comma.",NA,"y",7880,NA,NA,2619,7059,NA,NA,NA,"play music on it",1
"596e1edd39e9d00001b7bb98","h42frml2ok","Affordance Norms_Prolific",1,25,"2023-01-05T20:57:07+00:00",17.098313808441,44,"updated stim.csv","Version44.csv","Version 44","List 44","extinguisher",NA,1296,5.043478261,928,0.866025303,1297,"BOI","-","-","Please name all of the ways you could use this object. Keep in mind that one object can have many uses. Separate your responses with a comma.",NA,"y",16768,NA,NA,1463,15687,NA,NA,NA,"put fires out with it, hold doors open with it, use it as a weapon",1
"596e1edd39e9d00001b7bb98","h42frml2ok","Affordance Norms_Prolific",1,26,"2023-01-05T20:57:16+00:00",9.0214869976044,44,"updated stim.csv","Version44.csv","Version 44","List 44","headdress",NA,1305,5.541666667,1265,0.112210064,1306,"BOI","-","-","Please name all of the ways you could use this object. Keep in mind that one object can have many uses. Separate your responses with a comma.",NA,"y",8638,NA,NA,2673,5009,NA,NA,NA,"put it on your head",1
"596e1edd39e9d00001b7bb98","h42frml2ok","Affordance Norms_Prolific",1,27,"2023-01-05T20:57:41+00:00",24.621225118637,44,"updated stim.csv","Version44.csv","Version 44","List 44","carpeting",NA,1297,5.115384615,438,0.900071999,1298,"BOI","-","-","Please name all of the ways you could use this object. Keep in mind that one object can have many uses. Separate your responses with a comma.",NA,"y",24284,NA,NA,2017,23081,NA,NA,NA,"put it on the floor, put it somewhere else, use it to make something?",1
"596e1edd39e9d00001b7bb98","h42frml2ok","Affordance Norms_Prolific",1,28,"2023-01-05T20:57:50+00:00",9.7230460643768,44,"updated stim.csv","Version44.csv","Version 44","List 44","newsman",NA,1310,4.285714286,1759,0.857043945,1311,"BOI","-","-","Please name all of the ways you could use this object. Keep in mind that one object can have many uses. Separate your responses with a comma.",NA,"y",9394,NA,NA,4478,8350,NA,NA,NA,"a ""newsman"" isn't an object",1
"596e1edd39e9d00001b7bb98","h42frml2ok","Affordance Norms_Prolific",1,29,"2023-01-05T20:58:09+00:00",18.408519983292,44,"updated stim.csv","Version44.csv","Version 44","List 44","porch",NA,1313,4.44,2036,0.064521605,1314,"BOI","-","-","Please name all of the ways you could use this object. Keep in mind that one object can have many uses. Separate your responses with a comma.",NA,"y",18077,NA,NA,3610,17338,NA,NA,NA,"""porch"" isn't an object that can be used",1
"596e1edd39e9d00001b7bb98","h42frml2ok","Affordance Norms_Prolific",1,30,"2023-01-05T20:58:25+00:00",15.690061807632,44,"updated stim.csv","Version44.csv","Version 44","List 44","glassware",NA,1303,5.964285714,1113,0.538524364,1304,"BOI","-","-","Please name all of the ways you could use this object. Keep in mind that one object can have many uses. Separate your responses with a comma.",NA,"y",15363,NA,NA,1683,13819,NA,NA,NA,"use it to store stuff, put drink in it, throw it",1
"596e1edd39e9d00001b7bb98","h42frml2ok","Affordance Norms_Prolific",1,31,"2023-01-05T20:58:35+00:00",10.272390127182,44,"updated stim.csv","Version44.csv","Version 44","List 44","cabin",NA,1316,4.56,388,0.925507739,1317,"BOI","-","-","Please name all of the ways you could use this object. Keep in mind that one object can have many uses. Separate your responses with a comma.",NA,"y",9947,NA,NA,1563,6163,NA,NA,NA,"live in it, put stuff in it",1
"596e1edd39e9d00001b7bb98","h42frml2ok","Affordance Norms_Prolific",1,32,"2023-01-05T20:58:46+00:00",11.090274095535,44,"updated stim.csv","Version44.csv","Version 44","List 44","sauna",NA,1295,5.363636364,2251,0.802464898,1296,"BOI","-","-","Please name all of the ways you could use this object. Keep in mind that one object can have many uses. Separate your responses with a comma.",NA,"y",10751,NA,NA,3374,9422,NA,NA,NA,"sit in it, let other people sit in it.",1
"596e1edd39e9d00001b7bb98","h42frml2ok","Affordance Norms_Prolific",1,33,"2023-01-05T20:59:03+00:00",16.94738483429,44,"updated stim.csv","Version44.csv","Version 44","List 44","pillar",NA,1299,5.041666667,1961,0.56170011,1300,"BOI","-","-","Please name all of the ways you could use this object. Keep in mind that one object can have many uses. Separate your responses with a comma.",NA,"y",16624,NA,NA,2598,12007,NA,NA,NA,"support things with it, ",1
"596e1edd39e9d00001b7bb98","h42frml2ok","Affordance Norms_Prolific",1,34,"2023-01-05T20:59:19+00:00",16.05273604393,44,"updated stim.csv","Version44.csv","Version 44","List 44","cow",NA,1320,5.434782609,671,0.696277817,1321,"BOI","-","-","Please name all of the ways you could use this object. Keep in mind that one object can have many uses. Separate your responses with a comma.",NA,"y",15730,NA,NA,4851,14163,NA,NA,NA,"cage it, feed it, milk it, eat it?",0.959
"596e1edd39e9d00001b7bb98","h42frml2ok","Affordance Norms_Prolific",1,35,"2023-01-05T20:59:34+00:00",15.525856971741,44,"updated stim.csv","Version44.csv","Version 44","List 44","beer",NA,1309,5.791666667,192,0.863265294,1310,"BOI","-","-","Please name all of the ways you could use this object. Keep in mind that one object can have many uses. Separate your responses with a comma.",NA,"y",15199,NA,NA,1150,13710,NA,NA,NA,"drink it, sell it, give it away, add it to food?",1
"596e1edd39e9d00001b7bb98","h42frml2ok","Affordance Norms_Prolific",1,36,"2023-01-05T20:59:51+00:00",16.303228139877,44,"updated stim.csv","Version44.csv","Version 44","List 44","caviar",NA,1307,4.818181818,468,0.271405967,1308,"BOI","-","-","Please name all of the ways you could use this object. Keep in mind that one object can have many uses. Separate your responses with a comma.",NA,"y",15970,NA,NA,1370,14691,NA,NA,NA,"eat it, give it to others",1
"596e1edd39e9d00001b7bb98","h42frml2ok","Affordance Norms_Prolific",1,37,"2023-01-05T21:00:06+00:00",15.528975009918,44,"updated stim.csv","Version44.csv","Version 44","List 44","pliers",NA,1300,6.086956522,2007,0.303050186,1301,"BOI","-","-","Please name all of the ways you could use this object. Keep in mind that one object can have many uses. Separate your responses with a comma.",NA,"y",15204,NA,NA,2393,6457,NA,NA,NA,"open stuff with it",1
"596e1edd39e9d00001b7bb98","h42frml2ok","Affordance Norms_Prolific",1,38,"2023-01-05T21:00:21+00:00",14.760391950607,44,"updated stim.csv","Version44.csv","Version 44","List 44","watermelon",NA,1291,5.869565217,2911,0.101416445,1292,"BOI","-","-","Please name all of the ways you could use this object. Keep in mind that one object can have many uses. Separate your responses with a comma.",NA,"y",14429,NA,NA,1363,9195,NA,NA,NA,"eat it, put rubber bands around it until it explodes",1
"596e1edd39e9d00001b7bb98","h42frml2ok","Affordance Norms_Prolific",1,39,"2023-01-05T21:00:33+00:00",12.428426980972,44,"updated stim.csv","Version44.csv","Version 44","List 44","racehorse",NA,1292,5.208333333,2118,0.754913971,1293,"BOI","-","-","Please name all of the ways you could use this object. Keep in mind that one object can have many uses. Separate your responses with a comma.",NA,"y",12095,NA,NA,1850,10185,NA,NA,NA,"enter it into races?",0.951
"596e1edd39e9d00001b7bb98","h42frml2ok","Affordance Norms_Prolific",1,40,"2023-01-05T21:00:49+00:00",15.685117959976,44,"updated stim.csv","Version44.csv","Version 44","List 44","barricade",NA,1319,4.28,155,0.883498007,1320,"BOI","-","-","Please name all of the ways you could use this object. Keep in mind that one object can have many uses. Separate your responses with a comma.",NA,"y",15351,NA,NA,1380,13948,NA,NA,NA,"place it somewhere to prevent access",1
"5b65628dcb06ee00015f6c9c","sn43kxsjl6","Affordance Norms_Prolific",1,11,"2023-01-05T20:51:03+00:00",15.650948047638,42,"updated stim.csv","Version42.csv","Version 42","List 42","ramp",NA,1253,4.666666667,2136,0.713067963,1254,"BOI","-","-","Please name all of the ways you could use this object. Keep in mind that one object can have many uses. Separate your responses with a comma.",NA,"y",15093,NA,NA,2969,11932,NA,NA,NA,"drive on, stand on, walk on",1
"5b65628dcb06ee00015f6c9c","sn43kxsjl6","Affordance Norms_Prolific",1,12,"2023-01-05T20:51:19+00:00",16.02959895134,42,"updated stim.csv","Version42.csv","Version 42","List 42","label",NA,1250,5.375,1442,0.592697272,1251,"BOI","-","-","Please name all of the ways you could use this object. Keep in mind that one object can have many uses. Separate your responses with a comma.",NA,"y",15478,NA,NA,2120,14424,NA,NA,NA,"stick, write on, tear, peel",1
"5b65628dcb06ee00015f6c9c","sn43kxsjl6","Affordance Norms_Prolific",1,13,"2023-01-05T20:51:34+00:00",14.483509063721,42,"updated stim.csv","Version42.csv","Version 42","List 42","Donut",NA,1235,NA,3003,0.365184586,1236,"BOI","-","-","Please name all of the ways you could use this object. Keep in mind that one object can have many uses. Separate your responses with a comma.",NA,"y",13935,NA,NA,2189,11280,NA,NA,NA,"eat, throw, pick up",1
"5b65628dcb06ee00015f6c9c","sn43kxsjl6","Affordance Norms_Prolific",1,14,"2023-01-05T20:51:55+00:00",21.265311002731,42,"updated stim.csv","Version42.csv","Version 42","List 42","tomb",NA,1247,4.739130435,2724,0.147761726,1248,"BOI","-","-","Please name all of the ways you could use this object. Keep in mind that one object can have many uses. Separate your responses with a comma.",NA,"y",20724,NA,NA,12948,19500,NA,NA,NA,"engrave, push",1
"5b65628dcb06ee00015f6c9c","sn43kxsjl6","Affordance Norms_Prolific",1,15,"2023-01-05T20:52:02+00:00",6.8288519382477,42,"updated stim.csv","Version42.csv","Version 42","List 42","chaplain",NA,1257,4.72,495,0.966721274,1258,"BOI","-","-","Please name all of the ways you could use this object. Keep in mind that one object can have many uses. Separate your responses with a comma.",NA,"y",6289,NA,NA,3335,4658,NA,NA,NA,"speak to",1
"5b65628dcb06ee00015f6c9c","sn43kxsjl6","Affordance Norms_Prolific",1,16,"2023-01-05T20:52:06+00:00",4.2099280357361,42,"updated stim.csv","Version42.csv","Version 42","List 42","deerskin",NA,1258,4.826086957,766,0.793854008,1259,"BOI","-","-","Please name all of the ways you could use this object. Keep in mind that one object can have many uses. Separate your responses with a comma.",NA,"y",3809,NA,NA,1943,2704,NA,NA,NA,"wear",1
"5b65628dcb06ee00015f6c9c","sn43kxsjl6","Affordance Norms_Prolific",1,17,"2023-01-05T20:52:35+00:00",29.082169055939,42,"updated stim.csv","Version42.csv","Version 42","List 42","crypt",NA,1254,4.541666667,718,0.045845513,1255,"BOI","-","-","Please name all of the ways you could use this object. Keep in mind that one object can have many uses. Separate your responses with a comma.",NA,"y",28522,NA,NA,19931,26747,NA,NA,NA,"go inside, store things",0.885
"5b65628dcb06ee00015f6c9c","sn43kxsjl6","Affordance Norms_Prolific",1,18,"2023-01-05T20:52:49+00:00",13.510926008224,42,"updated stim.csv","Version42.csv","Version 42","List 42","moneybags",NA,1231,5,1678,0.303590974,1232,"BOI","-","-","Please name all of the ways you could use this object. Keep in mind that one object can have many uses. Separate your responses with a comma.",NA,"y",12956,NA,NA,2404,11308,NA,NA,NA,"pick up, throw",1
"5b65628dcb06ee00015f6c9c","sn43kxsjl6","Affordance Norms_Prolific",1,19,"2023-01-05T20:52:53+00:00",3.8180689811707,42,"updated stim.csv","Version42.csv","Version 42","List 42","stallion",NA,1246,4.88,2505,0.27792808,1247,"BOI","-","-","Please name all of the ways you could use this object. Keep in mind that one object can have many uses. Separate your responses with a comma.",NA,"y",3428,NA,NA,1977,2427,NA,NA,NA,"ride",1
"5b65628dcb06ee00015f6c9c","sn43kxsjl6","Affordance Norms_Prolific",1,20,"2023-01-05T20:53:00+00:00",7.3650150299072,42,"updated stim.csv","Version42.csv","Version 42","List 42","bootlace",NA,1236,5.64,283,0.844378633,1237,"BOI","-","-","Please name all of the ways you could use this object. Keep in mind that one object can have many uses. Separate your responses with a comma.",NA,"y",6823,NA,NA,2996,4825,NA,NA,NA,"tie up",1
"5b65628dcb06ee00015f6c9c","sn43kxsjl6","Affordance Norms_Prolific",1,21,"2023-01-05T20:53:10+00:00",10.624266862869,42,"updated stim.csv","Version42.csv","Version 42","List 42","fossil",NA,1245,4.925925926,1049,0.874093482,1246,"BOI","-","-","Please name all of the ways you could use this object. Keep in mind that one object can have many uses. Separate your responses with a comma.",NA,"y",10072,NA,NA,3626,8863,NA,NA,NA,"smash, pick up, throw",1
"5b65628dcb06ee00015f6c9c","sn43kxsjl6","Affordance Norms_Prolific",1,22,"2023-01-05T20:53:14+00:00",3.4346301555634,42,"updated stim.csv","Version42.csv","Version 42","List 42","beefcake",NA,1249,4.458333333,190,0.594337665,1250,"BOI","-","-","Please name all of the ways you could use this object. Keep in mind that one object can have many uses. Separate your responses with a comma.",NA,"y",3047,NA,NA,1340,1907,NA,NA,NA,"eat",1
"5b65628dcb06ee00015f6c9c","sn43kxsjl6","Affordance Norms_Prolific",1,23,"2023-01-05T20:53:20+00:00",5.9088439941406,42,"updated stim.csv","Version42.csv","Version 42","List 42","fluid",NA,1239,4.923076923,1018,0.626399248,1240,"BOI","-","-","Please name all of the ways you could use this object. Keep in mind that one object can have many uses. Separate your responses with a comma.",NA,"y",5359,NA,NA,1381,4022,NA,NA,NA,"drink, wash",1
"5b65628dcb06ee00015f6c9c","sn43kxsjl6","Affordance Norms_Prolific",1,24,"2023-01-05T20:53:39+00:00",18.996537923813,42,"updated stim.csv","Version42.csv","Version 42","List 42","vermouth",NA,1244,4.318181818,2851,0.228104734,1245,"BOI","-","-","Please name all of the ways you could use this object. Keep in mind that one object can have many uses. Separate your responses with a comma.",NA,"y",18451,NA,NA,2159,17425,NA,NA,NA,"drink, make grapes",0.922
"5b65628dcb06ee00015f6c9c","sn43kxsjl6","Affordance Norms_Prolific",1,25,"2023-01-05T20:53:53+00:00",14.053489923477,42,"updated stim.csv","Version42.csv","Version 42","List 42","tree",NA,1237,5.84,2772,0.324741809,1238,"BOI","-","-","Please name all of the ways you could use this object. Keep in mind that one object can have many uses. Separate your responses with a comma.",NA,"y",13514,NA,NA,4027,12175,NA,NA,NA,"touch, chop, set on fire",1
"5b65628dcb06ee00015f6c9c","sn43kxsjl6","Affordance Norms_Prolific",1,26,"2023-01-05T20:54:00+00:00",7.5947501659393,42,"updated stim.csv","Version42.csv","Version 42","List 42","carnival",NA,1232,5.125,434,0.34861203,1233,"BOI","-","-","Please name all of the ways you could use this object. Keep in mind that one object can have many uses. Separate your responses with a comma.",NA,"y",7046,NA,NA,3611,5564,NA,NA,NA,"ride",1
"5b65628dcb06ee00015f6c9c","sn43kxsjl6","Affordance Norms_Prolific",1,27,"2023-01-05T20:54:07+00:00",6.7098259925842,42,"updated stim.csv","Version42.csv","Version 42","List 42","ashes",NA,1240,4.862068966,83,0.70407494,1241,"BOI","-","-","Please name all of the ways you could use this object. Keep in mind that one object can have many uses. Separate your responses with a comma.",NA,"y",6162,NA,NA,2425,4862,NA,NA,NA,"scatter",1
"5b65628dcb06ee00015f6c9c","sn43kxsjl6","Affordance Norms_Prolific",1,28,"2023-01-05T20:54:16+00:00",9.1196370124817,42,"updated stim.csv","Version42.csv","Version 42","List 42","flashlight",NA,1251,5.869565217,1002,0.527294364,1252,"BOI","-","-","Please name all of the ways you could use this object. Keep in mind that one object can have many uses. Separate your responses with a comma.",NA,"y",8574,NA,NA,2219,6686,NA,NA,NA,"turn on/off",1
"5b65628dcb06ee00015f6c9c","sn43kxsjl6","Affordance Norms_Prolific",1,29,"2023-01-05T20:54:24+00:00",7.4809019565582,42,"updated stim.csv","Version42.csv","Version 42","List 42","antihistamine",NA,1248,5.260869565,49,0.522980549,1249,"BOI","-","-","Please name all of the ways you could use this object. Keep in mind that one object can have many uses. Separate your responses with a comma.",NA,"y",6932,NA,NA,4317,5554,NA,NA,NA,"digest",1
"5b65628dcb06ee00015f6c9c","sn43kxsjl6","Affordance Norms_Prolific",1,30,"2023-01-05T20:54:35+00:00",11.320011854172,42,"updated stim.csv","Version42.csv","Version 42","List 42","hairbrush",NA,1233,6.48,1210,0.804838118,1234,"BOI","-","-","Please name all of the ways you could use this object. Keep in mind that one object can have many uses. Separate your responses with a comma.",NA,"y",10770,NA,NA,2968,9366,NA,NA,NA,"brush hair, sing",1
"5b65628dcb06ee00015f6c9c","sn43kxsjl6","Affordance Norms_Prolific",1,31,"2023-01-05T20:54:42+00:00",7.3243041038513,42,"updated stim.csv","Version42.csv","Version 42","List 42","cornfield",NA,1234,4.739130435,646,0.867365742,1235,"BOI","-","-","Please name all of the ways you could use this object. Keep in mind that one object can have many uses. Separate your responses with a comma.",NA,"y",6767,NA,NA,2403,5710,NA,NA,NA,"run through",1
"5b65628dcb06ee00015f6c9c","sn43kxsjl6","Affordance Norms_Prolific",1,32,"2023-01-05T20:54:55+00:00",12.137933969498,42,"updated stim.csv","Version42.csv","Version 42","List 42","woman",NA,1243,5.333333333,2955,0.245954644,1244,"BOI","-","-","Please name all of the ways you could use this object. Keep in mind that one object can have many uses. Separate your responses with a comma.",NA,"y",11591,NA,NA,2319,6496,NA,NA,NA,"hug, talk to",1
"5b65628dcb06ee00015f6c9c","sn43kxsjl6","Affordance Norms_Prolific",1,33,"2023-01-05T20:55:05+00:00",10.438632965088,42,"updated stim.csv","Version42.csv","Version 42","List 42","envelope",NA,1252,5.64,913,0.787642352,1253,"BOI","-","-","Please name all of the ways you could use this object. Keep in mind that one object can have many uses. Separate your responses with a comma.",NA,"y",9886,NA,NA,2172,8587,NA,NA,NA,"write on, lick, post",1
"5b65628dcb06ee00015f6c9c","sn43kxsjl6","Affordance Norms_Prolific",1,34,"2023-01-05T20:55:10+00:00",4.9030201435089,42,"updated stim.csv","Version42.csv","Version 42","List 42","commode",NA,1259,5.481481481,610,0.117401626,1260,"BOI","-","-","Please name all of the ways you could use this object. Keep in mind that one object can have many uses. Separate your responses with a comma.",NA,"y",4360,NA,NA,2499,3429,NA,NA,NA,"sit on",1
"5b65628dcb06ee00015f6c9c","sn43kxsjl6","Affordance Norms_Prolific",1,35,"2023-01-05T20:55:16+00:00",6.5025680065155,42,"updated stim.csv","Version42.csv","Version 42","List 42","vendor",NA,1242,5,2847,0.807258877,1243,"BOI","-","-","Please name all of the ways you could use this object. Keep in mind that one object can have many uses. Separate your responses with a comma.",NA,"y",5944,NA,NA,2874,4705,NA,NA,NA,"speak to",1
"5b65628dcb06ee00015f6c9c","sn43kxsjl6","Affordance Norms_Prolific",1,36,"2023-01-05T20:55:21+00:00",4.7710249423981,42,"updated stim.csv","Version42.csv","Version 42","List 42","portfolio",NA,1256,4.8,2039,0.492204735,1257,"BOI","-","-","Please name all of the ways you could use this object. Keep in mind that one object can have many uses. Separate your responses with a comma.",NA,"y",4218,NA,NA,1977,3276,NA,NA,NA,"look at",1
"5b65628dcb06ee00015f6c9c","sn43kxsjl6","Affordance Norms_Prolific",1,37,"2023-01-05T20:55:26+00:00",5.0616569519043,42,"updated stim.csv","Version42.csv","Version 42","List 42","tooth",NA,1241,6.037037037,2731,0.844875472,1242,"BOI","-","-","Please name all of the ways you could use this object. Keep in mind that one object can have many uses. Separate your responses with a comma.",NA,"y",4466,NA,NA,2444,3321,NA,NA,NA,"bite",1
"5b65628dcb06ee00015f6c9c","sn43kxsjl6","Affordance Norms_Prolific",1,38,"2023-01-05T20:55:32+00:00",6.1652030944824,42,"updated stim.csv","Version42.csv","Version 42","List 42","tightrope",NA,1238,4.590909091,2695,0.5539317,1239,"BOI","-","-","Please name all of the ways you could use this object. Keep in mind that one object can have many uses. Separate your responses with a comma.",NA,"y",5621,NA,NA,2648,4685,NA,NA,NA,"walk over",1
"5b65628dcb06ee00015f6c9c","sn43kxsjl6","Affordance Norms_Prolific",1,39,"2023-01-05T20:55:43+00:00",10.242312908173,42,"updated stim.csv","Version42.csv","Version 42","List 42","cracker",NA,1260,5.24,676,0.510191288,1261,"BOI","-","-","Please name all of the ways you could use this object. Keep in mind that one object can have many uses. Separate your responses with a comma.",NA,"y",9690,NA,NA,2128,8613,NA,NA,NA,"crack, eat, throw",1
"5b65628dcb06ee00015f6c9c","sn43kxsjl6","Affordance Norms_Prolific",1,40,"2023-01-05T20:55:50+00:00",6.9734170436859,42,"updated stim.csv","Version42.csv","Version 42","List 42","grandparent",NA,1255,5.56,1152,0.167861538,1256,"BOI","-","-","Please name all of the ways you could use this object. Keep in mind that one object can have many uses. Separate your responses with a comma.",NA,"y",6415,NA,NA,1977,4030,NA,NA,NA,"love, hug",1
"5b7ffeeb05fbbd00016aa0bc","626thrgq6n","Affordance Norms_Prolific",1,11,"2023-01-05T18:44:28+00:00",18.559133052826,5,"updated stim.csv","Version5.csv","Version 5","List 5","Picture Frame",NA,130,NA,3002,0.356895476,131,"BOI","-","-","Please name all of the ways you could use this object. Keep in mind that one object can have many uses. Separate your responses with a comma.",NA,"y",17974,NA,NA,2258,16382,NA,NA,NA,"Framing a picture, framing something other than a picture, breaking, mending",1
"5b7ffeeb05fbbd00016aa0bc","626thrgq6n","Affordance Norms_Prolific",1,12,"2023-01-05T18:44:55+00:00",27.204272985458,5,"updated stim.csv","Version5.csv","Version 5","List 5","medication",NA,122,6.28,1637,0.689498349,123,"BOI","-","-","Please name all of the ways you could use this object. Keep in mind that one object can have many uses. Separate your responses with a comma.",NA,"y",26431,NA,NA,2984,24826,NA,NA,NA,"Consuming as directed by a medical practitioner, overdosing, stockpiling, giving to someone else, to fuel an addiction",1
"5b7ffeeb05fbbd00016aa0bc","626thrgq6n","Affordance Norms_Prolific",1,13,"2023-01-05T18:45:17+00:00",21.932507991791,5,"updated stim.csv","Version5.csv","Version 5","List 5","eyepiece",NA,150,5.8,937,0.594546173,151,"BOI","-","-","Please name all of the ways you could use this object. Keep in mind that one object can have many uses. Separate your responses with a comma.",NA,"y",21305,NA,NA,2071,19641,NA,NA,NA,"Correcting vision, fashion, disguise, dressing up, decoration",1
"5b7ffeeb05fbbd00016aa0bc","626thrgq6n","Affordance Norms_Prolific",1,14,"2023-01-05T18:45:27+00:00",10.32062292099,5,"updated stim.csv","Version5.csv","Version 5","List 5","pedal",NA,125,5.04,1900,0.012619648,126,"BOI","-","-","Please name all of the ways you could use this object. Keep in mind that one object can have many uses. Separate your responses with a comma.",NA,"y",9749,NA,NA,5545,6859,NA,NA,NA,"Bicycling",1
"5b7ffeeb05fbbd00016aa0bc","626thrgq6n","Affordance Norms_Prolific",1,15,"2023-01-05T18:45:59+00:00",31.518597126007,5,"updated stim.csv","Version5.csv","Version 5","List 5","tranquilizers",NA,127,4.607142857,2761,0.821162254,128,"BOI","-","-","Please name all of the ways you could use this object. Keep in mind that one object can have many uses. Separate your responses with a comma.",NA,"y",30905,NA,NA,3049,28612,NA,NA,NA,"Tranquilizing, helping anxiety, subduing a third party, subduing an animal, fueling an addition",1
"5b7ffeeb05fbbd00016aa0bc","626thrgq6n","Affordance Norms_Prolific",1,16,"2023-01-05T18:46:16+00:00",17.051826000214,5,"updated stim.csv","Version5.csv","Version 5","List 5","cabbage",NA,132,5.608695652,386,0.325095127,133,"BOI","-","-","Please name all of the ways you could use this object. Keep in mind that one object can have many uses. Separate your responses with a comma.",NA,"y",16416,NA,NA,1588,15357,NA,NA,NA,"Cooking, eating, growing, harvesting, animal fodder, eye mask",1
"5b7ffeeb05fbbd00016aa0bc","626thrgq6n","Affordance Norms_Prolific",1,17,"2023-01-05T18:46:40+00:00",24.227168083191,5,"updated stim.csv","Version5.csv","Version 5","List 5","antiques",NA,140,4.68,51,0.461950375,141,"BOI","-","-","Please name all of the ways you could use this object. Keep in mind that one object can have many uses. Separate your responses with a comma.",NA,"y",23530,NA,NA,2357,22243,NA,NA,NA,"Buying, selling, collecting, examining, displaying, learning about, source for daytime television programmes",1
"5b7ffeeb05fbbd00016aa0bc","626thrgq6n","Affordance Norms_Prolific",1,18,"2023-01-05T18:46:51+00:00",10.642201900482,5,"updated stim.csv","Version5.csv","Version 5","List 5","keyhole",NA,136,5.44,1413,0.406137653,137,"BOI","-","-","Please name all of the ways you could use this object. Keep in mind that one object can have many uses. Separate your responses with a comma.",NA,"y",10042,NA,NA,1670,8848,NA,NA,NA,"Inserting key into, looking through, blocking up",1
"5b7ffeeb05fbbd00016aa0bc","626thrgq6n","Affordance Norms_Prolific",1,19,"2023-01-05T18:47:01+00:00",10.040157079697,5,"updated stim.csv","Version5.csv","Version 5","List 5","waste",NA,123,4.318181818,2903,0.192088069,124,"BOI","-","-","Please name all of the ways you could use this object. Keep in mind that one object can have many uses. Separate your responses with a comma.",NA,"y",9441,NA,NA,1413,7839,NA,NA,NA,"Disposing of, storing, hoarding, recycling",1
"5b7ffeeb05fbbd00016aa0bc","626thrgq6n","Affordance Norms_Prolific",1,20,"2023-01-05T18:47:24+00:00",22.896070957184,5,"updated stim.csv","Version5.csv","Version 5","List 5","sandbank",NA,126,4.52,2234,0.16035416,127,"BOI","-","-","Please name all of the ways you could use this object. Keep in mind that one object can have many uses. Separate your responses with a comma.",NA,"y",22161,NA,NA,2806,20861,NA,NA,NA,"Looking at, climbing, holding back floodwaters, plants and animal habitat, sliding down, digging in, building on",1
"5b7ffeeb05fbbd00016aa0bc","626thrgq6n","Affordance Norms_Prolific",1,21,"2023-01-05T18:47:47+00:00",23.527260065079,5,"updated stim.csv","Version5.csv","Version 5","List 5","laryngoscope",NA,135,4.411764706,1467,0.485337296,136,"BOI","-","-","Please name all of the ways you could use this object. Keep in mind that one object can have many uses. Separate your responses with a comma.",NA,"y",22948,NA,NA,1633,20779,NA,NA,NA,"Looking into a patient's throat, a prop for a play or TV show, exhibit in a medical museum",1
"5b7ffeeb05fbbd00016aa0bc","626thrgq6n","Affordance Norms_Prolific",1,22,"2023-01-05T18:48:01+00:00",13.526154994965,5,"updated stim.csv","Version5.csv","Version 5","List 5","pomegranate",NA,139,5.391304348,2026,0.369576509,140,"BOI","-","-","Please name all of the ways you could use this object. Keep in mind that one object can have many uses. Separate your responses with a comma.",NA,"y",12955,NA,NA,2338,11588,NA,NA,NA,"Peeling, eating, blending, growing, drying and using decoratively",1
"5b7ffeeb05fbbd00016aa0bc","626thrgq6n","Affordance Norms_Prolific",1,23,"2023-01-05T18:48:14+00:00",13.529020786285,5,"updated stim.csv","Version5.csv","Version 5","List 5","playsuit",NA,131,5.36,2003,0.404603014,132,"BOI","-","-","Please name all of the ways you could use this object. Keep in mind that one object can have many uses. Separate your responses with a comma.",NA,"y",12966,NA,NA,1501,11686,NA,NA,NA,"Wearing, making, cutting into pieces, designing, selling",1
"5b7ffeeb05fbbd00016aa0bc","626thrgq6n","Affordance Norms_Prolific",1,24,"2023-01-05T18:48:25+00:00",10.743866205215,5,"updated stim.csv","Version5.csv","Version 5","List 5","bazooka",NA,129,5.041666667,175,0.357199657,130,"BOI","-","-","Please name all of the ways you could use this object. Keep in mind that one object can have many uses. Separate your responses with a comma.",NA,"y",10058,NA,NA,5226,8451,NA,NA,NA,"As a weapon, as an exhibit",1
"5b7ffeeb05fbbd00016aa0bc","626thrgq6n","Affordance Norms_Prolific",1,25,"2023-01-05T18:48:47+00:00",21.911289930344,5,"updated stim.csv","Version5.csv","Version 5","List 5","prosecutor",NA,146,4.64,2078,0.373078665,147,"BOI","-","-","Please name all of the ways you could use this object. Keep in mind that one object can have many uses. Separate your responses with a comma.",NA,"y",21295,NA,NA,1808,19838,NA,NA,NA,"Prosecuting, all the other things one can do with a human being such as marrying it, befriending it, hurting it etc",1
"5b7ffeeb05fbbd00016aa0bc","626thrgq6n","Affordance Norms_Prolific",1,26,"2023-01-05T18:49:06+00:00",19.14450097084,5,"updated stim.csv","Version5.csv","Version 5","List 5","figurine",NA,121,5.791666667,973,0.03998685,122,"BOI","-","-","Please name all of the ways you could use this object. Keep in mind that one object can have many uses. Separate your responses with a comma.",NA,"y",18628,NA,NA,1646,16821,NA,NA,NA,"Displaying, hanging clothes on, decoration, buying, selling, collecting",1
"5b7ffeeb05fbbd00016aa0bc","626thrgq6n","Affordance Norms_Prolific",1,27,"2023-01-05T18:49:34+00:00",27.621555089951,5,"updated stim.csv","Version5.csv","Version 5","List 5","woodwork",NA,138,5.12,2966,0.663344397,139,"BOI","-","-","Please name all of the ways you could use this object. Keep in mind that one object can have many uses. Separate your responses with a comma.",NA,"y",27022,NA,NA,2446,25283,NA,NA,NA,"Creating, as a hobby, teaching, using for its function, eg, using a table as a table",1
"5b7ffeeb05fbbd00016aa0bc","626thrgq6n","Affordance Norms_Prolific",1,28,"2023-01-05T18:49:54+00:00",20.730991840363,5,"updated stim.csv","Version5.csv","Version 5","List 5","hoop",NA,134,5.296296296,1310,0.74583685,135,"BOI","-","-","Please name all of the ways you could use this object. Keep in mind that one object can have many uses. Separate your responses with a comma.",NA,"y",20117,NA,NA,1423,18725,NA,NA,NA,"Hula hoop, use as a prop in various games eg as a safe zone, bowling",1
"5b7ffeeb05fbbd00016aa0bc","626thrgq6n","Affordance Norms_Prolific",1,29,"2023-01-05T18:50:15+00:00",20.392784118652,5,"updated stim.csv","Version5.csv","Version 5","List 5","doll",NA,148,6.434782609,814,0.883086008,149,"BOI","-","-","Please name all of the ways you could use this object. Keep in mind that one object can have many uses. Separate your responses with a comma.",NA,"y",19774,NA,NA,1750,18433,NA,NA,NA,"Playing, collecting, dressing, undressing, displaying, destroying, mending",1
"5b7ffeeb05fbbd00016aa0bc","626thrgq6n","Affordance Norms_Prolific",1,30,"2023-01-05T18:50:34+00:00",19.404980897903,5,"updated stim.csv","Version5.csv","Version 5","List 5","powderpuff",NA,145,4.923076923,2055,0.604936304,146,"BOI","-","-","Please name all of the ways you could use this object. Keep in mind that one object can have many uses. Separate your responses with a comma.",NA,"y",18820,NA,NA,1783,16291,NA,NA,NA,"Applying powder, stuffing for a sewing project, applying paint to a surface",1
"5b7ffeeb05fbbd00016aa0bc","626thrgq6n","Affordance Norms_Prolific",1,31,"2023-01-05T18:50:47+00:00",12.687016963959,5,"updated stim.csv","Version5.csv","Version 5","List 5","postman",NA,142,4.913043478,2044,0.01460871,143,"BOI","-","-","Please name all of the ways you could use this object. Keep in mind that one object can have many uses. Separate your responses with a comma.",NA,"y",12060,NA,NA,2625,10230,NA,NA,NA,"Delivering post, all other human applications",1
"5b7ffeeb05fbbd00016aa0bc","626thrgq6n","Affordance Norms_Prolific",1,32,"2023-01-05T18:51:03+00:00",15.673018217087,5,"updated stim.csv","Version5.csv","Version 5","List 5","watercress",NA,128,4.782608696,2910,0.65261601,129,"BOI","-","-","Please name all of the ways you could use this object. Keep in mind that one object can have many uses. Separate your responses with a comma.",NA,"y",15105,NA,NA,1207,14052,NA,NA,NA,"Eating, growing, harvesting, buying, selling, sketching",1
"5b7ffeeb05fbbd00016aa0bc","626thrgq6n","Affordance Norms_Prolific",1,33,"2023-01-05T18:51:18+00:00",15.188522815704,5,"updated stim.csv","Version5.csv","Version 5","List 5","stableman",NA,141,4.375,2495,0.024282326,142,"BOI","-","-","Please name all of the ways you could use this object. Keep in mind that one object can have many uses. Separate your responses with a comma.",NA,"y",14647,NA,NA,3426,13633,NA,NA,NA,"Employing to look after horses, all other human applications",1
"5b7ffeeb05fbbd00016aa0bc","626thrgq6n","Affordance Norms_Prolific",1,34,"2023-01-05T18:51:38+00:00",20.672909975052,5,"updated stim.csv","Version5.csv","Version 5","List 5","crutch",NA,149,5.8,717,0.131827503,150,"BOI","-","-","Please name all of the ways you could use this object. Keep in mind that one object can have many uses. Separate your responses with a comma.",NA,"y",20139,NA,NA,3396,18557,NA,NA,NA,"Aiding walking, as a weapon, to reach with, to probe the ground",1
"5b7ffeeb05fbbd00016aa0bc","626thrgq6n","Affordance Norms_Prolific",1,35,"2023-01-05T18:52:01+00:00",22.942001104355,5,"updated stim.csv","Version5.csv","Version 5","List 5","cedar",NA,143,4.583333333,470,0.107709949,144,"BOI","-","-","Please name all of the ways you could use this object. Keep in mind that one object can have many uses. Separate your responses with a comma.",NA,"y",22349,NA,NA,4666,20927,NA,NA,NA,"Growing, looking at, cutting down, creating other objects from, climbing, burning",1
"5b7ffeeb05fbbd00016aa0bc","626thrgq6n","Affordance Norms_Prolific",1,36,"2023-01-05T18:52:16+00:00",14.50223493576,5,"updated stim.csv","Version5.csv","Version 5","List 5","worker",NA,133,5.086956522,2971,0.589394286,134,"BOI","-","-","Please name all of the ways you could use this object. Keep in mind that one object can have many uses. Separate your responses with a comma.",NA,"y",13977,NA,NA,1927,12536,NA,NA,NA,"Employing, paying, hiring, all other human applications",1
"5b7ffeeb05fbbd00016aa0bc","626thrgq6n","Affordance Norms_Prolific",1,37,"2023-01-05T18:52:33+00:00",16.758588075638,5,"updated stim.csv","Version5.csv","Version 5","List 5","copper",NA,124,4.833333333,638,0.549670749,125,"BOI","-","-","Please name all of the ways you could use this object. Keep in mind that one object can have many uses. Separate your responses with a comma.",NA,"y",16161,NA,NA,1749,14653,NA,NA,NA,"Burnishing, displaying, buying, selling, evaluating, displaying, beating",1
"5b7ffeeb05fbbd00016aa0bc","626thrgq6n","Affordance Norms_Prolific",1,38,"2023-01-05T18:52:54+00:00",21.628650903702,5,"updated stim.csv","Version5.csv","Version 5","List 5","paprika",NA,147,4.428571429,1867,0.923363889,148,"BOI","-","-","Please name all of the ways you could use this object. Keep in mind that one object can have many uses. Separate your responses with a comma.",NA,"y",21023,NA,NA,12143,19469,NA,NA,NA,"Seasoning, adding flavour, adding colour",0.855
"5b7ffeeb05fbbd00016aa0bc","626thrgq6n","Affordance Norms_Prolific",1,39,"2023-01-05T18:53:08+00:00",14.037652015686,5,"updated stim.csv","Version5.csv","Version 5","List 5","wristlet",NA,144,5.428571429,2984,0.95091675,145,"BOI","-","-","Please name all of the ways you could use this object. Keep in mind that one object can have many uses. Separate your responses with a comma.",NA,"y",13495,NA,NA,1525,12232,NA,NA,NA,"Wearing, creating, buying, selling, displaying",1
"5b7ffeeb05fbbd00016aa0bc","626thrgq6n","Affordance Norms_Prolific",1,40,"2023-01-05T18:53:25+00:00",17.120001077652,5,"updated stim.csv","Version5.csv","Version 5","List 5","sheepskin",NA,137,4.928571429,2330,0.621252368,138,"BOI","-","-","Please name all of the ways you could use this object. Keep in mind that one object can have many uses. Separate your responses with a comma.",NA,"y",15696,NA,NA,2892,14113,NA,NA,NA,"As a rug, as a wall-hanging, made into clothing",1
"5bb20c4ce05c350001ef337e","0mkw678k1a","Affordance Norms_Prolific",1,11,"2023-01-05T20:42:32+00:00",20.942750930786,19,"updated stim.csv","Version19.csv","Version 19","List 19","saltwater",NA,545,5.192307692,2229,0.240965939,546,"BOI","-","-","Please name all of the ways you could use this object. Keep in mind that one object can have many uses. Separate your responses with a comma.",NA,"y",20257,NA,NA,5553,16770,NA,NA,NA,"mouth rinse, swim in,",1
"5bb20c4ce05c350001ef337e","0mkw678k1a","Affordance Norms_Prolific",1,12,"2023-01-05T20:42:56+00:00",24.432550907135,19,"updated stim.csv","Version19.csv","Version 19","List 19","kitchen",NA,566,5.625,1425,0.900817788,567,"BOI","-","-","Please name all of the ways you could use this object. Keep in mind that one object can have many uses. Separate your responses with a comma.",NA,"y",23878,NA,NA,1983,19487,NA,NA,NA,"cook in, design, eat in,",1
"5bb20c4ce05c350001ef337e","0mkw678k1a","Affordance Norms_Prolific",1,13,"2023-01-05T20:43:19+00:00",22.985042095184,19,"updated stim.csv","Version19.csv","Version 19","List 19","enamel",NA,552,4.652173913,905,0.497490187,553,"BOI","-","-","Please name all of the ways you could use this object. Keep in mind that one object can have many uses. Separate your responses with a comma.",NA,"y",22531,NA,NA,3910,20884,NA,NA,NA,"for teeth, for cook wear,",1
"5bb20c4ce05c350001ef337e","0mkw678k1a","Affordance Norms_Prolific",1,14,"2023-01-05T20:44:05+00:00",45.339027881622,19,"updated stim.csv","Version19.csv","Version 19","List 19","raft",NA,564,5.36,2125,0.368001778,565,"BOI","-","-","Please name all of the ways you could use this object. Keep in mind that one object can have many uses. Separate your responses with a comma.",NA,"y",44613,NA,NA,5653,26256,NA,NA,NA,"to float on, to build,",1
"5bb20c4ce05c350001ef337e","0mkw678k1a","Affordance Norms_Prolific",1,15,"2023-01-05T20:44:26+00:00",21.677018165588,19,"updated stim.csv","Version19.csv","Version 19","List 19","silkworm",NA,570,5.208333333,2382,0.564942119,571,"BOI","-","-","Please name all of the ways you could use this object. Keep in mind that one object can have many uses. Separate your responses with a comma.",NA,"y",21170,NA,NA,5726,18991,NA,NA,NA,"pet, make cloth,",1
"5bb20c4ce05c350001ef337e","0mkw678k1a","Affordance Norms_Prolific",1,16,"2023-01-05T20:44:41+00:00",14.666622877121,19,"updated stim.csv","Version19.csv","Version 19","List 19","vulva",NA,561,5.16,2876,0.286824315,562,"BOI","-","-","Please name all of the ways you could use this object. Keep in mind that one object can have many uses. Separate your responses with a comma.",NA,"y",13964,NA,NA,6888,9821,NA,NA,NA,"pump,",1
"5bb20c4ce05c350001ef337e","0mkw678k1a","Affordance Norms_Prolific",1,17,"2023-01-05T20:45:06+00:00",24.963524103165,19,"updated stim.csv","Version19.csv","Version 19","List 19","plaster",NA,542,4.4,1993,0.665997379,543,"BOI","-","-","Please name all of the ways you could use this object. Keep in mind that one object can have many uses. Separate your responses with a comma.",NA,"y",24380,NA,NA,2963,21850,NA,NA,NA,"cover wound, cover walls,cover ceilings,",1
"5bb20c4ce05c350001ef337e","0mkw678k1a","Affordance Norms_Prolific",1,18,"2023-01-05T20:45:36+00:00",30.031718969345,19,"updated stim.csv","Version19.csv","Version 19","List 19","tray",NA,547,5.166666667,2768,0.711278044,548,"BOI","-","-","Please name all of the ways you could use this object. Keep in mind that one object can have many uses. Separate your responses with a comma.",NA,"y",29398,NA,NA,3077,20797,NA,NA,NA,"carry things on, ",1
"5bb20c4ce05c350001ef337e","0mkw678k1a","Affordance Norms_Prolific",1,19,"2023-01-05T20:45:55+00:00",18.471416950226,19,"updated stim.csv","Version19.csv","Version 19","List 19","tear",NA,556,4.44,2650,0.64593677,557,"BOI","-","-","Please name all of the ways you could use this object. Keep in mind that one object can have many uses. Separate your responses with a comma.",NA,"y",17948,NA,NA,7212,16026,NA,NA,NA,"to cry, to rip,",1
"5bb20c4ce05c350001ef337e","0mkw678k1a","Affordance Norms_Prolific",1,20,"2023-01-05T20:46:37+00:00",42.104752063751,19,"updated stim.csv","Version19.csv","Version 19","List 19","goggles",NA,543,6.125,1131,0.800491874,544,"BOI","-","-","Please name all of the ways you could use this object. Keep in mind that one object can have many uses. Separate your responses with a comma.",NA,"y",41461,NA,NA,3872,34145,NA,NA,NA,"for swimming, for handy work, ",1
"5bb20c4ce05c350001ef337e","0mkw678k1a","Affordance Norms_Prolific",1,21,"2023-01-05T20:47:04+00:00",27.346965074539,19,"updated stim.csv","Version19.csv","Version 19","List 19","goose",NA,553,5.260869565,1138,0.494045205,554,"BOI","-","-","Please name all of the ways you could use this object. Keep in mind that one object can have many uses. Separate your responses with a comma.",NA,"y",26876,NA,NA,3046,25348,NA,NA,NA,"to eat, as guard animals,",1
"5bb20c4ce05c350001ef337e","0mkw678k1a","Affordance Norms_Prolific",1,22,"2023-01-05T20:47:28+00:00",24.330940961838,19,"updated stim.csv","Version19.csv","Version 19","List 19","steak",NA,554,5.75,2515,0.944862222,555,"BOI","-","-","Please name all of the ways you could use this object. Keep in mind that one object can have many uses. Separate your responses with a comma.",NA,"y",23703,NA,NA,3574,20711,NA,NA,NA,"to eat, to place on black eye,",1
"5bb20c4ce05c350001ef337e","0mkw678k1a","Affordance Norms_Prolific",1,23,"2023-01-05T20:48:38+00:00",69.549489021301,19,"updated stim.csv","Version19.csv","Version 19","List 19","lubrication",NA,549,4.333333333,1555,0.460781999,550,"BOI","-","-","Please name all of the ways you could use this object. Keep in mind that one object can have many uses. Separate your responses with a comma.",NA,"y",68920,NA,NA,3187,66892,NA,NA,NA,"to grease car parts, to make smooth, to slide,",1
"5bb20c4ce05c350001ef337e","0mkw678k1a","Affordance Norms_Prolific",1,24,"2023-01-05T20:49:02+00:00",23.705858945847,19,"updated stim.csv","Version19.csv","Version 19","List 19","cage",NA,562,5.291666667,398,0.458861103,563,"BOI","-","-","Please name all of the ways you could use this object. Keep in mind that one object can have many uses. Separate your responses with a comma.",NA,"y",23058,NA,NA,4724,19387,NA,NA,NA,"to put birds, to fight in,",1
"5bb20c4ce05c350001ef337e","0mkw678k1a","Affordance Norms_Prolific",1,25,"2023-01-05T20:49:41+00:00",39.360877990723,19,"updated stim.csv","Version19.csv","Version 19","List 19","toe",NA,565,5.954545455,2715,0.055815318,566,"BOI","-","-","Please name all of the ways you could use this object. Keep in mind that one object can have many uses. Separate your responses with a comma.",NA,"y",38798,NA,NA,3516,36174,NA,NA,NA,"to balance on, to wear toe ring, to wiggle,",1
"5bb20c4ce05c350001ef337e","0mkw678k1a","Affordance Norms_Prolific",1,26,"2023-01-05T20:50:08+00:00",27.515263080597,19,"updated stim.csv","Version19.csv","Version 19","List 19","derriere",NA,548,5.5,778,0.071649372,549,"BOI","-","-","Please name all of the ways you could use this object. Keep in mind that one object can have many uses. Separate your responses with a comma.",NA,"y",26839,NA,NA,5088,25106,NA,NA,NA,"to sit on, to show off,",1
"5bb20c4ce05c350001ef337e","0mkw678k1a","Affordance Norms_Prolific",1,27,"2023-01-05T20:50:45+00:00",36.91051697731,19,"updated stim.csv","Version19.csv","Version 19","List 19","barley",NA,546,4.541666667,149,0.391499549,547,"BOI","-","-","Please name all of the ways you could use this object. Keep in mind that one object can have many uses. Separate your responses with a comma.",NA,"y",36445,NA,NA,4201,33807,NA,NA,NA,"to eat,to feed to animals, to make lemon barley drink,",1
"5bb20c4ce05c350001ef337e","0mkw678k1a","Affordance Norms_Prolific",1,28,"2023-01-05T20:51:18+00:00",32.728350877762,19,"updated stim.csv","Version19.csv","Version 19","List 19","treadmill",NA,568,6,2769,0.114264323,569,"BOI","-","-","Please name all of the ways you could use this object. Keep in mind that one object can have many uses. Separate your responses with a comma.",NA,"y",32054,NA,NA,3037,25464,NA,NA,NA,"to walk on, to run on to keep fit,",1
"5bb20c4ce05c350001ef337e","0mkw678k1a","Affordance Norms_Prolific",1,29,"2023-01-05T20:51:53+00:00",35.138153076172,19,"updated stim.csv","Version19.csv","Version 19","List 19","splinter",NA,563,4.652173913,2478,0.624463816,564,"BOI","-","-","Please name all of the ways you could use this object. Keep in mind that one object can have many uses. Separate your responses with a comma.",NA,"y",34664,NA,NA,30746,32677,NA,NA,NA,"unsure",1
"5bb20c4ce05c350001ef337e","0mkw678k1a","Affordance Norms_Prolific",1,30,"2023-01-05T20:52:10+00:00",17.200716972351,19,"updated stim.csv","Version19.csv","Version 19","List 19","switchblade",NA,557,5.869565217,2609,0.252814962,558,"BOI","-","-","Please name all of the ways you could use this object. Keep in mind that one object can have many uses. Separate your responses with a comma.",NA,"y",16490,NA,NA,6213,15217,NA,NA,NA,"to play with,",1
"5bb20c4ce05c350001ef337e","0mkw678k1a","Affordance Norms_Prolific",1,31,"2023-01-05T20:52:51+00:00",40.167737960815,19,"updated stim.csv","Version19.csv","Version 19","List 19","woodcutter",NA,560,4.44,2960,0.152234376,561,"BOI","-","-","Please name all of the ways you could use this object. Keep in mind that one object can have many uses. Separate your responses with a comma.",NA,"y",39699,NA,NA,5887,36977,NA,NA,NA,"to cut logs for the fire, to make furniture,",1
"5bb20c4ce05c350001ef337e","0mkw678k1a","Affordance Norms_Prolific",1,32,"2023-01-05T20:53:07+00:00",15.939136981964,19,"updated stim.csv","Version19.csv","Version 19","List 19","kerchief",NA,541,5.666666667,1406,0.493496181,542,"BOI","-","-","Please name all of the ways you could use this object. Keep in mind that one object can have many uses. Separate your responses with a comma.",NA,"y",15311,NA,NA,3909,12928,NA,NA,NA,"to blow your nose,",1
"5bb20c4ce05c350001ef337e","0mkw678k1a","Affordance Norms_Prolific",1,33,"2023-01-05T20:53:54+00:00",47.960034132004,19,"updated stim.csv","Version19.csv","Version 19","List 19","letterbox",NA,559,4.56,1496,0.230726376,560,"BOI","-","-","Please name all of the ways you could use this object. Keep in mind that one object can have many uses. Separate your responses with a comma.",NA,"y",47435,NA,NA,3076,45870,NA,NA,NA,"to post letters, to receive letters, to post parcels, to receive parcels,",1
"5bb20c4ce05c350001ef337e","0mkw678k1a","Affordance Norms_Prolific",1,34,"2023-01-05T20:55:08+00:00",73.513825893402,19,"updated stim.csv","Version19.csv","Version 19","List 19","bagpipes",NA,550,5,124,0.570726592,551,"BOI","-","-","Please name all of the ways you could use this object. Keep in mind that one object can have many uses. Separate your responses with a comma.",NA,"y",72713,NA,NA,4951,34462,NA,NA,NA,"used for music, to train musicians, ",1
"5bb20c4ce05c350001ef337e","0mkw678k1a","Affordance Norms_Prolific",1,35,"2023-01-05T20:55:50+00:00",42.292964935303,19,"updated stim.csv","Version19.csv","Version 19","List 19","yardstick",NA,569,5.956521739,2990,0.862814499,570,"BOI","-","-","Please name all of the ways you could use this object. Keep in mind that one object can have many uses. Separate your responses with a comma.",NA,"y",41770,NA,NA,2532,35735,NA,NA,NA,"to measure fabric, to measure height,",1
"5bb20c4ce05c350001ef337e","0mkw678k1a","Affordance Norms_Prolific",1,36,"2023-01-05T20:56:12+00:00",21.696222066879,19,"updated stim.csv","Version19.csv","Version 19","List 19","godparent",NA,551,5.260869565,1129,0.144202147,552,"BOI","-","-","Please name all of the ways you could use this object. Keep in mind that one object can have many uses. Separate your responses with a comma.",NA,"y",21037,NA,NA,3192,18997,NA,NA,NA,"to protect, to help, to support,",1
"5bb20c4ce05c350001ef337e","0mkw678k1a","Affordance Norms_Prolific",1,37,"2023-01-05T20:56:45+00:00",32.887404918671,19,"updated stim.csv","Version19.csv","Version 19","List 19","couch",NA,544,6.260869565,661,0.619410451,545,"BOI","-","-","Please name all of the ways you could use this object. Keep in mind that one object can have many uses. Separate your responses with a comma.",NA,"y",32368,NA,NA,2376,30712,NA,NA,NA,"to sit on, to sleep on, to relax on,",1
"5bb20c4ce05c350001ef337e","0mkw678k1a","Affordance Norms_Prolific",1,38,"2023-01-05T20:57:28+00:00",42.633893013,19,"updated stim.csv","Version19.csv","Version 19","List 19","lantern",NA,558,5.653846154,1463,0.56962793,559,"BOI","-","-","Please name all of the ways you could use this object. Keep in mind that one object can have many uses. Separate your responses with a comma.",NA,"y",41929,NA,NA,2960,39173,NA,NA,NA,"to light a dark area, to look decorative in a home, to put a candle in,",1
"5bb20c4ce05c350001ef337e","0mkw678k1a","Affordance Norms_Prolific",1,39,"2023-01-05T20:58:03+00:00",35.483617067337,19,"updated stim.csv","Version19.csv","Version 19","List 19","backpack",NA,555,5.72,116,0.596868112,556,"BOI","-","-","Please name all of the ways you could use this object. Keep in mind that one object can have many uses. Separate your responses with a comma.",NA,"y",34954,NA,NA,3249,33323,NA,NA,NA,"to carry items in, to sit on, to stand on,",1
"5bb20c4ce05c350001ef337e","0mkw678k1a","Affordance Norms_Prolific",1,40,"2023-01-05T20:58:17+00:00",13.574109077454,19,"updated stim.csv","Version19.csv","Version 19","List 19","cookie",NA,567,6.5,633,0.354504033,568,"BOI","-","-","Please name all of the ways you could use this object. Keep in mind that one object can have many uses. Separate your responses with a comma.",NA,"y",12854,NA,NA,2837,6531,NA,NA,NA,"to eat,",1
"5c1c2c51e2d9150001b5737e","bbo0i6vx7h","Affordance Norms_Prolific",1,11,"2023-01-05T20:44:54+00:00",65.424209833145,30,"updated stim.csv","Version30.csv","Version 30","List 30","cockatoo",NA,877,4.666666667,587,0.224004944,878,"BOI","-","-","Please name all of the ways you could use this object. Keep in mind that one object can have many uses. Separate your responses with a comma.",NA,"y",64381,NA,NA,7470,62574,NA,NA,NA,"FLYING KITE, PET",1
"5c1c2c51e2d9150001b5737e","bbo0i6vx7h","Affordance Norms_Prolific",1,12,"2023-01-05T20:46:08+00:00",74.211593151093,30,"updated stim.csv","Version30.csv","Version 30","List 30","collie",NA,897,5.730769231,603,0.293042848,898,"BOI","-","-","Please name all of the ways you could use this object. Keep in mind that one object can have many uses. Separate your responses with a comma.",NA,"y",73206,NA,NA,58148,71704,NA,NA,NA,"COMPANION, PET, HERDER, WORK DOG",0.764
"5c1c2c51e2d9150001b5737e","bbo0i6vx7h","Affordance Norms_Prolific",1,13,"2023-01-05T20:46:34+00:00",25.944169044495,30,"updated stim.csv","Version30.csv","Version 30","List 30","chart",NA,883,4.428571429,497,0.942108793,884,"BOI","-","-","Please name all of the ways you could use this object. Keep in mind that one object can have many uses. Separate your responses with a comma.",NA,"y",24706,NA,NA,5356,21560,NA,NA,NA,"PAPER, ART, PICTURE",1
"5c1c2c51e2d9150001b5737e","bbo0i6vx7h","Affordance Norms_Prolific",1,14,"2023-01-05T20:47:09+00:00",35.521373987198,30,"updated stim.csv","Version30.csv","Version 30","List 30","blade",NA,872,5.833333333,231,0.917373742,873,"BOI","-","-","Please name all of the ways you could use this object. Keep in mind that one object can have many uses. Separate your responses with a comma.",NA,"y",34876,NA,NA,4456,32714,NA,NA,NA,"SCRAPER, KNIFE, CUTTER",1
"5c1c2c51e2d9150001b5737e","bbo0i6vx7h","Affordance Norms_Prolific",1,15,"2023-01-05T20:47:33+00:00",23.674986839294,30,"updated stim.csv","Version30.csv","Version 30","List 30","locksmith",NA,874,4.8,1538,0.890036782,875,"BOI","-","-","Please name all of the ways you could use this object. Keep in mind that one object can have many uses. Separate your responses with a comma.",NA,"y",22811,NA,NA,8303,18051,NA,NA,NA,"KEYMAKER, LOCK INSTALLER",1
"5c1c2c51e2d9150001b5737e","bbo0i6vx7h","Affordance Norms_Prolific",1,16,"2023-01-05T20:48:06+00:00",33.221680164337,30,"updated stim.csv","Version30.csv","Version 30","List 30","buffalo",NA,893,4.692307692,345,0.582569981,894,"BOI","-","-","Please name all of the ways you could use this object. Keep in mind that one object can have many uses. Separate your responses with a comma.",NA,"y",32305,NA,NA,12207,25985,NA,NA,NA,"HERD ANIMAL, PET, HYDE",1
"5c1c2c51e2d9150001b5737e","bbo0i6vx7h","Affordance Norms_Prolific",1,17,"2023-01-05T20:48:37+00:00",30.924424886703,30,"updated stim.csv","Version30.csv","Version 30","List 30","factory",NA,879,4.44,941,0.280926781,880,"BOI","-","-","Please name all of the ways you could use this object. Keep in mind that one object can have many uses. Separate your responses with a comma.",NA,"y",30184,NA,NA,4982,28340,NA,NA,NA,"PUZZLE, JOB, STORAGE FACILITY",1
"5c1c2c51e2d9150001b5737e","bbo0i6vx7h","Affordance Norms_Prolific",1,18,"2023-01-05T20:48:58+00:00",20.381833076477,30,"updated stim.csv","Version30.csv","Version 30","List 30","trumpet",NA,900,6.291666667,2787,0.850134998,901,"BOI","-","-","Please name all of the ways you could use this object. Keep in mind that one object can have many uses. Separate your responses with a comma.",NA,"y",19422,NA,NA,3307,15272,NA,NA,NA,"BUGLE, HORN, SONG MAKER",1
"5c1c2c51e2d9150001b5737e","bbo0i6vx7h","Affordance Norms_Prolific",1,19,"2023-01-05T20:49:28+00:00",30.032588005066,30,"updated stim.csv","Version30.csv","Version 30","List 30","sign",NA,876,4.666666667,2379,0.601479612,877,"BOI","-","-","Please name all of the ways you could use this object. Keep in mind that one object can have many uses. Separate your responses with a comma.",NA,"y",29254,NA,NA,5643,19078,NA,NA,NA,"BILLBOARD, POSTER, POST",1
"5c1c2c51e2d9150001b5737e","bbo0i6vx7h","Affordance Norms_Prolific",1,20,"2023-01-05T20:50:02+00:00",33.81458902359,30,"updated stim.csv","Version30.csv","Version 30","List 30","sarong",NA,890,5.357142857,2243,0.398804468,891,"BOI","-","-","Please name all of the ways you could use this object. Keep in mind that one object can have many uses. Separate your responses with a comma.",NA,"y",33151,NA,NA,2971,30326,NA,NA,NA,"COVERUP, COVERALL, SKIRT, BEACH COVER, BIKINI COVER",1
"5c1c2c51e2d9150001b5737e","bbo0i6vx7h","Affordance Norms_Prolific",1,21,"2023-01-05T20:50:39+00:00",37.280431985855,30,"updated stim.csv","Version30.csv","Version 30","List 30","letter",NA,889,5.259259259,1495,0.658010365,890,"BOI","-","-","Please name all of the ways you could use this object. Keep in mind that one object can have many uses. Separate your responses with a comma.",NA,"y",36264,NA,NA,11965,33323,NA,NA,NA,"INFORMATION, WARNING, POEM, PROCLAMATION",1
"5c1c2c51e2d9150001b5737e","bbo0i6vx7h","Affordance Norms_Prolific",1,22,"2023-01-05T20:50:58+00:00",19.666095018387,30,"updated stim.csv","Version30.csv","Version 30","List 30","lipstick",NA,878,5.928571429,1522,0.577896771,879,"BOI","-","-","Please name all of the ways you could use this object. Keep in mind that one object can have many uses. Separate your responses with a comma.",NA,"y",19026,NA,NA,2340,17985,NA,NA,NA,"MARKER, BALM, GLOSS, MAKEUP",1
"5c1c2c51e2d9150001b5737e","bbo0i6vx7h","Affordance Norms_Prolific",1,23,"2023-01-05T20:51:37+00:00",38.238689899445,30,"updated stim.csv","Version30.csv","Version 30","List 30","woodblock",NA,881,5.4,2957,0.000911535,882,"BOI","-","-","Please name all of the ways you could use this object. Keep in mind that one object can have many uses. Separate your responses with a comma.",NA,"y",37592,NA,NA,3651,36379,NA,NA,NA,"STEP, SHIM, FILLER, TOY, DECOARTION, ORNAMENT",1
"5c1c2c51e2d9150001b5737e","bbo0i6vx7h","Affordance Norms_Prolific",1,24,"2023-01-05T20:53:03+00:00",85.900613069534,30,"updated stim.csv","Version30.csv","Version 30","List 30","peashooter",NA,886,4.84,1897,0.915812698,887,"BOI","-","-","Please name all of the ways you could use this object. Keep in mind that one object can have many uses. Separate your responses with a comma.",NA,"y",85020,NA,NA,20764,80596,NA,NA,NA,"STRAW SHOOT, DART SHOOTER, SLINGSHOT",1
"5c1c2c51e2d9150001b5737e","bbo0i6vx7h","Affordance Norms_Prolific",1,25,"2023-01-05T20:54:04+00:00",60.990566015244,30,"updated stim.csv","Version30.csv","Version 30","List 30","syrup",NA,898,5.16,2614,0.480576969,899,"BOI","-","-","Please name all of the ways you could use this object. Keep in mind that one object can have many uses. Separate your responses with a comma.",NA,"y",60146,NA,NA,4071,57588,NA,NA,NA,"COVER, MEDICINE, SWEETNER, WAFFLE COVER",1
"5c1c2c51e2d9150001b5737e","bbo0i6vx7h","Affordance Norms_Prolific",1,26,"2023-01-05T20:54:54+00:00",50.181751012802,30,"updated stim.csv","Version30.csv","Version 30","List 30","album",NA,895,5.791666667,23,0.231355188,896,"BOI","-","-","Please name all of the ways you could use this object. Keep in mind that one object can have many uses. Separate your responses with a comma.",NA,"y",49356,NA,NA,5494,47755,NA,NA,NA,"BOOK, DISC, PHOTO BOOK, FRISBEE,COMPACT DISC",1
"5c1c2c51e2d9150001b5737e","bbo0i6vx7h","Affordance Norms_Prolific",1,27,"2023-01-05T20:55:31+00:00",37.580190896988,30,"updated stim.csv","Version30.csv","Version 30","List 30","checkbook",NA,871,5.666666667,499,0.425587681,872,"BOI","-","-","Please name all of the ways you could use this object. Keep in mind that one object can have many uses. Separate your responses with a comma.",NA,"y",36722,NA,NA,6095,34175,NA,NA,NA,"LEDGER, ACCOUNT BOOK, RECEIPT BOOK",1
"5c1c2c51e2d9150001b5737e","bbo0i6vx7h","Affordance Norms_Prolific",1,28,"2023-01-05T20:56:08+00:00",36.154122114182,30,"updated stim.csv","Version30.csv","Version 30","List 30","compost",NA,891,5.041666667,614,0.722895407,892,"BOI","-","-","Please name all of the ways you could use this object. Keep in mind that one object can have many uses. Separate your responses with a comma.",NA,"y",35320,NA,NA,3651,33543,NA,NA,NA,"FERTILIZER, SOIL, DIRT, TRASH",1
"5c1c2c51e2d9150001b5737e","bbo0i6vx7h","Affordance Norms_Prolific",1,29,"2023-01-05T20:57:23+00:00",75.080350875854,30,"updated stim.csv","Version30.csv","Version 30","List 30","singer",NA,896,4.821428571,2384,0.068776343,897,"BOI","-","-","Please name all of the ways you could use this object. Keep in mind that one object can have many uses. Separate your responses with a comma.",NA,"y",73813,NA,NA,45803,72142,NA,NA,NA,"ENTERTAINMENT, LULLABYS, BACKGROUND MUSIC",0.89
"5c1c2c51e2d9150001b5737e","bbo0i6vx7h","Affordance Norms_Prolific",1,30,"2023-01-05T20:58:03+00:00",40.673192977905,30,"updated stim.csv","Version30.csv","Version 30","List 30","birdseed",NA,880,5.739130435,222,0.956785172,881,"BOI","-","-","Please name all of the ways you could use this object. Keep in mind that one object can have many uses. Separate your responses with a comma.",NA,"y",39596,NA,NA,3280,38526,NA,NA,NA,"WEDDING DECORATION, BIRD FEEDER, SQUIERREL FOOD, CONFETTI",1
"5c1c2c51e2d9150001b5737e","bbo0i6vx7h","Affordance Norms_Prolific",1,31,"2023-01-05T20:58:20+00:00",17.141355037689,30,"updated stim.csv","Version30.csv","Version 30","List 30","gum",NA,899,6.36,1195,0.973333942,900,"BOI","-","-","Please name all of the ways you could use this object. Keep in mind that one object can have many uses. Separate your responses with a comma.",NA,"y",16028,NA,NA,3119,15071,NA,NA,NA,"PUTTY, CANDY, SUGARLESS",1
"5c1c2c51e2d9150001b5737e","bbo0i6vx7h","Affordance Norms_Prolific",1,32,"2023-01-05T20:58:45+00:00",24.164144992828,30,"updated stim.csv","Version30.csv","Version 30","List 30","tiller",NA,875,4.541666667,2698,0.164354826,876,"BOI","-","-","Please name all of the ways you could use this object. Keep in mind that one object can have many uses. Separate your responses with a comma.",NA,"y",23495,NA,NA,6223,21703,NA,NA,NA,"SHOVEL, HOE, GARDEN, DIRT, TURNOVER",1
"5c1c2c51e2d9150001b5737e","bbo0i6vx7h","Affordance Norms_Prolific",1,33,"2023-01-05T20:59:17+00:00",32.538723945618,30,"updated stim.csv","Version30.csv","Version 30","List 30","bolt",NA,888,4.925925926,263,0.225405371,889,"BOI","-","-","Please name all of the ways you could use this object. Keep in mind that one object can have many uses. Separate your responses with a comma.",NA,"y",31478,NA,NA,3371,29061,NA,NA,NA,"FASTENER, HOLDER, PIN, TOOL",1
"5c1c2c51e2d9150001b5737e","bbo0i6vx7h","Affordance Norms_Prolific",1,34,"2023-01-05T21:05:34+00:00",377.22532010078,30,"updated stim.csv","Version30.csv","Version 30","List 30","shore",NA,894,4.333333333,2355,0.660049672,895,"BOI","-","-","Please name all of the ways you could use this object. Keep in mind that one object can have many uses. Separate your responses with a comma.",NA,"y",376584,NA,NA,362468,373816,NA,NA,NA,"BARRIER, LAND",1
"5c1c2c51e2d9150001b5737e","bbo0i6vx7h","Affordance Norms_Prolific",1,35,"2023-01-05T21:06:31+00:00",56.741332054138,30,"updated stim.csv","Version30.csv","Version 30","List 30","proofreader",NA,884,4.36,2073,0.78063647,885,"BOI","-","-","Please name all of the ways you could use this object. Keep in mind that one object can have many uses. Separate your responses with a comma.",NA,"y",55415,NA,NA,37780,43536,NA,NA,NA,"SPELL CHECKER",0.805
"5c1c2c51e2d9150001b5737e","bbo0i6vx7h","Affordance Norms_Prolific",1,36,"2023-01-05T21:06:56+00:00",25.005086898804,30,"updated stim.csv","Version30.csv","Version 30","List 30","copier",NA,892,5.136363636,636,0.426192694,893,"BOI","-","-","Please name all of the ways you could use this object. Keep in mind that one object can have many uses. Separate your responses with a comma.",NA,"y",24429,NA,NA,5512,21595,NA,NA,NA,"DITTOGRAM, XEROX, CARBON",1
"5c1c2c51e2d9150001b5737e","bbo0i6vx7h","Affordance Norms_Prolific",1,37,"2023-01-05T21:07:13+00:00",17.36567902565,30,"updated stim.csv","Version30.csv","Version 30","List 30","fairground",NA,882,4.608695652,943,0.254444575,883,"BOI","-","-","Please name all of the ways you could use this object. Keep in mind that one object can have many uses. Separate your responses with a comma.",NA,"y",16194,NA,NA,4178,14126,NA,NA,NA,"PARTY PLACE, PUBLIC LAND",1
"5c1c2c51e2d9150001b5737e","bbo0i6vx7h","Affordance Norms_Prolific",1,38,"2023-01-05T21:07:35+00:00",21.305601119995,30,"updated stim.csv","Version30.csv","Version 30","List 30","underwear",NA,887,6.52173913,2825,0.017337358,888,"BOI","-","-","Please name all of the ways you could use this object. Keep in mind that one object can have many uses. Separate your responses with a comma.",NA,"y",20619,NA,NA,3420,19099,NA,NA,NA,"GARMENT, UNDERCLOTHES",1
"5c1c2c51e2d9150001b5737e","bbo0i6vx7h","Affordance Norms_Prolific",1,39,"2023-01-05T21:07:58+00:00",23.144894838333,30,"updated stim.csv","Version30.csv","Version 30","List 30","brother",NA,873,5.043478261,335,0.432435812,874,"BOI","-","-","Please name all of the ways you could use this object. Keep in mind that one object can have many uses. Separate your responses with a comma.",NA,"y",22123,NA,NA,4092,18195,NA,NA,NA,"RELATIVE, SIBLING, HELPER",1
"5c1c2c51e2d9150001b5737e","bbo0i6vx7h","Affordance Norms_Prolific",1,40,"2023-01-05T21:08:33+00:00",34.829156160355,30,"updated stim.csv","Version30.csv","Version 30","List 30","schoolboy",NA,885,4.92,2270,0.08999478,886,"BOI","-","-","Please name all of the ways you could use this object. Keep in mind that one object can have many uses. Separate your responses with a comma.",NA,"y",33652,NA,NA,3939,31899,NA,NA,NA,"PLAYTHING, BOYFRIEND, MINION, MUSE",1
"5c91fad394f7e600172f9d4a","6rnk0pcon9","Affordance Norms_Prolific",1,11,"2023-01-05T20:56:11+00:00",23.994760990143,45,"updated stim.csv","Version45.csv","Version 45","List 45","guest",NA,1336,4.857142857,1188,0.312985953,1337,"BOI","-","-","Please name all of the ways you could use this object. Keep in mind that one object can have many uses. Separate your responses with a comma.",NA,"y",23278,NA,NA,3135,21161,NA,NA,NA,"chat to, play games with, use as ababysitter, use as a model",1
"5c91fad394f7e600172f9d4a","6rnk0pcon9","Affordance Norms_Prolific",1,12,"2023-01-05T20:56:46+00:00",35.216287136078,45,"updated stim.csv","Version45.csv","Version 45","List 45","schoolgirl",NA,1347,4.625,2271,0.147247376,1348,"BOI","-","-","Please name all of the ways you could use this object. Keep in mind that one object can have many uses. Separate your responses with a comma.",NA,"y",34543,NA,NA,3156,30891,NA,NA,NA,"talk to, ask to walk your dog, use as an actress in a tv series, ",1
"5c91fad394f7e600172f9d4a","6rnk0pcon9","Affordance Norms_Prolific",1,13,"2023-01-05T20:57:27+00:00",40.529578924179,45,"updated stim.csv","Version45.csv","Version 45","List 45","teenager",NA,1329,5.08,2657,0.195872862,1330,"BOI","-","-","Please name all of the ways you could use this object. Keep in mind that one object can have many uses. Separate your responses with a comma.",NA,"y",39831,NA,NA,2455,39114,NA,NA,NA,"babysitter, talk to, employ as a newspaper delivery person, ask to help you with a maths problem",1
