Username,ID,ExperimentName,Session,Trial,Date,TimeDif,"Condition Number","Stimuli File","Order File","Condition Description","Condition Notes",Stimuli*Cue,Stimuli*Answer,Stimuli*Shuffle,"Stimuli*Stimuli Notes",Stimuli*Value,Procedure*Item,"Procedure*Trial Type","Procedure*Max Time","Procedure*Min Time",Procedure*Text,"Procedure*Procedure Notes",Procedure*Shuffle,Response*RT,Response*Response,Response*Accuracy,Response*RTfirst,Response*RTlast,Response*strictAcc,Response*lenientAcc,Response*focus,Response*JOL,Response*Focus
BC2326,r0j9kssh6o,"Affordance Norms_ILSTU",1,1,2022-09-26T02:24:41+00:00,11.581567049026,20,"updated stim.csv",Version20.csv,"Version 20","List 20",,,,,,0,Instruct,-,10,"In this section, you will be presented with a series of objects. Please name as many possible uses for this object as you can think of by typing them in the box below each object.",,Instruct1,11439,,,-1,-1,,,,,1
BC2326,r0j9kssh6o,"Affordance Norms_ILSTU",1,2,2022-09-26T02:24:53+00:00,11.125416994095,20,"updated stim.csv",Version20.csv,"Version 20","List 20",,,,,,0,Instruct,-,10,"Please keep in mind that a single object will have more than one use. For example, a ball can be thrown or can be bounced or even stepped on. When listing multiple uses for one object, please separate each use with a comma (i.e., thrown, bounced, stepped on)",,Instruct2,11013,,,-1,-1,,,,,1
BC2326,r0j9kssh6o,"Affordance Norms_ILSTU",1,3,2022-09-26T02:24:56+00:00,3.0594089031219,20,"updated stim.csv",Version20.csv,"Version 20","List 20",,,,,,0,Instruct,-,-,"Before starting the experiment, you will complete a short practice sesstion. Press ENTER when you are ready to begin.",,Instruct3,2935,,,-1,-1,,,,,1
BC2326,r0j9kssh6o,"Affordance Norms_ILSTU",1,4,2022-09-26T02:25:10+00:00,14.457053899765,20,"updated stim.csv",Version20.csv,"Version 20","List 20",spaghetti,,3003,6,2461,3004,BOI,-,-,"Please name all of the ways you could use this object. Keep in mind that one object can have many uses. Separate your responses with a comma.",,n,14339,,,7003,9289,,,,"eat, cook, ",1
BC2326,r0j9kssh6o,"Affordance Norms_ILSTU",1,5,2022-09-26T02:25:16+00:00,6.3360240459442,20,"updated stim.csv",Version20.csv,"Version 20","List 20",shortening,,3002,4.92,2358,3003,BOI,-,-,"Please name all of the ways you could use this object. Keep in mind that one object can have many uses. Separate your responses with a comma.",,n,6222,,,3406,5372,,,,"bake, cook",1
BC2326,r0j9kssh6o,"Affordance Norms_ILSTU",1,6,2022-09-26T02:25:23+00:00,6.5340521335602,20,"updated stim.csv",Version20.csv,"Version 20","List 20",saucer,,3005,5.777777778,2249,3006,BOI,-,-,"Please name all of the ways you could use this object. Keep in mind that one object can have many uses. Separate your responses with a comma.",,n,6419,,,5170,5559,,,,cook,1
BC2326,r0j9kssh6o,"Affordance Norms_ILSTU",1,7,2022-09-26T02:25:29+00:00,5.6192870140076,20,"updated stim.csv",Version20.csv,"Version 20","List 20",grain,,3004,5.217391304,1143,3005,BOI,-,-,"Please name all of the ways you could use this object. Keep in mind that one object can have many uses. Separate your responses with a comma.",,n,5498,,,1399,4239,,,,"cook, measure",1
BC2326,r0j9kssh6o,"Affordance Norms_ILSTU",1,8,2022-09-26T02:25:41+00:00,12.061765909195,20,"updated stim.csv",Version20.csv,"Version 20","List 20",paperwork,,3001,5.625,1866,3002,BOI,-,-,"Please name all of the ways you could use this object. Keep in mind that one object can have many uses. Separate your responses with a comma.",,n,11947,,,1969,11101,,,,"read, print, give information",1
BC2326,r0j9kssh6o,"Affordance Norms_ILSTU",1,9,2022-09-26T02:25:42+00:00,1.4410140514374,20,"updated stim.csv",Version20.csv,"Version 20","List 20",,,,,,0,Instruct,-,-,"You have completed this section. Press ENTER to continue",,"Instruct 5",1318,,,-1,-1,,,,,1
BC2326,r0j9kssh6o,"Affordance Norms_ILSTU",1,10,2022-09-26T02:25:44+00:00,1.5584080219269,20,"updated stim.csv",Version20.csv,"Version 20","List 20",,,,,,0,Instruct,-,-,"You will now start the full experiment. Press ENTER when you are ready to begin.",,,1443,,,-1,-1,,,,,1
BC2326,r0j9kssh6o,"Affordance Norms_ILSTU",1,11,2022-09-26T02:25:49+00:00,5.387039899826,20,"updated stim.csv",Version20.csv,"Version 20","List 20",obstetrician,,598,5.04,1798,599,BOI,-,-,"Please name all of the ways you could use this object. Keep in mind that one object can have many uses. Separate your responses with a comma.",,y,5268,,,4469,4469,,,,?,1
BC2326,r0j9kssh6o,"Affordance Norms_ILSTU",1,12,2022-09-26T02:25:55+00:00,5.5858199596405,20,"updated stim.csv",Version20.csv,"Version 20","List 20",garage,,575,4.96,1073,576,BOI,-,-,"Please name all of the ways you could use this object. Keep in mind that one object can have many uses. Separate your responses with a comma.",,y,5461,,,2066,4269,,,,"park, storage",1
BC2326,r0j9kssh6o,"Affordance Norms_ILSTU",1,13,2022-09-26T02:26:00+00:00,5.3270390033722,20,"updated stim.csv",Version20.csv,"Version 20","List 20",buddy,,588,4.916666667,344,589,BOI,-,-,"Please name all of the ways you could use this object. Keep in mind that one object can have many uses. Separate your responses with a comma.",,y,5210,,,2031,3893,,,,"friend, company",1
BC2326,r0j9kssh6o,"Affordance Norms_ILSTU",1,14,2022-09-26T02:26:04+00:00,3.9356160163879,20,"updated stim.csv",Version20.csv,"Version 20","List 20",dinner,,572,5.545454545,795,573,BOI,-,-,"Please name all of the ways you could use this object. Keep in mind that one object can have many uses. Separate your responses with a comma.",,y,3818,,,1051,2595,,,,"eat, cook",1
BC2326,r0j9kssh6o,"Affordance Norms_ILSTU",1,15,2022-09-26T02:26:10+00:00,5.7199440002441,20,"updated stim.csv",Version20.csv,"Version 20","List 20",firewood,,593,5.72,987,594,BOI,-,-,"Please name all of the ways you could use this object. Keep in mind that one object can have many uses. Separate your responses with a comma.",,y,5592,,,1567,2521,,,,burn,1
BC2326,r0j9kssh6o,"Affordance Norms_ILSTU",1,16,2022-09-26T02:26:18+00:00,8.3975851535797,20,"updated stim.csv",Version20.csv,"Version 20","List 20",rodent,,591,5.041666667,2186,592,BOI,-,-,"Please name all of the ways you could use this object. Keep in mind that one object can have many uses. Separate your responses with a comma.",,y,8280,,,6324,6324,,,,?,1
BC2326,r0j9kssh6o,"Affordance Norms_ILSTU",1,17,2022-09-26T02:26:24+00:00,5.8317029476166,20,"updated stim.csv",Version20.csv,"Version 20","List 20",flapjack,,571,5.2,1000,572,BOI,-,-,"Please name all of the ways you could use this object. Keep in mind that one object can have many uses. Separate your responses with a comma.",,y,5712,,,1658,4958,,,,"cook, flip, eat",1
BC2326,r0j9kssh6o,"Affordance Norms_ILSTU",1,18,2022-09-26T02:26:29+00:00,5.3639059066772,20,"updated stim.csv",Version20.csv,"Version 20","List 20",jam,,573,5.173913043,1372,574,BOI,-,-,"Please name all of the ways you could use this object. Keep in mind that one object can have many uses. Separate your responses with a comma.",,y,5251,,,2287,4608,,,,"spread, eat",1
BC2326,r0j9kssh6o,"Affordance Norms_ILSTU",1,19,2022-09-26T02:26:31+00:00,2.1435000896454,20,"updated stim.csv",Version20.csv,"Version 20","List 20",oilcloth,,600,5.125,1803,601,BOI,-,-,"Please name all of the ways you could use this object. Keep in mind that one object can have many uses. Separate your responses with a comma.",,y,2028,,,1701,1701,,,,?,1
BC2326,r0j9kssh6o,"Affordance Norms_ILSTU",1,20,2022-09-26T02:26:34+00:00,2.9275050163269,20,"updated stim.csv",Version20.csv,"Version 20","List 20",novel,,578,5.4,1783,579,BOI,-,-,"Please name all of the ways you could use this object. Keep in mind that one object can have many uses. Separate your responses with a comma.",,y,2811,,,1585,2470,,,,read,1
BC2326,r0j9kssh6o,"Affordance Norms_ILSTU",1,21,2022-09-26T02:26:39+00:00,4.6295590400696,20,"updated stim.csv",Version20.csv,"Version 20","List 20",shack,,583,5.125,2317,584,BOI,-,-,"Please name all of the ways you could use this object. Keep in mind that one object can have many uses. Separate your responses with a comma.",,y,4491,,,1712,3015,,,,Storage,1
BC2326,r0j9kssh6o,"Affordance Norms_ILSTU",1,22,2022-09-26T02:26:45+00:00,6.6703817844391,20,"updated stim.csv",Version20.csv,"Version 20","List 20",sketchbook,,592,5.833333333,2394,593,BOI,-,-,"Please name all of the ways you could use this object. Keep in mind that one object can have many uses. Separate your responses with a comma.",,y,6551,,,2112,3188,,,,draw,1
BC2326,r0j9kssh6o,"Affordance Norms_ILSTU",1,23,2022-09-26T02:26:48+00:00,2.653881072998,20,"updated stim.csv",Version20.csv,"Version 20","List 20",skittle,,577,5,2401,578,BOI,-,-,"Please name all of the ways you could use this object. Keep in mind that one object can have many uses. Separate your responses with a comma.",,y,2510,,,1491,2059,,,,eat,1
BC2326,r0j9kssh6o,"Affordance Norms_ILSTU",1,24,2022-09-26T02:26:50+00:00,2.0263800621033,20,"updated stim.csv",Version20.csv,"Version 20","List 20",poinsettia,,576,5.347826087,2018,577,BOI,-,-,"Please name all of the ways you could use this object. Keep in mind that one object can have many uses. Separate your responses with a comma.",,y,1911,,,1656,1656,,,,?,1
BC2326,r0j9kssh6o,"Affordance Norms_ILSTU",1,25,2022-09-26T02:26:54+00:00,3.3295869827271,20,"updated stim.csv",Version20.csv,"Version 20","List 20",craftsman,,585,4.833333333,679,586,BOI,-,-,"Please name all of the ways you could use this object. Keep in mind that one object can have many uses. Separate your responses with a comma.",,y,3217,,,1593,2528,,,,craft,1
BC2326,r0j9kssh6o,"Affordance Norms_ILSTU",1,26,2022-09-26T02:26:58+00:00,4.6535930633545,20,"updated stim.csv",Version20.csv,"Version 20","List 20",stepladder,,599,6.130434783,2527,600,BOI,-,-,"Please name all of the ways you could use this object. Keep in mind that one object can have many uses. Separate your responses with a comma.",,y,4545,,,2255,3706,,,,Step,1
BC2326,r0j9kssh6o,"Affordance Norms_ILSTU",1,27,2022-09-26T02:27:05+00:00,6.6285419464111,20,"updated stim.csv",Version20.csv,"Version 20","List 20",cocoa,,574,5.625,589,575,BOI,-,-,"Please name all of the ways you could use this object. Keep in mind that one object can have many uses. Separate your responses with a comma.",,y,6517,,,1866,6265,,,,"cook, bake, eat, taste",1
BC2326,r0j9kssh6o,"Affordance Norms_ILSTU",1,28,2022-09-26T02:27:07+00:00,2.1365230083466,20,"updated stim.csv",Version20.csv,"Version 20","List 20",seedling,,582,5.083333333,2309,583,BOI,-,-,"Please name all of the ways you could use this object. Keep in mind that one object can have many uses. Separate your responses with a comma.",,y,2003,,,1785,1785,,,,?,1
BC2326,r0j9kssh6o,"Affordance Norms_ILSTU",1,29,2022-09-26T02:27:11+00:00,4.3226790428162,20,"updated stim.csv",Version20.csv,"Version 20","List 20",instructor,,580,4.583333333,1360,581,BOI,-,-,"Please name all of the ways you could use this object. Keep in mind that one object can have many uses. Separate your responses with a comma.",,y,4175,,,1728,3901,,,,"listen, learn",1
BC2326,r0j9kssh6o,"Affordance Norms_ILSTU",1,30,2022-09-26T02:27:13+00:00,1.5496048927307,20,"updated stim.csv",Version20.csv,"Version 20","List 20",hashish,,584,4.909090909,1257,585,BOI,-,-,"Please name all of the ways you could use this object. Keep in mind that one object can have many uses. Separate your responses with a comma.",,y,1401,,,1141,1141,,,,?,1
BC2326,r0j9kssh6o,"Affordance Norms_ILSTU",1,31,2022-09-26T02:27:16+00:00,3.2182879447937,20,"updated stim.csv",Version20.csv,"Version 20","List 20",gem,,597,5.517241379,1093,598,BOI,-,-,"Please name all of the ways you could use this object. Keep in mind that one object can have many uses. Separate your responses with a comma.",,y,3106,,,1949,2925,,,,observe,1
BC2326,r0j9kssh6o,"Affordance Norms_ILSTU",1,32,2022-09-26T02:27:19+00:00,3.1190390586853,20,"updated stim.csv",Version20.csv,"Version 20","List 20",breasts,,589,6.173913043,315,590,BOI,-,-,"Please name all of the ways you could use this object. Keep in mind that one object can have many uses. Separate your responses with a comma.",,y,2976,,,2695,2695,,,,?,1
BC2326,r0j9kssh6o,"Affordance Norms_ILSTU",1,33,2022-09-26T02:27:21+00:00,1.5633170604706,20,"updated stim.csv",Version20.csv,"Version 20","List 20",antennae,,587,4.538461538,47,588,BOI,-,-,"Please name all of the ways you could use this object. Keep in mind that one object can have many uses. Separate your responses with a comma.",,y,1420,,,1195,1195,,,,?,1
BC2326,r0j9kssh6o,"Affordance Norms_ILSTU",1,34,2022-09-26T02:27:22+00:00,1.5564930438995,20,"updated stim.csv",Version20.csv,"Version 20","List 20",neurologist,,595,4.384615385,1753,596,BOI,-,-,"Please name all of the ways you could use this object. Keep in mind that one object can have many uses. Separate your responses with a comma.",,y,1416,,,1211,1211,,,,?,1
BC2326,r0j9kssh6o,"Affordance Norms_ILSTU",1,35,2022-09-26T02:27:27+00:00,4.6659419536591,20,"updated stim.csv",Version20.csv,"Version 20","List 20",crosswalk,,596,4.714285714,706,597,BOI,-,-,"Please name all of the ways you could use this object. Keep in mind that one object can have many uses. Separate your responses with a comma.",,y,4559,,,1321,4380,,,,"walk, direct",1
BC2326,r0j9kssh6o,"Affordance Norms_ILSTU",1,36,2022-09-26T02:27:32+00:00,5.0464780330658,20,"updated stim.csv",Version20.csv,"Version 20","List 20",tambourine,,579,5.916666667,2628,580,BOI,-,-,"Please name all of the ways you could use this object. Keep in mind that one object can have many uses. Separate your responses with a comma.",,y,4929,,,1505,4695,,,,"play, listen",1
BC2326,r0j9kssh6o,"Affordance Norms_ILSTU",1,37,2022-09-26T02:27:35+00:00,2.8456249237061,20,"updated stim.csv",Version20.csv,"Version 20","List 20",pastry,,590,6.086956522,1886,591,BOI,-,-,"Please name all of the ways you could use this object. Keep in mind that one object can have many uses. Separate your responses with a comma.",,y,2726,,,1173,2528,,,,"eat, bake",1
BC2326,r0j9kssh6o,"Affordance Norms_ILSTU",1,38,2022-09-26T02:27:42+00:00,6.7941470146179,20,"updated stim.csv",Version20.csv,"Version 20","List 20",sedan,,586,5.565217391,2306,587,BOI,-,-,"Please name all of the ways you could use this object. Keep in mind that one object can have many uses. Separate your responses with a comma.",,y,6680,,,2143,6446,,,,"drive, sit, sleep",1
BC2326,r0j9kssh6o,"Affordance Norms_ILSTU",1,39,2022-09-26T02:27:46+00:00,4.1339631080627,20,"updated stim.csv",Version20.csv,"Version 20","List 20",smock,,594,5.08,2421,595,BOI,-,-,"Please name all of the ways you could use this object. Keep in mind that one object can have many uses. Separate your responses with a comma.",,y,4021,,,1547,3878,,,,"protect, wear",1
BC2326,r0j9kssh6o,"Affordance Norms_ILSTU",1,40,2022-09-26T02:27:47+00:00,1.4899439811707,20,"updated stim.csv",Version20.csv,"Version 20","List 20",theatergoer,,581,5,2673,582,BOI,-,-,"Please name all of the ways you could use this object. Keep in mind that one object can have many uses. Separate your responses with a comma.",,y,1376,,,1164,1164,,,,?,1
BC2326,r0j9kssh6o,"Affordance Norms_ILSTU",1,41,2022-09-26T02:27:50+00:00,2.3399338722229,20,"updated stim.csv",Version20.csv,"Version 20","List 20",,,,,,0,Instruct,,,"You will now be asked a few questions about your experience today.",,"Instruct 4",2218,,,-1,-1,,,,,1
