Username,ID,ExperimentName,Session,Trial,Date,TimeDif,"Condition Number","Stimuli File","Order File","Condition Description","Condition Notes",Stimuli*Cue,Stimuli*Answer,Stimuli*Shuffle,"Stimuli*Stimuli Notes",Stimuli*Value,Procedure*Item,"Procedure*Trial Type","Procedure*Max Time","Procedure*Min Time",Procedure*Text,"Procedure*Procedure Notes",Procedure*Shuffle,Response*RT,Response*Response,Response*Accuracy,Response*RTfirst,Response*RTlast,Response*strictAcc,Response*lenientAcc,Response*focus,Response*JOL,Response*Focus
HO7749,3mkza5x0z4,"Affordance Norms_ILSTU",1,1,2022-09-26T03:00:57+00:00,14.386008024216,21,"updated stim.csv",Version21.csv,"Version 21","List 21",,,,,,0,Instruct,-,10,"In this section, you will be presented with a series of objects. Please name as many possible uses for this object as you can think of by typing them in the box below each object.",,Instruct1,14291,,,-1,-1,,,,,1
HO7749,3mkza5x0z4,"Affordance Norms_ILSTU",1,2,2022-09-26T03:01:16+00:00,18.465580940247,21,"updated stim.csv",Version21.csv,"Version 21","List 21",,,,,,0,Instruct,-,10,"Please keep in mind that a single object will have more than one use. For example, a ball can be thrown or can be bounced or even stepped on. When listing multiple uses for one object, please separate each use with a comma (i.e., thrown, bounced, stepped on)",,Instruct2,18324,,,-1,-1,,,,,1
HO7749,3mkza5x0z4,"Affordance Norms_ILSTU",1,3,2022-09-26T03:01:22+00:00,6.6825201511383,21,"updated stim.csv",Version21.csv,"Version 21","List 21",,,,,,0,Instruct,-,-,"Before starting the experiment, you will complete a short practice sesstion. Press ENTER when you are ready to begin.",,Instruct3,6558,,,-1,-1,,,,,1
HO7749,3mkza5x0z4,"Affordance Norms_ILSTU",1,4,2022-09-26T03:01:55+00:00,32.292013883591,21,"updated stim.csv",Version21.csv,"Version 21","List 21",spaghetti,,3003,6,2461,3004,BOI,-,-,"Please name all of the ways you could use this object. Keep in mind that one object can have many uses. Separate your responses with a comma.",,n,32074,,,1617,26798,,,,"eat, build, fry, cook, play with, break, ",1
HO7749,3mkza5x0z4,"Affordance Norms_ILSTU",1,5,2022-09-26T03:02:27+00:00,32.070920944214,21,"updated stim.csv",Version21.csv,"Version 21","List 21",shortening,,3002,4.92,2358,3003,BOI,-,-,"Please name all of the ways you could use this object. Keep in mind that one object can have many uses. Separate your responses with a comma.",,n,31833,,,8378,21087,,,,"bake, cook, fry, eat, buy, ",1
HO7749,3mkza5x0z4,"Affordance Norms_ILSTU",1,6,2022-09-26T03:03:17+00:00,50.791377067566,21,"updated stim.csv",Version21.csv,"Version 21","List 21",grain,,3004,5.217391304,1143,3005,BOI,-,-,"Please name all of the ways you could use this object. Keep in mind that one object can have many uses. Separate your responses with a comma.",,n,50551,,,2677,48942,,,,"make bread, make alcohol, make oatmeal, eat, store, feed animals, make into a stress ball, ",1
HO7749,3mkza5x0z4,"Affordance Norms_ILSTU",1,7,2022-09-26T03:03:34+00:00,16.905816078186,21,"updated stim.csv",Version21.csv,"Version 21","List 21",saucer,,3005,5.777777778,2249,3006,BOI,-,-,"Please name all of the ways you could use this object. Keep in mind that one object can have many uses. Separate your responses with a comma.",,n,16742,,,2475,9026,,,,"throw, eat from",1
HO7749,3mkza5x0z4,"Affordance Norms_ILSTU",1,8,2022-09-26T03:04:33+00:00,58.542387008667,21,"updated stim.csv",Version21.csv,"Version 21","List 21",paperwork,,3001,5.625,1866,3002,BOI,-,-,"Please name all of the ways you could use this object. Keep in mind that one object can have many uses. Separate your responses with a comma.",,n,58308,,,22962,51304,,,,"make fire, burn, kindling, keep records, throw away, ",1
HO7749,3mkza5x0z4,"Affordance Norms_ILSTU",1,9,2022-09-26T03:04:35+00:00,1.8792428970337,21,"updated stim.csv",Version21.csv,"Version 21","List 21",,,,,,0,Instruct,-,-,"You have completed this section. Press ENTER to continue",,"Instruct 5",1734,,,-1,-1,,,,,1
HO7749,3mkza5x0z4,"Affordance Norms_ILSTU",1,10,2022-09-26T03:04:39+00:00,4.3440909385681,21,"updated stim.csv",Version21.csv,"Version 21","List 21",,,,,,0,Instruct,-,-,"You will now start the full experiment. Press ENTER when you are ready to begin.",,,4223,,,-1,-1,,,,,1
HO7749,3mkza5x0z4,"Affordance Norms_ILSTU",1,11,2022-09-26T03:05:16+00:00,37.219978094101,21,"updated stim.csv",Version21.csv,"Version 21","List 21",ammo,,603,5.32,34,604,BOI,-,-,"Please name all of the ways you could use this object. Keep in mind that one object can have many uses. Separate your responses with a comma.",,y,37017,,,12871,24650,,,,"shoot, kill, hurt, ",1
HO7749,3mkza5x0z4,"Affordance Norms_ILSTU",1,12,2022-09-26T03:05:50+00:00,33.718827962875,21,"updated stim.csv",Version21.csv,"Version 21","List 21",whore,,608,4.782608696,2933,609,BOI,-,-,"Please name all of the ways you could use this object. Keep in mind that one object can have many uses. Separate your responses with a comma.",,y,33523,,,9693,32301,,,,"fuck, kill, abuse, not treat as a person",1
HO7749,3mkza5x0z4,"Affordance Norms_ILSTU",1,13,2022-09-26T03:06:18+00:00,28.141983985901,21,"updated stim.csv",Version21.csv,"Version 21","List 21",muffler,,616,4.75,1712,617,BOI,-,-,"Please name all of the ways you could use this object. Keep in mind that one object can have many uses. Separate your responses with a comma.",,y,27916,,,2473,24826,,,,"driving, silencing, cars",1
HO7749,3mkza5x0z4,"Affordance Norms_ILSTU",1,14,2022-09-26T03:06:52+00:00,34.007611036301,21,"updated stim.csv",Version21.csv,"Version 21","List 21",spinach,,626,4.96,2474,627,BOI,-,-,"Please name all of the ways you could use this object. Keep in mind that one object can have many uses. Separate your responses with a comma.",,y,33767,,,3350,33042,,,,"eat, blend, cook, stew, give to animals, use as dye",1
HO7749,3mkza5x0z4,"Affordance Norms_ILSTU",1,15,2022-09-26T03:07:20+00:00,28.321213006973,21,"updated stim.csv",Version21.csv,"Version 21","List 21",condominium,,620,4.678571429,623,621,BOI,-,-,"Please name all of the ways you could use this object. Keep in mind that one object can have many uses. Separate your responses with a comma.",,y,28108,,,3520,24338,,,,"live, rent, deal drugs from, do drugs in, raise a family, retire, ",1
HO7749,3mkza5x0z4,"Affordance Norms_ILSTU",1,16,2022-09-26T03:07:41+00:00,20.284787893295,21,"updated stim.csv",Version21.csv,"Version 21","List 21",lizard,,606,4.925925926,1529,607,BOI,-,-,"Please name all of the ways you could use this object. Keep in mind that one object can have many uses. Separate your responses with a comma.",,y,20033,,,2882,18546,,,,"have as pet",1
HO7749,3mkza5x0z4,"Affordance Norms_ILSTU",1,17,2022-09-26T03:07:54+00:00,12.940510988235,21,"updated stim.csv",Version21.csv,"Version 21","List 21",iguana,,617,5.166666667,1350,618,BOI,-,-,"Please name all of the ways you could use this object. Keep in mind that one object can have many uses. Separate your responses with a comma.",,y,12808,,,1380,11131,,,,"have as pet, use to kill flies ",1
HO7749,3mkza5x0z4,"Affordance Norms_ILSTU",1,18,2022-09-26T03:08:12+00:00,18.542169094086,21,"updated stim.csv",Version21.csv,"Version 21","List 21",can,,619,4.88,408,620,BOI,-,-,"Please name all of the ways you could use this object. Keep in mind that one object can have many uses. Separate your responses with a comma.",,y,18385,,,1873,11925,,,,"crush, roll, recycle, make earings, ",1
HO7749,3mkza5x0z4,"Affordance Norms_ILSTU",1,19,2022-09-26T03:08:40+00:00,27.35853600502,21,"updated stim.csv",Version21.csv,"Version 21","List 21",seaweed,,610,4.458333333,2304,611,BOI,-,-,"Please name all of the ways you could use this object. Keep in mind that one object can have many uses. Separate your responses with a comma.",,y,27145,,,1645,25247,,,,"eat, make plastic",1
HO7749,3mkza5x0z4,"Affordance Norms_ILSTU",1,20,2022-09-26T03:08:59+00:00,18.935017108917,21,"updated stim.csv",Version21.csv,"Version 21","List 21",schoolhouse,,612,5.291666667,2272,613,BOI,-,-,"Please name all of the ways you could use this object. Keep in mind that one object can have many uses. Separate your responses with a comma.",,y,18796,,,2857,18003,,,,"church, teaching, ",1
HO7749,3mkza5x0z4,"Affordance Norms_ILSTU",1,21,2022-09-26T03:09:16+00:00,17.031069993973,21,"updated stim.csv",Version21.csv,"Version 21","List 21",bell,,614,5.76,196,615,BOI,-,-,"Please name all of the ways you could use this object. Keep in mind that one object can have many uses. Separate your responses with a comma.",,y,16897,,,3300,14318,,,,"ring it, play with it, create song, ",1
HO7749,3mkza5x0z4,"Affordance Norms_ILSTU",1,22,2022-09-26T03:10:20+00:00,64.918452978134,21,"updated stim.csv",Version21.csv,"Version 21","List 21",steroids,,623,4.52,2532,624,BOI,-,-,"Please name all of the ways you could use this object. Keep in mind that one object can have many uses. Separate your responses with a comma.",,y,64635,,,3754,60956,,,,"get ripped, take as pills, take as injections, use to cure eczema, use to aid asthma",0.997
HO7749,3mkza5x0z4,"Affordance Norms_ILSTU",1,23,2022-09-26T03:10:36+00:00,15.92463183403,21,"updated stim.csv",Version21.csv,"Version 21","List 21",frog,,604,5.125,1058,605,BOI,-,-,"Please name all of the ways you could use this object. Keep in mind that one object can have many uses. Separate your responses with a comma.",,y,15764,,,7423,15176,,,,"eat, have as pet",1
HO7749,3mkza5x0z4,"Affordance Norms_ILSTU",1,24,2022-09-26T03:11:05+00:00,28.931236028671,21,"updated stim.csv",Version21.csv,"Version 21","List 21",organ,,611,5.185185185,1820,612,BOI,-,-,"Please name all of the ways you could use this object. Keep in mind that one object can have many uses. Separate your responses with a comma.",,y,28636,,,2963,21301,,,,"eat, donate, kill, harm, ",1
HO7749,3mkza5x0z4,"Affordance Norms_ILSTU",1,25,2022-09-26T03:11:25+00:00,19.633064031601,21,"updated stim.csv",Version21.csv,"Version 21","List 21",gangster,,601,4.36,1072,602,BOI,-,-,"Please name all of the ways you could use this object. Keep in mind that one object can have many uses. Separate your responses with a comma.",,y,19331,,,3737,16604,,,,"protection, deal drugs, lend money, ",1
HO7749,3mkza5x0z4,"Affordance Norms_ILSTU",1,26,2022-09-26T03:11:56+00:00,31.251806020737,21,"updated stim.csv",Version21.csv,"Version 21","List 21",sunflower,,615,5.333333333,2587,616,BOI,-,-,"Please name all of the ways you could use this object. Keep in mind that one object can have many uses. Separate your responses with a comma.",,y,31034,,,1558,28775,,,,"eat, buy for someone you like, give someone you like, make butter from the seeds, put seeds in salad",1
HO7749,3mkza5x0z4,"Affordance Norms_ILSTU",1,27,2022-09-26T03:12:08+00:00,12.103960037231,21,"updated stim.csv",Version21.csv,"Version 21","List 21",snowshoe,,605,5.541666667,2436,606,BOI,-,-,"Please name all of the ways you could use this object. Keep in mind that one object can have many uses. Separate your responses with a comma.",,y,11962,,,2626,8541,,,,"horse, play game, ",1
HO7749,3mkza5x0z4,"Affordance Norms_ILSTU",1,28,2022-09-26T03:12:09+00:00,0.21412086486816,21,"updated stim.csv",Version21.csv,"Version 21","List 21",cutlery,,607,5.913043478,738,608,BOI,-,-,"Please name all of the ways you could use this object. Keep in mind that one object can have many uses. Separate your responses with a comma.",,y,81,,,-1,-1,,,,,1
HO7749,3mkza5x0z4,"Affordance Norms_ILSTU",1,29,2022-09-26T03:12:19+00:00,10.545188188553,21,"updated stim.csv",Version21.csv,"Version 21","List 21",piano,,630,6.166666667,1947,631,BOI,-,-,"Please name all of the ways you could use this object. Keep in mind that one object can have many uses. Separate your responses with a comma.",,y,10417,,,2139,9594,,,,"play, make music",1
HO7749,3mkza5x0z4,"Affordance Norms_ILSTU",1,30,2022-09-26T03:12:46+00:00,26.792897939682,21,"updated stim.csv",Version21.csv,"Version 21","List 21",toiletry,,602,5.222222222,2720,603,BOI,-,-,"Please name all of the ways you could use this object. Keep in mind that one object can have many uses. Separate your responses with a comma.",,y,26606,,,17529,24840,,,,"use the toilet, pee, poop, ",1
HO7749,3mkza5x0z4,"Affordance Norms_ILSTU",1,31,2022-09-26T03:12:58+00:00,12.278780937195,21,"updated stim.csv",Version21.csv,"Version 21","List 21",quill,,613,4.565217391,2115,614,BOI,-,-,"Please name all of the ways you could use this object. Keep in mind that one object can have many uses. Separate your responses with a comma.",,y,12131,,,5754,11888,,,,"defense, hurt someone, ",1
HO7749,3mkza5x0z4,"Affordance Norms_ILSTU",1,32,2022-09-26T03:13:09+00:00,11.128971099854,21,"updated stim.csv",Version21.csv,"Version 21","List 21",checkerboard,,609,5.391304348,500,610,BOI,-,-,"Please name all of the ways you could use this object. Keep in mind that one object can have many uses. Separate your responses with a comma.",,y,11003,,,1643,7050,,,,"play chess, play checkers, ",1
HO7749,3mkza5x0z4,"Affordance Norms_ILSTU",1,33,2022-09-26T03:13:19+00:00,9.8818559646606,21,"updated stim.csv",Version21.csv,"Version 21","List 21",gumdrop,,628,5.875,1197,629,BOI,-,-,"Please name all of the ways you could use this object. Keep in mind that one object can have many uses. Separate your responses with a comma.",,y,9730,,,3232,7961,,,,"eat, give to someone, ",1
HO7749,3mkza5x0z4,"Affordance Norms_ILSTU",1,34,2022-09-26T03:13:53+00:00,34.196423053741,21,"updated stim.csv",Version21.csv,"Version 21","List 21",guesthouse,,627,4.913043478,1189,628,BOI,-,-,"Please name all of the ways you could use this object. Keep in mind that one object can have many uses. Separate your responses with a comma.",,y,33984,,,5352,32923,,,,"decorate, show of wealth, let someone stay there, rent it out, give to parents, give to kids, ",1
HO7749,3mkza5x0z4,"Affordance Norms_ILSTU",1,35,2022-09-26T03:14:09+00:00,15.69313287735,21,"updated stim.csv",Version21.csv,"Version 21","List 21",cadillac,,621,5.12,395,622,BOI,-,-,"Please name all of the ways you could use this object. Keep in mind that one object can have many uses. Separate your responses with a comma.",,y,15562,,,1489,14396,,,,"drive, clean, crash, ",1
HO7749,3mkza5x0z4,"Affordance Norms_ILSTU",1,36,2022-09-26T03:14:23+00:00,13.739547014236,21,"updated stim.csv",Version21.csv,"Version 21","List 21",splint,,618,4.958333333,2477,619,BOI,-,-,"Please name all of the ways you could use this object. Keep in mind that one object can have many uses. Separate your responses with a comma.",,y,13602,,,4069,9701,,,,"protect, fix bones, ",1
HO7749,3mkza5x0z4,"Affordance Norms_ILSTU",1,37,2022-09-26T03:14:54+00:00,31.156502008438,21,"updated stim.csv",Version21.csv,"Version 21","List 21",ring,,624,6.130434783,2170,625,BOI,-,-,"Please name all of the ways you could use this object. Keep in mind that one object can have many uses. Separate your responses with a comma.",,y,30959,,,3161,26938,,,,"show commitment, fashion, camera outside door, ",1
HO7749,3mkza5x0z4,"Affordance Norms_ILSTU",1,38,2022-09-26T03:15:20+00:00,26.398365974426,21,"updated stim.csv",Version21.csv,"Version 21","List 21",washroom,,625,5.037037037,2901,626,BOI,-,-,"Please name all of the ways you could use this object. Keep in mind that one object can have many uses. Separate your responses with a comma.",,y,26184,,,2058,24821,,,,"wash body, wash hands, private place to calm yourself, ",1
HO7749,3mkza5x0z4,"Affordance Norms_ILSTU",1,39,2022-09-26T03:16:24+00:00,63.276569128036,21,"updated stim.csv",Version21.csv,"Version 21","List 21",placenta,,629,4.28,1984,630,BOI,-,-,"Please name all of the ways you could use this object. Keep in mind that one object can have many uses. Separate your responses with a comma.",,y,63071,,,6900,61869,,,,"sac to keep baby, crush up for pills, save stem cells, eat",1
HO7749,3mkza5x0z4,"Affordance Norms_ILSTU",1,40,2022-09-26T03:16:42+00:00,18.414891958237,21,"updated stim.csv",Version21.csv,"Version 21","List 21",bugle,,622,4.541666667,348,623,BOI,-,-,"Please name all of the ways you could use this object. Keep in mind that one object can have many uses. Separate your responses with a comma.",,y,18270,,,5702,17834,,,,"play, military purposes",1
HO7749,3mkza5x0z4,"Affordance Norms_ILSTU",1,41,2022-09-26T03:16:45+00:00,3.2052040100098,21,"updated stim.csv",Version21.csv,"Version 21","List 21",,,,,,0,Instruct,,,"You will now be asked a few questions about your experience today.",,"Instruct 4",3059,,,-1,-1,,,,,1
