Username,ID,ExperimentName,Session,Trial,Date,TimeDif,"Condition Number","Stimuli File","Order File","Condition Description","Condition Notes",Stimuli*Cue,Stimuli*Answer,Stimuli*Shuffle,"Stimuli*Stimuli Notes",Stimuli*Value,Procedure*Item,"Procedure*Trial Type","Procedure*Max Time","Procedure*Min Time",Procedure*Text,"Procedure*Procedure Notes",Procedure*Shuffle,Response*RT,Response*Response,Response*Accuracy,Response*RTfirst,Response*RTlast,Response*strictAcc,Response*lenientAcc,Response*focus,Response*JOL,Response*Focus
BJ9032,dpqy3mg9f1,"Affordance Norms_ILSTU",1,1,2022-09-22T17:41:46+00:00,20.767008066177,24,"updated stim.csv",Version24.csv,"Version 24","List 24",,,,,,0,Instruct,-,10,"In this section, you will be presented with a series of objects. Please name as many possible uses for this object as you can think of by typing them in the box below each object.",,Instruct1,20474,,,-1,-1,,,,,1
BJ9032,dpqy3mg9f1,"Affordance Norms_ILSTU",1,2,2022-09-22T17:41:57+00:00,11.240316867828,24,"updated stim.csv",Version24.csv,"Version 24","List 24",,,,,,0,Instruct,-,10,"Please keep in mind that a single object will have more than one use. For example, a ball can be thrown or can be bounced or even stepped on. When listing multiple uses for one object, please separate each use with a comma (i.e., thrown, bounced, stepped on)",,Instruct2,10830,,,-1,-1,,,,,1
BJ9032,dpqy3mg9f1,"Affordance Norms_ILSTU",1,3,2022-09-22T17:42:03+00:00,6.2505421638489,24,"updated stim.csv",Version24.csv,"Version 24","List 24",,,,,,0,Instruct,-,-,"Before starting the experiment, you will complete a short practice sesstion. Press ENTER when you are ready to begin.",,Instruct3,5837,,,-1,-1,,,,,1
BJ9032,dpqy3mg9f1,"Affordance Norms_ILSTU",1,4,2022-09-22T17:42:15+00:00,11.58660197258,24,"updated stim.csv",Version24.csv,"Version 24","List 24",spaghetti,,3003,6,2461,3004,BOI,-,-,"Please name all of the ways you could use this object. Keep in mind that one object can have many uses. Separate your responses with a comma.",,n,11298,,,2143,9550,,,,"Eat, make, cook",1
BJ9032,dpqy3mg9f1,"Affordance Norms_ILSTU",1,5,2022-09-22T17:42:31+00:00,16.082720041275,24,"updated stim.csv",Version24.csv,"Version 24","List 24",paperwork,,3001,5.625,1866,3002,BOI,-,-,"Please name all of the ways you could use this object. Keep in mind that one object can have many uses. Separate your responses with a comma.",,n,15745,,,3176,14706,,,,"submit, send, do, work on",1
BJ9032,dpqy3mg9f1,"Affordance Norms_ILSTU",1,6,2022-09-22T17:42:44+00:00,12.573513031006,24,"updated stim.csv",Version24.csv,"Version 24","List 24",shortening,,3002,4.92,2358,3003,BOI,-,-,"Please name all of the ways you could use this object. Keep in mind that one object can have many uses. Separate your responses with a comma.",,n,12262,,,2838,11346,,,,"cutting, defining",1
BJ9032,dpqy3mg9f1,"Affordance Norms_ILSTU",1,7,2022-09-22T17:43:01+00:00,17.461316823959,24,"updated stim.csv",Version24.csv,"Version 24","List 24",saucer,,3005,5.777777778,2249,3006,BOI,-,-,"Please name all of the ways you could use this object. Keep in mind that one object can have many uses. Separate your responses with a comma.",,n,16975,,,1356,13167,,,,"pouring, flying",1
BJ9032,dpqy3mg9f1,"Affordance Norms_ILSTU",1,8,2022-09-22T17:43:12+00:00,11.220144033432,24,"updated stim.csv",Version24.csv,"Version 24","List 24",grain,,3004,5.217391304,1143,3005,BOI,-,-,"Please name all of the ways you could use this object. Keep in mind that one object can have many uses. Separate your responses with a comma.",,n,10956,,,1935,10024,,,,"wheat, farming, whole",1
BJ9032,dpqy3mg9f1,"Affordance Norms_ILSTU",1,9,2022-09-22T17:43:15+00:00,2.8638310432434,24,"updated stim.csv",Version24.csv,"Version 24","List 24",,,,,,0,Instruct,-,-,"You have completed this section. Press ENTER to continue",,"Instruct 5",2436,,,-1,-1,,,,,1
BJ9032,dpqy3mg9f1,"Affordance Norms_ILSTU",1,10,2022-09-22T17:43:18+00:00,2.7126080989838,24,"updated stim.csv",Version24.csv,"Version 24","List 24",,,,,,0,Instruct,-,-,"You will now start the full experiment. Press ENTER when you are ready to begin.",,,2544,,,-1,-1,,,,,1
BJ9032,dpqy3mg9f1,"Affordance Norms_ILSTU",1,11,2022-09-22T17:43:32+00:00,14.639760971069,24,"updated stim.csv",Version24.csv,"Version 24","List 24",nightlight,,706,4.821428571,1772,707,BOI,-,-,"Please name all of the ways you could use this object. Keep in mind that one object can have many uses. Separate your responses with a comma.",,y,14186,,,3334,11837,,,,"light, illumination",1
BJ9032,dpqy3mg9f1,"Affordance Norms_ILSTU",1,12,2022-09-22T17:43:55+00:00,22.158087968826,24,"updated stim.csv",Version24.csv,"Version 24","List 24",fir,,691,4.272727273,982,692,BOI,-,-,"Please name all of the ways you could use this object. Keep in mind that one object can have many uses. Separate your responses with a comma.",,y,21871,,,17807,17945,,,,,0.922
BJ9032,dpqy3mg9f1,"Affordance Norms_ILSTU",1,13,2022-09-22T17:44:16+00:00,21.400871038437,24,"updated stim.csv",Version24.csv,"Version 24","List 24",enemy,,694,4.375,907,695,BOI,-,-,"Please name all of the ways you could use this object. Keep in mind that one object can have many uses. Separate your responses with a comma.",,y,21106,,,14977,20144,,,,"opponent, hate, dislike",1
BJ9032,dpqy3mg9f1,"Affordance Norms_ILSTU",1,14,2022-09-22T17:45:21+00:00,64.73862695694,24,"updated stim.csv",Version24.csv,"Version 24","List 24",countrywoman,,711,4.44,666,712,BOI,-,-,"Please name all of the ways you could use this object. Keep in mind that one object can have many uses. Separate your responses with a comma.",,y,64398,,,3789,58497,,,,farming,1
BJ9032,dpqy3mg9f1,"Affordance Norms_ILSTU",1,15,2022-09-22T17:46:08+00:00,47.361744880676,24,"updated stim.csv",Version24.csv,"Version 24","List 24",placard,,693,4.458333333,1983,694,BOI,-,-,"Please name all of the ways you could use this object. Keep in mind that one object can have many uses. Separate your responses with a comma.",,y,46953,,,4487,5937,,,,plaque,1
BJ9032,dpqy3mg9f1,"Affordance Norms_ILSTU",1,16,2022-09-22T17:46:26+00:00,18.151566028595,24,"updated stim.csv",Version24.csv,"Version 24","List 24",rock,,703,5.48,2183,704,BOI,-,-,"Please name all of the ways you could use this object. Keep in mind that one object can have many uses. Separate your responses with a comma.",,y,17817,,,1954,11659,,,,"throw, place, keep",1
BJ9032,dpqy3mg9f1,"Affordance Norms_ILSTU",1,17,2022-09-22T17:46:36+00:00,9.8697791099548,24,"updated stim.csv",Version24.csv,"Version 24","List 24",giblets,,719,4.714285714,1101,720,BOI,-,-,"Please name all of the ways you could use this object. Keep in mind that one object can have many uses. Separate your responses with a comma.",,y,9608,,,4142,8841,,,,"small, feed",1
BJ9032,dpqy3mg9f1,"Affordance Norms_ILSTU",1,18,2022-09-22T17:47:26+00:00,50.307246923447,24,"updated stim.csv",Version24.csv,"Version 24","List 24",bong,,715,5.6,268,716,BOI,-,-,"Please name all of the ways you could use this object. Keep in mind that one object can have many uses. Separate your responses with a comma.",,y,49861,,,10543,48515,,,,"smoke, sound effect, marijuana",1
BJ9032,dpqy3mg9f1,"Affordance Norms_ILSTU",1,19,2022-09-22T17:47:39+00:00,12.507323026657,24,"updated stim.csv",Version24.csv,"Version 24","List 24",breast,,708,5.4,312,709,BOI,-,-,"Please name all of the ways you could use this object. Keep in mind that one object can have many uses. Separate your responses with a comma.",,y,12111,,,2866,10047,,,,"chicken, breastfeeding, chest",1
BJ9032,dpqy3mg9f1,"Affordance Norms_ILSTU",1,20,2022-09-22T17:49:12+00:00,93.150913953781,24,"updated stim.csv",Version24.csv,"Version 24","List 24",wildlife,,700,4.44,2939,701,BOI,-,-,"Please name all of the ways you could use this object. Keep in mind that one object can have many uses. Separate your responses with a comma.",,y,92902,,,3523,91601,,,,"hunting, domestication",1
BJ9032,dpqy3mg9f1,"Affordance Norms_ILSTU",1,21,2022-09-22T17:49:54+00:00,41.76012802124,24,"updated stim.csv",Version24.csv,"Version 24","List 24",woodpecker,,714,4.833333333,2961,715,BOI,-,-,"Please name all of the ways you could use this object. Keep in mind that one object can have many uses. Separate your responses with a comma.",,y,41176,,,13642,40356,,,,"breaking wood, sound",1
BJ9032,dpqy3mg9f1,"Affordance Norms_ILSTU",1,22,2022-09-22T17:50:58+00:00,64.128333091736,24,"updated stim.csv",Version24.csv,"Version 24","List 24",floor,,696,5.666666667,1008,697,BOI,-,-,"Please name all of the ways you could use this object. Keep in mind that one object can have many uses. Separate your responses with a comma.",,y,63810,,,3496,62905,,,,"ground, base, dance floor",0.931
BJ9032,dpqy3mg9f1,"Affordance Norms_ILSTU",1,23,2022-09-22T17:51:27+00:00,29.147565841675,24,"updated stim.csv",Version24.csv,"Version 24","List 24",parcel,,692,5.583333333,1873,693,BOI,-,-,"Please name all of the ways you could use this object. Keep in mind that one object can have many uses. Separate your responses with a comma.",,y,28894,,,1393,27175,,,,"deliver, receive, stamp, drop off",1
BJ9032,dpqy3mg9f1,"Affordance Norms_ILSTU",1,24,2022-09-22T17:51:31+00:00,3.8490381240845,24,"updated stim.csv",Version24.csv,"Version 24","List 24",bosom,,718,5.52,286,719,BOI,-,-,"Please name all of the ways you could use this object. Keep in mind that one object can have many uses. Separate your responses with a comma.",,y,3665,,,1885,1886,,,,,1
BJ9032,dpqy3mg9f1,"Affordance Norms_ILSTU",1,25,2022-09-22T17:51:43+00:00,12.444299936295,24,"updated stim.csv",Version24.csv,"Version 24","List 24",lampshade,,701,5.296296296,1458,702,BOI,-,-,"Please name all of the ways you could use this object. Keep in mind that one object can have many uses. Separate your responses with a comma.",,y,12017,,,6907,11182,,,,"hide light, dim light",1
BJ9032,dpqy3mg9f1,"Affordance Norms_ILSTU",1,26,2022-09-22T17:52:55+00:00,71.359969139099,24,"updated stim.csv",Version24.csv,"Version 24","List 24",blueberry,,710,6,249,711,BOI,-,-,"Please name all of the ways you could use this object. Keep in mind that one object can have many uses. Separate your responses with a comma.",,y,70882,,,1203,69860,,,,"eat, buy, sell, cook",1
BJ9032,dpqy3mg9f1,"Affordance Norms_ILSTU",1,27,2022-09-22T17:53:03+00:00,8.1078388690948,24,"updated stim.csv",Version24.csv,"Version 24","List 24",artichoke,,717,5.708333333,78,718,BOI,-,-,"Please name all of the ways you could use this object. Keep in mind that one object can have many uses. Separate your responses with a comma.",,y,7849,,,2479,7015,,,,"eat, prepare, buy, sell",1
BJ9032,dpqy3mg9f1,"Affordance Norms_ILSTU",1,28,2022-09-22T17:53:27+00:00,24.290838003159,24,"updated stim.csv",Version24.csv,"Version 24","List 24",cactus,,707,4.5,392,708,BOI,-,-,"Please name all of the ways you could use this object. Keep in mind that one object can have many uses. Separate your responses with a comma.",,y,23686,,,2173,21573,,,,"find, gift, buy",1
BJ9032,dpqy3mg9f1,"Affordance Norms_ILSTU",1,29,2022-09-22T17:53:51+00:00,23.671962976456,24,"updated stim.csv",Version24.csv,"Version 24","List 24",quarters,,716,5.909090909,2112,717,BOI,-,-,"Please name all of the ways you could use this object. Keep in mind that one object can have many uses. Separate your responses with a comma.",,y,23159,,,4443,22143,,,,"currency, put in a sock, save, exchange",1
BJ9032,dpqy3mg9f1,"Affordance Norms_ILSTU",1,30,2022-09-22T17:54:00+00:00,8.8343229293823,24,"updated stim.csv",Version24.csv,"Version 24","List 24",charcoal,,702,4.740740741,496,703,BOI,-,-,"Please name all of the ways you could use this object. Keep in mind that one object can have many uses. Separate your responses with a comma.",,y,8389,,,2092,7417,,,,"cook, burn, buy, sell",1
BJ9032,dpqy3mg9f1,"Affordance Norms_ILSTU",1,31,2022-09-22T17:54:17+00:00,16.954311132431,24,"updated stim.csv",Version24.csv,"Version 24","List 24",hibiscus,,712,4.952380952,1285,713,BOI,-,-,"Please name all of the ways you could use this object. Keep in mind that one object can have many uses. Separate your responses with a comma.",,y,16663,,,10952,14856,,,,"look at, buy for someone",0.942
BJ9032,dpqy3mg9f1,"Affordance Norms_ILSTU",1,32,2022-09-22T17:54:40+00:00,23.191291093826,24,"updated stim.csv",Version24.csv,"Version 24","List 24",puck,,705,4.608695652,2087,706,BOI,-,-,"Please name all of the ways you could use this object. Keep in mind that one object can have many uses. Separate your responses with a comma.",,y,22932,,,1848,18399,,,,"slap, shoot, pass, toss, catch, slide",1
BJ9032,dpqy3mg9f1,"Affordance Norms_ILSTU",1,33,2022-09-22T17:56:47+00:00,127.49052596092,24,"updated stim.csv",Version24.csv,"Version 24","List 24",sugar,,713,6.173913043,2580,714,BOI,-,-,"Please name all of the ways you could use this object. Keep in mind that one object can have many uses. Separate your responses with a comma.",,y,127146,,,43078,125922,,,,"eat, buy, sell, mix",1
BJ9032,dpqy3mg9f1,"Affordance Norms_ILSTU",1,34,2022-09-22T17:57:09+00:00,21.91640996933,24,"updated stim.csv",Version24.csv,"Version 24","List 24",cricket,,699,4.653846154,695,700,BOI,-,-,"Please name all of the ways you could use this object. Keep in mind that one object can have many uses. Separate your responses with a comma.",,y,21529,,,5913,20514,,,,"chirp, eat, buy for animals",1
BJ9032,dpqy3mg9f1,"Affordance Norms_ILSTU",1,35,2022-09-22T17:58:06+00:00,57.157248973846,24,"updated stim.csv",Version24.csv,"Version 24","List 24",gymnasium,,698,4.464285714,1204,699,BOI,-,-,"Please name all of the ways you could use this object. Keep in mind that one object can have many uses. Separate your responses with a comma.",,y,56719,,,8544,55878,,,,"host games, play games, sports, host people, assemblies ",1
BJ9032,dpqy3mg9f1,"Affordance Norms_ILSTU",1,36,2022-09-22T17:58:22+00:00,15.680332899094,24,"updated stim.csv",Version24.csv,"Version 24","List 24",herb,,709,5.826086957,1280,710,BOI,-,-,"Please name all of the ways you could use this object. Keep in mind that one object can have many uses. Separate your responses with a comma.",,y,15335,,,1609,14470,,,,"cook, smell, prepare",1
BJ9032,dpqy3mg9f1,"Affordance Norms_ILSTU",1,37,2022-09-22T17:58:35+00:00,13.190160036087,24,"updated stim.csv",Version24.csv,"Version 24","List 24",shin,,704,5.592592593,2339,705,BOI,-,-,"Please name all of the ways you could use this object. Keep in mind that one object can have many uses. Separate your responses with a comma.",,y,12851,,,-1,-1,,,,,1
BJ9032,dpqy3mg9f1,"Affordance Norms_ILSTU",1,38,2022-09-22T17:59:13+00:00,37.285491943359,24,"updated stim.csv",Version24.csv,"Version 24","List 24",leotard,,720,5.363636364,1493,721,BOI,-,-,"Please name all of the ways you could use this object. Keep in mind that one object can have many uses. Separate your responses with a comma.",,y,37033,,,1754,11645,,,,"wear, buy, sell",1
BJ9032,dpqy3mg9f1,"Affordance Norms_ILSTU",1,39,2022-09-22T17:59:23+00:00,10.771111011505,24,"updated stim.csv",Version24.csv,"Version 24","List 24",harp,,697,5.8,1253,698,BOI,-,-,"Please name all of the ways you could use this object. Keep in mind that one object can have many uses. Separate your responses with a comma.",,y,10430,,,1563,9439,,,,"play, listen to, teach, learn",1
BJ9032,dpqy3mg9f1,"Affordance Norms_ILSTU",1,40,2022-09-22T18:00:41+00:00,77.235177993774,24,"updated stim.csv",Version24.csv,"Version 24","List 24",smuggler,,695,4.481481481,2424,696,BOI,-,-,"Please name all of the ways you could use this object. Keep in mind that one object can have many uses. Separate your responses with a comma.",,y,76946,,,52711,72566,,,,"use, hire, work with, detain, arrest",1
BJ9032,dpqy3mg9f1,"Affordance Norms_ILSTU",1,41,2022-09-22T18:00:43+00:00,2.4466981887817,24,"updated stim.csv",Version24.csv,"Version 24","List 24",,,,,,0,Instruct,,,"You will now be asked a few questions about your experience today.",,"Instruct 4",2152,,,-1,-1,,,,,1
