Username,ID,ExperimentName,Session,Trial,Date,TimeDif,"Condition Number","Stimuli File","Order File","Condition Description","Condition Notes",Stimuli*Cue,Stimuli*Answer,Stimuli*Shuffle,"Stimuli*Stimuli Notes",Stimuli*Value,Stimuli*Rand,Procedure*Item,"Procedure*Trial Type","Procedure*Max Time","Procedure*Min Time",Procedure*Text,"Procedure*Procedure Notes",Procedure*Shuffle,Response*RT,Response*Response,Response*Accuracy,Response*RTfirst,Response*RTlast,Response*strictAcc,Response*lenientAcc,Response*focus,Response*JOL,Response*Focus
w686393_KML,wcl3jvkchg,"BOI Norms",1,1,2022-11-10T18:42:39+00:00,14.573779821396,16,"updated stim.csv",Version41.csv,"Version 41","List 41",,,,,,,0,Instruct,-,10,"In this section, you will be presented with a series of objects. Please name as many possible uses for this object as you can think of by typing them in the box below each object.",,Instruct1,14423,,,-1,-1,,,,,1
w686393_KML,wcl3jvkchg,"BOI Norms",1,2,2022-11-10T18:42:52+00:00,13.13072013855,16,"updated stim.csv",Version41.csv,"Version 41","List 41",,,,,,,0,Instruct,-,10,"Please keep in mind that a single object will have more than one use. For example, a ball can be thrown or can be bounced or even stepped on. When listing multiple uses for one object, please separate each use with a comma (i.e., thrown, bounced, stepped on)",,Instruct2,12830,,,-1,-1,,,,,1
w686393_KML,wcl3jvkchg,"BOI Norms",1,3,2022-11-10T18:42:56+00:00,3.4618358612061,16,"updated stim.csv",Version41.csv,"Version 41","List 41",,,,,,,0,Instruct,-,-,"Before starting the experiment, you will complete a short practice sesstion. Press ENTER when you are ready to begin.",,Instruct3,3279,,,-1,-1,,,,,1
w686393_KML,wcl3jvkchg,"BOI Norms",1,4,2022-11-10T18:43:20+00:00,23.824812173843,16,"updated stim.csv",Version41.csv,"Version 41","List 41",shortening,,3002,4.92,2358,0.604328482,3003,BOI,-,-,"Please name all of the ways you could use this object. Keep in mind that one object can have many uses. Separate your responses with a comma.",,n,23630,,,12230,20261,,,,"Food, cutting someone off",1
w686393_KML,wcl3jvkchg,"BOI Norms",1,5,2022-11-10T18:43:26+00:00,6.7368309497833,16,"updated stim.csv",Version41.csv,"Version 41","List 41",saucer,,3005,5.777777778,2249,0.304808074,3006,BOI,-,-,"Please name all of the ways you could use this object. Keep in mind that one object can have many uses. Separate your responses with a comma.",,n,6541,,,2620,6016,,,,"Plate, flying",1
w686393_KML,wcl3jvkchg,"BOI Norms",1,6,2022-11-10T18:43:35+00:00,8.2822360992432,16,"updated stim.csv",Version41.csv,"Version 41","List 41",spaghetti,,3003,6,2461,0.090379998,3004,BOI,-,-,"Please name all of the ways you could use this object. Keep in mind that one object can have many uses. Separate your responses with a comma.",,n,7952,,,1700,7393,,,,"Food, red, sauce, yummy",1
w686393_KML,wcl3jvkchg,"BOI Norms",1,7,2022-11-10T18:43:45+00:00,10.439670801163,16,"updated stim.csv",Version41.csv,"Version 41","List 41",grain,,3004,5.217391304,1143,0.226863762,3005,BOI,-,-,"Please name all of the ways you could use this object. Keep in mind that one object can have many uses. Separate your responses with a comma.",,n,10116,,,3063,9617,,,,"Food, sand",1
w686393_KML,wcl3jvkchg,"BOI Norms",1,8,2022-11-10T18:43:55+00:00,10.38420009613,16,"updated stim.csv",Version41.csv,"Version 41","List 41",paperwork,,3001,5.625,1866,0.124284162,3002,BOI,-,-,"Please name all of the ways you could use this object. Keep in mind that one object can have many uses. Separate your responses with a comma.",,n,10185,,,3620,9868,,,,"Job, to do list",1
w686393_KML,wcl3jvkchg,"BOI Norms",1,9,2022-11-10T18:43:58+00:00,2.8481960296631,16,"updated stim.csv",Version41.csv,"Version 41","List 41",,,,,,,0,Instruct,-,-,"You have completed this section. Press ENTER to continue",,"Instruct 5",1443,,,-1,-1,,,,,1
w686393_KML,wcl3jvkchg,"BOI Norms",1,10,2022-11-10T18:44:00+00:00,1.7832930088043,16,"updated stim.csv",Version41.csv,"Version 41","List 41",,,,,,,0,Instruct,-,-,"You will now start the full experiment. Press ENTER when you are ready to begin.",,,1644,,,-1,-1,,,,,1
w686393_KML,wcl3jvkchg,"BOI Norms",1,11,2022-11-10T18:44:20+00:00,19.6587870121,16,"updated stim.csv",Version41.csv,"Version 41","List 41",backgammon,,1209,4.869565217,115,0.973864898,1210,BOI,-,-,"Please name all of the ways you could use this object. Keep in mind that one object can have many uses. Separate your responses with a comma.",,y,19320,,,2069,18807,,,,"Game, cards, older people",1
w686393_KML,wcl3jvkchg,"BOI Norms",1,12,2022-11-10T18:44:30+00:00,10.268378019333,16,"updated stim.csv",Version41.csv,"Version 41","List 41",offspring,,1216,4.913043478,1801,0.688727773,1217,BOI,-,-,"Please name all of the ways you could use this object. Keep in mind that one object can have many uses. Separate your responses with a comma.",,y,10017,,,1803,9100,,,,"Children, chickens, animals",1
w686393_KML,wcl3jvkchg,"BOI Norms",1,13,2022-11-10T18:44:58+00:00,28.348706007004,16,"updated stim.csv",Version41.csv,"Version 41","List 41",calipers,,1204,4.666666667,403,0.126530189,1205,BOI,-,-,"Please name all of the ways you could use this object. Keep in mind that one object can have many uses. Separate your responses with a comma.",,y,28052,,,25629,27528,,,,"Leg support",1
w686393_KML,wcl3jvkchg,"BOI Norms",1,14,2022-11-10T18:45:05+00:00,6.4494068622589,16,"updated stim.csv",Version41.csv,"Version 41","List 41",train,,1201,5.333333333,2756,0.399821565,1202,BOI,-,-,"Please name all of the ways you could use this object. Keep in mind that one object can have many uses. Separate your responses with a comma.",,y,6158,,,2993,5302,,,,"Drive, ride",1
w686393_KML,wcl3jvkchg,"BOI Norms",1,15,2022-11-10T18:45:13+00:00,8.0125930309296,16,"updated stim.csv",Version41.csv,"Version 41","List 41",salt,,1230,5.260869565,2227,0.201353444,1231,BOI,-,-,"Please name all of the ways you could use this object. Keep in mind that one object can have many uses. Separate your responses with a comma.",,y,7635,,,3008,7156,,,,"Flavor, melt ice",1
w686393_KML,wcl3jvkchg,"BOI Norms",1,16,2022-11-10T18:45:21+00:00,7.7612071037292,16,"updated stim.csv",Version41.csv,"Version 41","List 41",cologne,,1222,5.541666667,604,0.545252119,1223,BOI,-,-,"Please name all of the ways you could use this object. Keep in mind that one object can have many uses. Separate your responses with a comma.",,y,7555,,,2926,6972,,,,"Spray, mask smell",1
w686393_KML,wcl3jvkchg,"BOI Norms",1,17,2022-11-10T18:45:32+00:00,11.673326015472,16,"updated stim.csv",Version41.csv,"Version 41","List 41",bridegroom,,1213,4.384615385,320,0.221741376,1214,BOI,-,-,"Please name all of the ways you could use this object. Keep in mind that one object can have many uses. Separate your responses with a comma.",,y,11447,,,4666,10942,,,,"Wedding, walking down an isle",1
w686393_KML,wcl3jvkchg,"BOI Norms",1,18,2022-11-10T18:45:41+00:00,9.2625379562378,16,"updated stim.csv",Version41.csv,"Version 41","List 41",nutcracker,,1229,5.36,1790,0.39078167,1230,BOI,-,-,"Please name all of the ways you could use this object. Keep in mind that one object can have many uses. Separate your responses with a comma.",,y,9023,,,3727,8605,,,,"Opening, eating",1
w686393_KML,wcl3jvkchg,"BOI Norms",1,19,2022-11-10T18:45:52+00:00,10.288553953171,16,"updated stim.csv",Version41.csv,"Version 41","List 41",gift,,1208,5.380952381,1102,0.119299181,1209,BOI,-,-,"Please name all of the ways you could use this object. Keep in mind that one object can have many uses. Separate your responses with a comma.",,y,10049,,,3063,9622,,,,"Christmas, birthday, give",1
w686393_KML,wcl3jvkchg,"BOI Norms",1,20,2022-11-10T18:45:57+00:00,5.6425120830536,16,"updated stim.csv",Version41.csv,"Version 41","List 41",tricycle,,1210,6.173913043,2775,0.61037498,1211,BOI,-,-,"Please name all of the ways you could use this object. Keep in mind that one object can have many uses. Separate your responses with a comma.",,y,5354,,,2299,4857,,,,"Ride, push, fun",1
w686393_KML,wcl3jvkchg,"BOI Norms",1,21,2022-11-10T18:46:05+00:00,7.8922228813171,16,"updated stim.csv",Version41.csv,"Version 41","List 41",bulb,,1211,5.391304348,351,0.177968887,1212,BOI,-,-,"Please name all of the ways you could use this object. Keep in mind that one object can have many uses. Separate your responses with a comma.",,y,7692,,,2593,7293,,,,"Turn on, light, burned out",1
w686393_KML,wcl3jvkchg,"BOI Norms",1,22,2022-11-10T18:46:18+00:00,12.577152013779,16,"updated stim.csv",Version41.csv,"Version 41","List 41",lei,,1221,5.058823529,1488,0.689243752,1222,BOI,-,-,"Please name all of the ways you could use this object. Keep in mind that one object can have many uses. Separate your responses with a comma.",,y,12373,,,3960,12073,,,,"Put on someone, necklace",1
w686393_KML,wcl3jvkchg,"BOI Norms",1,23,2022-11-10T18:46:36+00:00,17.703392982483,16,"updated stim.csv",Version41.csv,"Version 41","List 41",brickwork,,1215,4.777777778,319,0.63034646,1216,BOI,-,-,"Please name all of the ways you could use this object. Keep in mind that one object can have many uses. Separate your responses with a comma.",,y,16065,,,4305,14666,,,,"Build, enforce strength ",1
w686393_KML,wcl3jvkchg,"BOI Norms",1,24,2022-11-10T18:46:56+00:00,20.620823144913,16,"updated stim.csv",Version41.csv,"Version 41","List 41",chairwoman,,1219,4.347826087,488,0.537040183,1220,BOI,-,-,"Please name all of the ways you could use this object. Keep in mind that one object can have many uses. Separate your responses with a comma.",,y,20403,,,6637,19971,,,,"A voice, fill a spot",1
w686393_KML,wcl3jvkchg,"BOI Norms",1,25,2022-11-10T18:47:10+00:00,13.605114936829,16,"updated stim.csv",Version41.csv,"Version 41","List 41",suitcase,,1202,6.08,2583,0.497880313,1203,BOI,-,-,"Please name all of the ways you could use this object. Keep in mind that one object can have many uses. Separate your responses with a comma.",,y,13365,,,2180,12829,,,,"Carry objects, roll, sit on",1
w686393_KML,wcl3jvkchg,"BOI Norms",1,26,2022-11-10T18:47:24+00:00,14.432646989822,16,"updated stim.csv",Version41.csv,"Version 41","List 41",roommate,,1207,5.16,2189,0.700228299,1208,BOI,-,-,"Please name all of the ways you could use this object. Keep in mind that one object can have many uses. Separate your responses with a comma.",,y,14155,,,4358,13785,,,,"Pay half the bills, live with a friend",1
w686393_KML,wcl3jvkchg,"BOI Norms",1,27,2022-11-10T18:47:38+00:00,14.042248010635,16,"updated stim.csv",Version41.csv,"Version 41","List 41",snail,,1227,4.52173913,2426,0.923421612,1228,BOI,-,-,"Please name all of the ways you could use this object. Keep in mind that one object can have many uses. Separate your responses with a comma.",,y,13810,,,5091,13379,,,,"In a garden, slow moving",1
w686393_KML,wcl3jvkchg,"BOI Norms",1,28,2022-11-10T18:47:49+00:00,10.211674928665,16,"updated stim.csv",Version41.csv,"Version 41","List 41",horseshoe,,1223,5.2,1316,0.39136791,1224,BOI,-,-,"Please name all of the ways you could use this object. Keep in mind that one object can have many uses. Separate your responses with a comma.",,y,9863,,,2231,9544,,,,"Throw, put on horse, brand",1
w686393_KML,wcl3jvkchg,"BOI Norms",1,29,2022-11-10T18:48:17+00:00,28.373937129974,16,"updated stim.csv",Version41.csv,"Version 41","List 41",damsel,,1203,4.652173913,752,0.979544968,1204,BOI,-,-,"Please name all of the ways you could use this object. Keep in mind that one object can have many uses. Separate your responses with a comma.",,y,28168,,,6768,27022,,,,"Relieve distress ",1
w686393_KML,wcl3jvkchg,"BOI Norms",1,30,2022-11-10T18:48:27+00:00,10.283281803131,16,"updated stim.csv",Version41.csv,"Version 41","List 41",narcotics,,1225,4.956521739,1736,0.332286581,1226,BOI,-,-,"Please name all of the ways you could use this object. Keep in mind that one object can have many uses. Separate your responses with a comma.",,y,9967,,,1816,9565,,,,"Drugs, getting high, getting arrested",1
w686393_KML,wcl3jvkchg,"BOI Norms",1,31,2022-11-10T18:48:38+00:00,11.14314699173,16,"updated stim.csv",Version41.csv,"Version 41","List 41",fedora,,1212,6.291666667,958,0.921091513,1213,BOI,-,-,"Please name all of the ways you could use this object. Keep in mind that one object can have many uses. Separate your responses with a comma.",,y,10756,,,2991,10324,,,,"Putting on hat, putting a feather in",1
w686393_KML,wcl3jvkchg,"BOI Norms",1,32,2022-11-10T18:48:47+00:00,8.5429949760437,16,"updated stim.csv",Version41.csv,"Version 41","List 41",binoculars,,1205,6.16,218,0.501386564,1206,BOI,-,-,"Please name all of the ways you could use this object. Keep in mind that one object can have many uses. Separate your responses with a comma.",,y,8325,,,2191,7906,,,,"Seeing, spying, birdwatching",1
w686393_KML,wcl3jvkchg,"BOI Norms",1,33,2022-11-10T18:49:02+00:00,14.742587089539,16,"updated stim.csv",Version41.csv,"Version 41","List 41",germ,,1220,4.333333333,1100,0.401387694,1221,BOI,-,-,"Please name all of the ways you could use this object. Keep in mind that one object can have many uses. Separate your responses with a comma.",,y,14443,,,2860,11339,,,,"Bacteria, getting sick, building immunity ",1
w686393_KML,wcl3jvkchg,"BOI Norms",1,34,2022-11-10T18:49:13+00:00,11.390372991562,16,"updated stim.csv",Version41.csv,"Version 41","List 41",taxi,,1226,5.464285714,2639,0.84208141,1227,BOI,-,-,"Please name all of the ways you could use this object. Keep in mind that one object can have many uses. Separate your responses with a comma.",,y,11098,,,1614,10673,,,,"Ride in, yellow, driving",1
w686393_KML,wcl3jvkchg,"BOI Norms",1,35,2022-11-10T18:49:30+00:00,16.911916017532,16,"updated stim.csv",Version41.csv,"Version 41","List 41",broach,,1228,5.041666667,326,0.873476961,1229,BOI,-,-,"Please name all of the ways you could use this object. Keep in mind that one object can have many uses. Separate your responses with a comma.",,y,16703,,,3337,16302,,,,"Wearing jewelry, being inherited",1
w686393_KML,wcl3jvkchg,"BOI Norms",1,36,2022-11-10T18:49:41+00:00,11.322854995728,16,"updated stim.csv",Version41.csv,"Version 41","List 41",dildo,,1218,6.52173913,792,0.359697318,1219,BOI,-,-,"Please name all of the ways you could use this object. Keep in mind that one object can have many uses. Separate your responses with a comma.",,y,10951,,,3769,9566,,,,"Have sex with, pleasurable ",1
w686393_KML,wcl3jvkchg,"BOI Norms",1,37,2022-11-10T18:50:03+00:00,22.033695936203,16,"updated stim.csv",Version41.csv,"Version 41","List 41",tepee,,1206,4.916666667,2665,0.031465611,1207,BOI,-,-,"Please name all of the ways you could use this object. Keep in mind that one object can have many uses. Separate your responses with a comma.",,y,21664,,,4267,20386,,,,"Set up housing, sit in a circle in",1
w686393_KML,wcl3jvkchg,"BOI Norms",1,38,2022-11-10T18:50:12+00:00,8.394483089447,16,"updated stim.csv",Version41.csv,"Version 41","List 41",game,,1214,4.518518519,1071,0.724311599,1215,BOI,-,-,"Please name all of the ways you could use this object. Keep in mind that one object can have many uses. Separate your responses with a comma.",,y,8163,,,2363,7812,,,,"Playing, making, laughing",1
w686393_KML,wcl3jvkchg,"BOI Norms",1,39,2022-11-10T18:50:22+00:00,10.850850105286,16,"updated stim.csv",Version41.csv,"Version 41","List 41",broccoli,,1217,5.04,327,0.675911769,1218,BOI,-,-,"Please name all of the ways you could use this object. Keep in mind that one object can have many uses. Separate your responses with a comma.",,y,10637,,,3335,10303,,,,"Eating, cooking, disliking the flavor",1
w686393_KML,wcl3jvkchg,"BOI Norms",1,40,2022-11-10T18:50:34+00:00,11.525686979294,16,"updated stim.csv",Version41.csv,"Version 41","List 41",mammal,,1224,5.291666667,1585,0.612894163,1225,BOI,-,-,"Please name all of the ways you could use this object. Keep in mind that one object can have many uses. Separate your responses with a comma.",,y,11193,,,2110,10723,,,,"Animal, food, prey, predator",1
w686393_KML,wcl3jvkchg,"BOI Norms",1,41,2022-11-10T18:50:37+00:00,2.6935119628906,16,"updated stim.csv",Version41.csv,"Version 41","List 41",,,,,,,0,Instruct,,,"You will now be asked a few questions about your experience today.",,"Instruct 4",2517,,,-1,-1,,,,,1
