Username,ID,ExperimentName,Session,Trial,Date,TimeDif,"Condition Number","Stimuli File","Order File","Condition Description","Condition Notes",Stimuli*Cue,Stimuli*Answer,Stimuli*Shuffle,"Stimuli*Stimuli Notes",Stimuli*Value,Stimuli*Rand,Procedure*Item,"Procedure*Trial Type","Procedure*Max Time","Procedure*Min Time",Procedure*Text,"Procedure*Procedure Notes",Procedure*Shuffle,Response*RT,Response*Response,Response*Accuracy,Response*RTfirst,Response*RTlast,Response*strictAcc,Response*lenientAcc,Response*focus,Response*JOL,Response*Focus
w10140827_bms,suawd0f7gv,"BOI Norms",1,1,2022-10-28T22:07:09+00:00,11.542886018753,15,"updated stim.csv",Version40.csv,"Version 40","List 40",,,,,,,0,Instruct,-,10,"In this section, you will be presented with a series of objects. Please name as many possible uses for this object as you can think of by typing them in the box below each object.",,Instruct1,11376,,,-1,-1,,,,,1
w10140827_bms,suawd0f7gv,"BOI Norms",1,2,2022-10-28T22:07:20+00:00,11.692390918732,15,"updated stim.csv",Version40.csv,"Version 40","List 40",,,,,,,0,Instruct,-,10,"Please keep in mind that a single object will have more than one use. For example, a ball can be thrown or can be bounced or even stepped on. When listing multiple uses for one object, please separate each use with a comma (i.e., thrown, bounced, stepped on)",,Instruct2,11413,,,-1,-1,,,,,1
w10140827_bms,suawd0f7gv,"BOI Norms",1,3,2022-10-28T22:07:22+00:00,1.9292161464691,15,"updated stim.csv",Version40.csv,"Version 40","List 40",,,,,,,0,Instruct,-,-,"Before starting the experiment, you will complete a short practice sesstion. Press ENTER when you are ready to begin.",,Instruct3,1578,,,-1,-1,,,,,1
w10140827_bms,suawd0f7gv,"BOI Norms",1,4,2022-10-28T22:07:34+00:00,11.538566827774,15,"updated stim.csv",Version40.csv,"Version 40","List 40",grain,,3004,5.217391304,1143,0.226863762,3005,BOI,-,-,"Please name all of the ways you could use this object. Keep in mind that one object can have many uses. Separate your responses with a comma.",,n,11271,,,1734,10015,,,,"cereal, bread, toppings",1
w10140827_bms,suawd0f7gv,"BOI Norms",1,5,2022-10-28T22:07:42+00:00,8.142147064209,15,"updated stim.csv",Version40.csv,"Version 40","List 40",spaghetti,,3003,6,2461,0.090379998,3004,BOI,-,-,"Please name all of the ways you could use this object. Keep in mind that one object can have many uses. Separate your responses with a comma.",,n,7641,,,2762,7435,,,,"different types of pasta",1
w10140827_bms,suawd0f7gv,"BOI Norms",1,6,2022-10-28T22:08:09+00:00,27.355827093124,15,"updated stim.csv",Version40.csv,"Version 40","List 40",paperwork,,3001,5.625,1866,0.124284162,3002,BOI,-,-,"Please name all of the ways you could use this object. Keep in mind that one object can have many uses. Separate your responses with a comma.",,n,27074,,,1729,26072,,,,"college admissions, job application, courthouse, hospital,",1
w10140827_bms,suawd0f7gv,"BOI Norms",1,7,2022-10-28T22:08:19+00:00,9.1626029014587,15,"updated stim.csv",Version40.csv,"Version 40","List 40",shortening,,3002,4.92,2358,0.604328482,3003,BOI,-,-,"Please name all of the ways you could use this object. Keep in mind that one object can have many uses. Separate your responses with a comma.",,n,8820,,,1636,8621,,,,"baking, cooking",1
w10140827_bms,suawd0f7gv,"BOI Norms",1,8,2022-10-28T22:08:32+00:00,13.406543016434,15,"updated stim.csv",Version40.csv,"Version 40","List 40",saucer,,3005,5.777777778,2249,0.304808074,3006,BOI,-,-,"Please name all of the ways you could use this object. Keep in mind that one object can have many uses. Separate your responses with a comma.",,n,13078,,,2844,12633,,,,"breakfast, lunch, dinner",1
w10140827_bms,suawd0f7gv,"BOI Norms",1,9,2022-10-28T22:08:33+00:00,1.254380941391,15,"updated stim.csv",Version40.csv,"Version 40","List 40",,,,,,,0,Instruct,-,-,"You have completed this section. Press ENTER to continue",,"Instruct 5",986,,,-1,-1,,,,,1
w10140827_bms,suawd0f7gv,"BOI Norms",1,10,2022-10-28T22:08:34+00:00,1.163015127182,15,"updated stim.csv",Version40.csv,"Version 40","List 40",,,,,,,0,Instruct,-,-,"You will now start the full experiment. Press ENTER when you are ready to begin.",,,882,,,-1,-1,,,,,1
w10140827_bms,suawd0f7gv,"BOI Norms",1,11,2022-10-28T22:08:44+00:00,9.6776568889618,15,"updated stim.csv",Version40.csv,"Version 40","List 40",goldsmith,,1193,4.375,1134,0.348990826,1194,BOI,-,-,"Please name all of the ways you could use this object. Keep in mind that one object can have many uses. Separate your responses with a comma.",,y,9340,,,5614,9112,,,,"make things out of gold",1
w10140827_bms,suawd0f7gv,"BOI Norms",1,12,2022-10-28T22:09:05+00:00,21.099344015121,15,"updated stim.csv",Version40.csv,"Version 40","List 40",makeup,,1186,6,1580,0.407523064,1187,BOI,-,-,"Please name all of the ways you could use this object. Keep in mind that one object can have many uses. Separate your responses with a comma.",,y,20802,,,3282,20490,,,,"cover things, dress up, costume for play",1
w10140827_bms,suawd0f7gv,"BOI Norms",1,13,2022-10-28T22:09:12+00:00,7.273234128952,15,"updated stim.csv",Version40.csv,"Version 40","List 40",trombone,,1194,5.75,2781,0.477357634,1195,BOI,-,-,"Please name all of the ways you could use this object. Keep in mind that one object can have many uses. Separate your responses with a comma.",,y,6991,,,2970,5768,,,,"play music",1
w10140827_bms,suawd0f7gv,"BOI Norms",1,14,2022-10-28T22:09:27+00:00,15.072949886322,15,"updated stim.csv",Version40.csv,"Version 40","List 40",bat,,1192,5.041666667,166,0.007785369,1193,BOI,-,-,"Please name all of the ways you could use this object. Keep in mind that one object can have many uses. Separate your responses with a comma.",,y,14784,,,2736,14513,,,,"hit a baseball, hit a softball, weapon",1
w10140827_bms,suawd0f7gv,"BOI Norms",1,15,2022-10-28T22:09:45+00:00,17.78154706955,15,"updated stim.csv",Version40.csv,"Version 40","List 40",acorn,,1197,5.28,8,0.226034468,1198,BOI,-,-,"Please name all of the ways you could use this object. Keep in mind that one object can have many uses. Separate your responses with a comma.",,y,17440,,,2078,17153,,,,"deer food, squirrel food, chipmunk food",1
w10140827_bms,suawd0f7gv,"BOI Norms",1,16,2022-10-28T22:09:59+00:00,14.022922992706,15,"updated stim.csv",Version40.csv,"Version 40","List 40",monk,,1176,5.173913043,1680,0.475833569,1177,BOI,-,-,"Please name all of the ways you could use this object. Keep in mind that one object can have many uses. Separate your responses with a comma.",,y,13732,,,8692,13426,,,,"do mission work",1
w10140827_bms,suawd0f7gv,"BOI Norms",1,17,2022-10-28T22:10:07+00:00,7.4628989696503,15,"updated stim.csv",Version40.csv,"Version 40","List 40",sushi,,1199,5.708333333,2597,0.102266266,1200,BOI,-,-,"Please name all of the ways you could use this object. Keep in mind that one object can have many uses. Separate your responses with a comma.",,y,7145,,,1387,6867,,,,"eat, give food posioning",1
w10140827_bms,suawd0f7gv,"BOI Norms",1,18,2022-10-28T22:10:22+00:00,15.165705919266,15,"updated stim.csv",Version40.csv,"Version 40","List 40",baklava,,1171,5.454545455,126,0.67252704,1172,BOI,-,-,"Please name all of the ways you could use this object. Keep in mind that one object can have many uses. Separate your responses with a comma.",,y,14873,,,7440,14677,,,,"I honestly have no idea what this is.",1
w10140827_bms,suawd0f7gv,"BOI Norms",1,19,2022-10-28T22:11:05+00:00,42.689800977707,15,"updated stim.csv",Version40.csv,"Version 40","List 40",clitoris,,1172,6.090909091,564,0.92528309,1173,BOI,-,-,"Please name all of the ways you could use this object. Keep in mind that one object can have many uses. Separate your responses with a comma.",,y,41970,,,4844,41386,,,,"arousal for women, helps stimulate for orgasms",1
w10140827_bms,suawd0f7gv,"BOI Norms",1,20,2022-10-28T22:11:30+00:00,25.298324108124,15,"updated stim.csv",Version40.csv,"Version 40","List 40",salad,,1175,6.111111111,2218,0.466682363,1176,BOI,-,-,"Please name all of the ways you could use this object. Keep in mind that one object can have many uses. Separate your responses with a comma.",,y,24904,,,4787,24420,,,,"food for vegetarians, food for everyone",1
w10140827_bms,suawd0f7gv,"BOI Norms",1,21,2022-10-28T22:11:47+00:00,16.684715986252,15,"updated stim.csv",Version40.csv,"Version 40","List 40",canteen,,1183,5.607142857,419,0.478481246,1184,BOI,-,-,"Please name all of the ways you could use this object. Keep in mind that one object can have many uses. Separate your responses with a comma.",,y,15616,,,4015,15440,,,,"keep food warm, soup thing",1
w10140827_bms,suawd0f7gv,"BOI Norms",1,22,2022-10-28T22:11:56+00:00,9.5373640060425,15,"updated stim.csv",Version40.csv,"Version 40","List 40",walker,,1179,5.181818182,2885,0.225630288,1180,BOI,-,-,"Please name all of the ways you could use this object. Keep in mind that one object can have many uses. Separate your responses with a comma.",,y,9159,,,2055,8893,,,,"help people walk, could ne a weapom",1
w10140827_bms,suawd0f7gv,"BOI Norms",1,23,2022-10-28T22:12:20+00:00,23.44962310791,15,"updated stim.csv",Version40.csv,"Version 40","List 40",tank,,1173,4.608695652,2631,0.495653559,1174,BOI,-,-,"Please name all of the ways you could use this object. Keep in mind that one object can have many uses. Separate your responses with a comma.",,y,23159,,,10031,23043,,,,"place for fish, military vechile",1
w10140827_bms,suawd0f7gv,"BOI Norms",1,24,2022-10-28T22:12:23+00:00,3.6610968112946,15,"updated stim.csv",Version40.csv,"Version 40","List 40",piccolo,,1182,4.956521739,1948,0.266218097,1183,BOI,-,-,"Please name all of the ways you could use this object. Keep in mind that one object can have many uses. Separate your responses with a comma.",,y,3278,,,1746,3129,,,,"make music",1
w10140827_bms,suawd0f7gv,"BOI Norms",1,25,2022-10-28T22:12:30+00:00,6.9830760955811,15,"updated stim.csv",Version40.csv,"Version 40","List 40",dance,,1180,4.44,753,0.210841804,1181,BOI,-,-,"Please name all of the ways you could use this object. Keep in mind that one object can have many uses. Separate your responses with a comma.",,y,6585,,,1832,6368,,,,"exercise, entertainment",1
w10140827_bms,suawd0f7gv,"BOI Norms",1,26,2022-10-28T22:12:38+00:00,8.0929310321808,15,"updated stim.csv",Version40.csv,"Version 40","List 40",bedspread,,1174,6.08,188,0.054747267,1175,BOI,-,-,"Please name all of the ways you could use this object. Keep in mind that one object can have many uses. Separate your responses with a comma.",,y,7550,,,1921,7332,,,,"keep bed warm, keep bed clean",1
w10140827_bms,suawd0f7gv,"BOI Norms",1,27,2022-10-28T22:13:04+00:00,25.338971853256,15,"updated stim.csv",Version40.csv,"Version 40","List 40",signpost,,1198,5.25,2380,0.495356372,1199,BOI,-,-,"Please name all of the ways you could use this object. Keep in mind that one object can have many uses. Separate your responses with a comma.",,y,25028,,,4823,24894,,,,"to point things out, bring attention to things",1
w10140827_bms,suawd0f7gv,"BOI Norms",1,28,2022-10-28T22:13:32+00:00,28.070222139359,15,"updated stim.csv",Version40.csv,"Version 40","List 40",straitjacket,,1187,5.037037037,2558,0.770954805,1188,BOI,-,-,"Please name all of the ways you could use this object. Keep in mind that one object can have many uses. Separate your responses with a comma.",,y,27652,,,3233,27490,,,,"keep someone for hurting themselves, keep someone from hurting other people",1
w10140827_bms,suawd0f7gv,"BOI Norms",1,29,2022-10-28T22:13:50+00:00,18.050884008408,15,"updated stim.csv",Version40.csv,"Version 40","List 40",denims,,1181,5.541666667,774,0.571481343,1182,BOI,-,-,"Please name all of the ways you could use this object. Keep in mind that one object can have many uses. Separate your responses with a comma.",,y,17742,,,3467,17370,,,,"comfy pants, work pants, cute jackets, work shirts",1
w10140827_bms,suawd0f7gv,"BOI Norms",1,30,2022-10-28T22:14:37+00:00,47.64960694313,15,"updated stim.csv",Version40.csv,"Version 40","List 40",gyroscope,,1189,4.814814815,1207,0.518024929,1190,BOI,-,-,"Please name all of the ways you could use this object. Keep in mind that one object can have many uses. Separate your responses with a comma.",,y,47073,,,41226,46594,,,,"maintains angular velocity",1
w10140827_bms,suawd0f7gv,"BOI Norms",1,31,2022-10-28T22:14:56+00:00,18.441836118698,15,"updated stim.csv",Version40.csv,"Version 40","List 40",piercing,,1184,5,1954,0.302184076,1185,BOI,-,-,"Please name all of the ways you could use this object. Keep in mind that one object can have many uses. Separate your responses with a comma.",,y,18114,,,5269,17987,,,,"helps with headaches, cute statement pieces",1
w10140827_bms,suawd0f7gv,"BOI Norms",1,32,2022-10-28T22:15:09+00:00,13.57910490036,15,"updated stim.csv",Version40.csv,"Version 40","List 40",porridge,,1190,4.80952381,2038,0.226224278,1191,BOI,-,-,"Please name all of the ways you could use this object. Keep in mind that one object can have many uses. Separate your responses with a comma.",,y,12862,,,1812,3452,,,,food,1
w10140827_bms,suawd0f7gv,"BOI Norms",1,33,2022-10-28T22:15:15+00:00,5.8264300823212,15,"updated stim.csv",Version40.csv,"Version 40","List 40",bleacher,,1196,5.083333333,235,0.237933917,1197,BOI,-,-,"Please name all of the ways you could use this object. Keep in mind that one object can have many uses. Separate your responses with a comma.",,y,5503,,,2360,5317,,,,"place to sit at games",1
w10140827_bms,suawd0f7gv,"BOI Norms",1,34,2022-10-28T22:15:36+00:00,21.212698936462,15,"updated stim.csv",Version40.csv,"Version 40","List 40",oilcan,,1200,4.782608696,1802,0.943196409,1201,BOI,-,-,"Please name all of the ways you could use this object. Keep in mind that one object can have many uses. Separate your responses with a comma.",,y,20892,,,1948,15676,,,,"oiling the tin man",1
w10140827_bms,suawd0f7gv,"BOI Norms",1,35,2022-10-28T22:15:44+00:00,7.9457359313965,15,"updated stim.csv",Version40.csv,"Version 40","List 40",newspaperman,,1195,4.48,1761,0.676039813,1196,BOI,-,-,"Please name all of the ways you could use this object. Keep in mind that one object can have many uses. Separate your responses with a comma.",,y,7391,,,1579,6717,,,,"hands out newspaper",1
w10140827_bms,suawd0f7gv,"BOI Norms",1,36,2022-10-28T22:15:55+00:00,10.685833930969,15,"updated stim.csv",Version40.csv,"Version 40","List 40",buckle,,1188,4.846153846,342,0.420732514,1189,BOI,-,-,"Please name all of the ways you could use this object. Keep in mind that one object can have many uses. Separate your responses with a comma.",,y,10275,,,2705,10023,,,,"keeps pants up, locks in seatbelt",1
w10140827_bms,suawd0f7gv,"BOI Norms",1,37,2022-10-28T22:16:01+00:00,5.740061044693,15,"updated stim.csv",Version40.csv,"Version 40","List 40",pie,,1178,5.869565217,1953,0.817428636,1179,BOI,-,-,"Please name all of the ways you could use this object. Keep in mind that one object can have many uses. Separate your responses with a comma.",,y,5070,,,1918,4375,,,,"yummy to eat",1
w10140827_bms,suawd0f7gv,"BOI Norms",1,38,2022-10-28T22:16:16+00:00,15.135344982147,15,"updated stim.csv",Version40.csv,"Version 40","List 40",twine,,1177,5.5,2812,0.436601767,1178,BOI,-,-,"Please name all of the ways you could use this object. Keep in mind that one object can have many uses. Separate your responses with a comma.",,y,14222,,,5296,12119,,,,"tie hay bales",1
w10140827_bms,suawd0f7gv,"BOI Norms",1,39,2022-10-28T22:16:25+00:00,8.654862165451,15,"updated stim.csv",Version40.csv,"Version 40","List 40",epidermis,,1191,5.636363636,916,0.203650559,1192,BOI,-,-,"Please name all of the ways you could use this object. Keep in mind that one object can have many uses. Separate your responses with a comma.",,y,8376,,,3565,8172,,,,"protects the body",1
w10140827_bms,suawd0f7gv,"BOI Norms",1,40,2022-10-28T22:16:33+00:00,8.5771980285645,15,"updated stim.csv",Version40.csv,"Version 40","List 40",stopwatch,,1185,6.041666667,2549,0.812942197,1186,BOI,-,-,"Please name all of the ways you could use this object. Keep in mind that one object can have many uses. Separate your responses with a comma.",,y,8306,,,5875,8142,,,,"it measure time",1
w10140827_bms,suawd0f7gv,"BOI Norms",1,41,2022-10-28T22:16:37+00:00,3.9231557846069,15,"updated stim.csv",Version40.csv,"Version 40","List 40",,,,,,,0,Instruct,,,"You will now be asked a few questions about your experience today.",,"Instruct 4",3654,,,-1,-1,,,,,1
