"Username","Trial","Condition.Number","Condition.Notes","Stimuli.Cue","Procedure.Item","Procedure.Max.Time","Procedure.Min.Time","Response.RT","Response.RTfirst","Response.RTlast","affordance","affordance_corrected"
"10012878_CL",11,2,"List 2","undergarment",59,"-","-",46282,2552,29816,"wearing","wearing"
"10012878_CL",11,2,"List 2","undergarment",59,"-","-",46282,2552,29816,"throwing","throwing"
"10012878_CL",11,2,"List 2","undergarment",59,"-","-",46282,2552,29816,"fashion","fashion"
"10012878_CL",11,2,"List 2","undergarment",59,"-","-",46282,2552,29816,"coverage","coverage"
"10012878_CL",11,2,"List 2","undergarment",59,"-","-",46282,2552,29816,"attention","attention"
"10012878_CL",12,2,"List 2","assemblyman",60,"-","-",36999,3300,22327,"construction","construction"
"10012878_CL",12,2,"List 2","assemblyman",60,"-","-",36999,3300,22327,"assistance","assistance"
"10012878_CL",12,2,"List 2","assemblyman",60,"-","-",36999,3300,22327,"work","work"
"10012878_CL",13,2,"List 2","trap",58,"-","-",26276,5017,10520,"opening","opening"
"10012878_CL",13,2,"List 2","trap",58,"-","-",26276,5017,10520,"closing","closing"
"10012878_CL",13,2,"List 2","trap",58,"-","-",26276,5017,10520,"tricking","tricking"
"10012878_CL",14,2,"List 2","lettuce",34,"-","-",24155,2118,22202,"salad","salad"
"10012878_CL",14,2,"List 2","lettuce",34,"-","-",24155,2118,22202,"food","food"
"10012878_CL",14,2,"List 2","lettuce",34,"-","-",24155,2118,22202,"cooking","cooking"
"10012878_CL",14,2,"List 2","lettuce",34,"-","-",24155,2118,22202,"feed","feed"
"10012878_CL",14,2,"List 2","lettuce",34,"-","-",24155,2118,22202,"tossing","tossing"
"10012878_CL",15,2,"List 2","courtyard",32,"-","-",45778,2611,11453,"viewing","viewing"
"10012878_CL",15,2,"List 2","courtyard",32,"-","-",45778,2611,11453,"relaxing","relaxing"
"10012878_CL",16,2,"List 2","godmother",47,"-","-",15972,1974,14738,"talking","talking"
"10012878_CL",16,2,"List 2","godmother",47,"-","-",15972,1974,14738,"asking","asking"
"10012878_CL",16,2,"List 2","godmother",47,"-","-",15972,1974,14738,"cooking","cooking"
"10012878_CL",16,2,"List 2","godmother",47,"-","-",15972,1974,14738,"parenting","parenting"
"10012878_CL",17,2,"List 2","skittles",39,"-","-",20662,2281,19370,"eating","eating"
"10012878_CL",17,2,"List 2","skittles",39,"-","-",20662,2281,19370,"art","art"
"10012878_CL",17,2,"List 2","skittles",39,"-","-",20662,2281,19370,"satisfaction","satisfaction"
"10012878_CL",18,2,"List 2","mice",48,"-","-",27840,1581,26627,"experiments","experiments"
"10012878_CL",18,2,"List 2","mice",48,"-","-",27840,1581,26627,"feed","feed"
"10012878_CL",18,2,"List 2","mice",48,"-","-",27840,1581,26627,"entertainment","entertainment"
"10012878_CL",19,2,"List 2","barman",40,"-","-",11157,1690,10027,"drinks","drinks"
"10012878_CL",19,2,"List 2","barman",40,"-","-",11157,1690,10027,"mixing","mixing"
"10012878_CL",19,2,"List 2","barman",40,"-","-",11157,1690,10027,"conversation","conversation"
"10012878_CL",20,2,"List 2","coverall",51,"-","-",17503,5015,16482,"coverage","coverage"
"10012878_CL",20,2,"List 2","coverall",51,"-","-",17503,5015,16482,"fashion","fashion"
"10012878_CL",20,2,"List 2","coverall",51,"-","-",17503,5015,16482,"clothing","clothing"
"10012878_CL",21,2,"List 2","satchel",37,"-","-",13891,1962,12488,"fashion","fashion"
"10012878_CL",21,2,"List 2","satchel",37,"-","-",13891,1962,12488,"carrying","carrying"
"10012878_CL",21,2,"List 2","satchel",37,"-","-",13891,1962,12488,"holding","holding"
"10012878_CL",22,2,"List 2","goalpost",38,"-","-",11187,3386,10224,"scoring","scoring"
"10012878_CL",22,2,"List 2","goalpost",38,"-","-",11187,3386,10224,"sports","sports"
"10012878_CL",22,2,"List 2","goalpost",38,"-","-",11187,3386,10224,"catching","catching"
"10012878_CL",23,2,"List 2","hotplate",46,"-","-",17529,2273,4699,"warming","warming"
"10012878_CL",23,2,"List 2","hotplate",46,"-","-",17529,2273,4699,"food","food"
"10012878_CL",24,2,"List 2","blower",54,"-","-",19770,2976,18475,"blowing","blowing"
"10012878_CL",24,2,"List 2","blower",54,"-","-",19770,2976,18475,"assistance","assistance"
"10012878_CL",25,2,"List 2","yogurt",50,"-","-",10184,1620,9089,"consumption","consumption"
"10012878_CL",25,2,"List 2","yogurt",50,"-","-",10184,1620,9089,"food","food"
"10012878_CL",25,2,"List 2","yogurt",50,"-","-",10184,1620,9089,"hunger","hunger"
"10012878_CL",26,2,"List 2","teabag",43,"-","-",14432,1777,13346,"mixing","mixing"
"10012878_CL",26,2,"List 2","teabag",43,"-","-",14432,1777,13346,"making","making"
"10012878_CL",26,2,"List 2","teabag",43,"-","-",14432,1777,13346,"tea","tea"
"10012878_CL",26,2,"List 2","teabag",43,"-","-",14432,1777,13346,"drink","drink"
"10012878_CL",27,2,"List 2","gondola",53,"-","-",30249,6148,29227,"viewing","viewing"
"10012878_CL",27,2,"List 2","gondola",53,"-","-",30249,6148,29227,"entertainment","entertainment"
"10012878_CL",27,2,"List 2","gondola",53,"-","-",30249,6148,29227,"privacy","privacy"
"10012878_CL",27,2,"List 2","gondola",53,"-","-",30249,6148,29227,"relaxing","relaxing"
"10012878_CL",27,2,"List 2","gondola",53,"-","-",30249,6148,29227,"fun","fun"
"10012878_CL",27,2,"List 2","gondola",53,"-","-",30249,6148,29227,"vacation","vacation"
"10012878_CL",28,2,"List 2","antibiotics",56,"-","-",16197,1627,15134,"medicine","medicine"
"10012878_CL",28,2,"List 2","antibiotics",56,"-","-",16197,1627,15134,"treatment","treatment"
"10012878_CL",28,2,"List 2","antibiotics",56,"-","-",16197,1627,15134,"illnesses","illnesses"
"10012878_CL",28,2,"List 2","antibiotics",56,"-","-",16197,1627,15134,"curing","curing"
"10012878_CL",29,2,"List 2","tripe",57,"-","-",47141,40718,46054,"consuming","consuming"
"10012878_CL",29,2,"List 2","tripe",57,"-","-",47141,40718,46054,"eating","eating"
"10012878_CL",30,2,"List 2","dolphin",49,"-","-",14868,1307,13808,"swimming","swimming"
"10012878_CL",30,2,"List 2","dolphin",49,"-","-",14868,1307,13808,"talking","talking"
"10012878_CL",30,2,"List 2","dolphin",49,"-","-",14868,1307,13808,"entertainment","entertainment"
"10012878_CL",31,2,"List 2","bottle",36,"-","-",16548,1263,15582,"drinking","drinking"
"10012878_CL",31,2,"List 2","bottle",36,"-","-",16548,1263,15582,"holding","holding"
"10012878_CL",31,2,"List 2","bottle",36,"-","-",16548,1263,15582,"filling","filling"
"10012878_CL",31,2,"List 2","bottle",36,"-","-",16548,1263,15582,"preserving","preserving"
"10012878_CL",32,2,"List 2","turban",41,"-","-",23563,1751,22148,"holding","holding"
"10012878_CL",32,2,"List 2","turban",41,"-","-",23563,1751,22148,"fashion","fashion"
"10012878_CL",32,2,"List 2","turban",41,"-","-",23563,1751,22148,"religion","religion"
"10012878_CL",33,2,"List 2","gunpowder",55,"-","-",16301,1761,11694,"shooting","shooting"
"10012878_CL",33,2,"List 2","gunpowder",55,"-","-",16301,1761,11694,"crafting","crafting"
"10012878_CL",33,2,"List 2","gunpowder",55,"-","-",16301,1761,11694,"making","making"
"10012878_CL",33,2,"List 2","gunpowder",55,"-","-",16301,1761,11694,"bullets","bullets"
"10012878_CL",34,2,"List 2","prankster",52,"-","-",14664,1444,13641,"jokes","jokes"
"10012878_CL",34,2,"List 2","prankster",52,"-","-",14664,1444,13641,"views","views"
"10012878_CL",34,2,"List 2","prankster",52,"-","-",14664,1444,13641,"laughter","laughter"
"10012878_CL",34,2,"List 2","prankster",52,"-","-",14664,1444,13641,"entertainment","entertainment"
"10012878_CL",35,2,"List 2","newscaster",33,"-","-",15187,2841,13990,"gossip","gossip"
"10012878_CL",35,2,"List 2","newscaster",33,"-","-",15187,2841,13990,"entertainment","entertainment"
"10012878_CL",35,2,"List 2","newscaster",33,"-","-",15187,2841,13990,"curiousity","curiosity"
"10012878_CL",36,2,"List 2","rainwater",61,"-","-",22051,4133,19190,"recycling","recycling"
"10012878_CL",36,2,"List 2","rainwater",61,"-","-",22051,4133,19190,"drink","drink"
"10012878_CL",36,2,"List 2","rainwater",61,"-","-",22051,4133,19190,"planting","planting"
"10012878_CL",36,2,"List 2","rainwater",61,"-","-",22051,4133,19190,"farming","farming"
"10012878_CL",37,2,"List 2","yourself",35,"-","-",54671,3313,24213,"adventures","adventures"
"10012878_CL",37,2,"List 2","yourself",35,"-","-",54671,3313,24213,"entertainment","entertainment"
"10012878_CL",38,2,"List 2","boot",42,"-","-",5967,1267,5151,"walking","walking"
"10012878_CL",38,2,"List 2","boot",42,"-","-",5967,1267,5151,"stomping","stomping"
"10012878_CL",39,2,"List 2","toy",44,"-","-",6401,1215,4583,"playing","playing"
"10012878_CL",39,2,"List 2","toy",44,"-","-",6401,1215,4583,"entertainment","entertainment"
"10012878_CL",40,2,"List 2","choreographer",45,"-","-",9942,1277,5927,"art","art"
"10012878_CL",40,2,"List 2","choreographer",45,"-","-",9942,1277,5927,"dancing","dancing"
"10016155",11,24,"List 74","engineer",2203,"-","-",27448,3665,24400,"chemical","chemical"
"10016155",11,24,"List 74","engineer",2203,"-","-",27448,3665,24400,"electrical","electrical"
"10016155",11,24,"List 74","engineer",2203,"-","-",27448,3665,24400,"mechanical","mechanical"
"10016155",12,24,"List 74","watchband",2207,"-","-",12292,2447,11625,"worn","worn"
"10016155",12,24,"List 74","watchband",2207,"-","-",12292,2447,11625,"used","used"
"10016155",12,24,"List 74","watchband",2207,"-","-",12292,2447,11625,"touched","touched"
"10016155",13,24,"List 74","abacus",2197,"-","-",17071,14472,15439,"thrown","thrown"
"10016155",15,24,"List 74","duster",2192,"-","-",8561,3584,7898,"clean","clean"
"10016155",15,24,"List 74","duster",2192,"-","-",8561,3584,7898,"pick","pick"
"10016155",15,24,"List 74","duster",2192,"-","-",8561,3584,7898,"up","up"
"10016155",16,24,"List 74","eyewash",2220,"-","-",15596,2915,10132,"ease","ease"
"10016155",16,24,"List 74","eyewash",2220,"-","-",15596,2915,10132,"pain","pain"
"10016155",16,24,"List 74","eyewash",2220,"-","-",15596,2915,10132,"rinse","rinse"
"10016155",17,24,"List 74","underclothing",2200,"-","-",13476,3366,12946,"worn","worn"
"10016155",17,24,"List 74","underclothing",2200,"-","-",13476,3366,12946,"washed","washed"
"10016155",17,24,"List 74","underclothing",2200,"-","-",13476,3366,12946,"folded","folded"
"10016155",18,24,"List 74","lunchroom",2201,"-","-",16962,12765,16635,"to","to"
"10016155",18,24,"List 74","lunchroom",2201,"-","-",16962,12765,16635,"eat","eat"
"10016155",19,24,"List 74","percolator",2195,"-","-",3887,3127,3413,"idk","id"
"10016155",20,24,"List 74","props",2221,"-","-",5081,2079,4813,"used","used"
"10016155",20,24,"List 74","props",2221,"-","-",5081,2079,4813,"for","for"
"10016155",20,24,"List 74","props",2221,"-","-",5081,2079,4813,"play","play"
"10016155",21,24,"List 74","teacher",2202,"-","-",8168,4143,7831,"help","help"
"10016155",21,24,"List 74","teacher",2202,"-","-",8168,4143,7831,"students","students"
"10016155",21,24,"List 74","teacher",2202,"-","-",8168,4143,7831,"learn","learn"
"10016155",22,24,"List 74","electrician",2211,"-","-",14855,2488,14346,"works","works"
"10016155",22,24,"List 74","electrician",2211,"-","-",14855,2488,14346,"on","on"
"10016155",22,24,"List 74","electrician",2211,"-","-",14855,2488,14346,"electrical","electrical"
"10016155",22,24,"List 74","electrician",2211,"-","-",14855,2488,14346,"problems","problems"
"10016155",22,24,"List 74","electrician",2211,"-","-",14855,2488,14346,"issues","issues"
"10016155",23,24,"List 74","flaxseed",2216,"-","-",6553,1837,6202,"eaten","eaten"
"10016155",23,24,"List 74","flaxseed",2216,"-","-",6553,1837,6202,"grown","grown"
"10016155",24,24,"List 74","gasket",2208,"-","-",12374,8656,10866,"used","used"
"10016155",24,24,"List 74","gasket",2208,"-","-",12374,8656,10866,"to","to"
"10016155",24,24,"List 74","gasket",2208,"-","-",12374,8656,10866,"fixe","fix"
"10016155",25,24,"List 74","trench",2218,"-","-",9216,2206,8917,"dug","dug"
"10016155",25,24,"List 74","trench",2218,"-","-",9216,2206,8917,"walk","walk"
"10016155",25,24,"List 74","trench",2218,"-","-",9216,2206,8917,"in","in"
"10016155",26,24,"List 74","rowboat",2194,"-","-",11358,2741,11030,"to","to"
"10016155",26,24,"List 74","rowboat",2194,"-","-",11358,2741,11030,"get","get"
"10016155",26,24,"List 74","rowboat",2194,"-","-",11358,2741,11030,"places","places"
"10016155",27,24,"List 74","thumbtack",2210,"-","-",10786,4237,10411,"to","to"
"10016155",27,24,"List 74","thumbtack",2210,"-","-",10786,4237,10411,"hold","hold"
"10016155",27,24,"List 74","thumbtack",2210,"-","-",10786,4237,10411,"something","something"
"10016155",27,24,"List 74","thumbtack",2210,"-","-",10786,4237,10411,"up","up"
"10016155",28,24,"List 74","tangerine",2214,"-","-",7545,2032,7292,"eaten","eaten"
"10016155",28,24,"List 74","tangerine",2214,"-","-",7545,2032,7292,"picked","picked"
"10016155",28,24,"List 74","tangerine",2214,"-","-",7545,2032,7292,"grown","grown"
"10016155",29,24,"List 74","coaster",2204,"-","-",11278,3962,10225,"hold","hold"
"10016155",29,24,"List 74","coaster",2204,"-","-",11278,3962,10225,"drinks","drinks"
"10016155",30,24,"List 74","shank",2205,"-","-",3401,1781,2480,"stab","stab"
"10016155",31,24,"List 74","parchment",2219,"-","-",6892,3297,6706,"used","used"
"10016155",31,24,"List 74","parchment",2219,"-","-",6892,3297,6706,"when","when"
"10016155",31,24,"List 74","parchment",2219,"-","-",6892,3297,6706,"cooking","cooking"
"10016155",32,24,"List 74","tablecloth",2213,"-","-",8240,1629,7989,"used","used"
"10016155",32,24,"List 74","tablecloth",2213,"-","-",8240,1629,7989,"to","to"
"10016155",32,24,"List 74","tablecloth",2213,"-","-",8240,1629,7989,"help","help"
"10016155",32,24,"List 74","tablecloth",2213,"-","-",8240,1629,7989,"keep","keep"
"10016155",32,24,"List 74","tablecloth",2213,"-","-",8240,1629,7989,"table","table"
"10016155",32,24,"List 74","tablecloth",2213,"-","-",8240,1629,7989,"clean","clean"
"10016155",33,24,"List 74","worksheet",2198,"-","-",6433,2387,6147,"turn","turn"
"10016155",33,24,"List 74","worksheet",2198,"-","-",6433,2387,6147,"in","in"
"10016155",33,24,"List 74","worksheet",2198,"-","-",6433,2387,6147,"do","do"
"10016155",33,24,"List 74","worksheet",2198,"-","-",6433,2387,6147,"work","work"
"10016155",34,24,"List 74","stem",2196,"-","-",6604,5472,6471,"picked","picked"
"10016155",35,24,"List 74","lunch",2212,"-","-",2173,1108,1886,"eaten","eaten"
"10016155",36,24,"List 74","cheek",2193,"-","-",11216,4528,11035,"gets","gets"
"10016155",36,24,"List 74","cheek",2193,"-","-",11216,4528,11035,"red","red"
"10016155",36,24,"List 74","cheek",2193,"-","-",11216,4528,11035,"helps","helps"
"10016155",36,24,"List 74","cheek",2193,"-","-",11216,4528,11035,"with","with"
"10016155",36,24,"List 74","cheek",2193,"-","-",11216,4528,11035,"smile","smile"
"10016155",37,24,"List 74","salamander",2206,"-","-",13764,4657,13292,"as","as"
"10016155",37,24,"List 74","salamander",2206,"-","-",13764,4657,13292,"a","a"
"10016155",37,24,"List 74","salamander",2206,"-","-",13764,4657,13292,"pet","pet"
"10016155",37,24,"List 74","salamander",2206,"-","-",13764,4657,13292,"in","in"
"10016155",37,24,"List 74","salamander",2206,"-","-",13764,4657,13292,"the","the"
"10016155",37,24,"List 74","salamander",2206,"-","-",13764,4657,13292,"wild","wild"
"10016155",37,24,"List 74","salamander",2206,"-","-",13764,4657,13292,"also","also"
"10016155",38,24,"List 74","ruler",2217,"-","-",5872,1748,5652,"used","used"
"10016155",38,24,"List 74","ruler",2217,"-","-",5872,1748,5652,"to","to"
"10016155",38,24,"List 74","ruler",2217,"-","-",5872,1748,5652,"measure","measure"
"10016155",39,24,"List 74","stepbrother",2215,"-","-",9883,3092,9686,"advice","advice"
"10016155",39,24,"List 74","stepbrother",2215,"-","-",9883,3092,9686,"quality","quality"
"10016155",39,24,"List 74","stepbrother",2215,"-","-",9883,3092,9686,"time","time"
"10016155",40,24,"List 74","stage",2209,"-","-",9937,2876,9383,"perform","perform"
"10016155",40,24,"List 74","stage",2209,"-","-",9937,2876,9383,"sing","sing"
"10016155",40,24,"List 74","stage",2209,"-","-",9937,2876,9383,"dance","dance"
"10016155",40,24,"List 74","stage",2209,"-","-",9937,2876,9383,"worship","worship"
"10032501AW",11,11,"List 11","billiards",328,"-","-",86845,57245,82431,"sitting","sitting"
"10032501AW",11,11,"List 11","billiards",328,"-","-",86845,57245,82431,"coaster","coaster"
"10032501AW",11,11,"List 11","billiards",328,"-","-",86845,57245,82431,"storage","storage"
"10032501AW",11,11,"List 11","billiards",328,"-","-",86845,57245,82431,"table","table"
"10032501AW",12,11,"List 11","mongoose",330,"-","-",17212,5249,11497,"eaten","eaten"
"10032501AW",12,11,"List 11","mongoose",330,"-","-",17212,5249,11497,"cooked","cooked"
"10032501AW",12,11,"List 11","mongoose",330,"-","-",17212,5249,11497,"pet","pet"
"10032501AW",13,11,"List 11","village",322,"-","-",36352,6554,25275,"visit","visit"
"10032501AW",13,11,"List 11","village",322,"-","-",36352,6554,25275,"resident","resident"
"10032501AW",14,11,"List 11","hibachi",313,"-","-",29292,24679,25435,"cooking","cooking"
"10032501AW",15,11,"List 11","furnace",331,"-","-",11514,2131,4409,"heating","heating"
"10032501AW",15,11,"List 11","furnace",331,"-","-",11514,2131,4409,"burning","burning"
"10032501AW",16,11,"List 11","apartments",310,"-","-",34165,5595,33084,"tenant","tenant"
"10032501AW",16,11,"List 11","apartments",310,"-","-",34165,5595,33084,"sleep","sleep"
"10032501AW",16,11,"List 11","apartments",310,"-","-",34165,5595,33084,"cook","cook"
"10032501AW",16,11,"List 11","apartments",310,"-","-",34165,5595,33084,"eat","eat"
"10032501AW",16,11,"List 11","apartments",310,"-","-",34165,5595,33084,"clean","clean"
"10032501AW",16,11,"List 11","apartments",310,"-","-",34165,5595,33084,"storage","storage"
"10032501AW",16,11,"List 11","apartments",310,"-","-",34165,5595,33084,"shelter","shelter"
"10032501AW",17,11,"List 11","teaspoonful",323,"-","-",42647,11953,34526,"seasoning","seasoning"
"10032501AW",17,11,"List 11","teaspoonful",323,"-","-",42647,11953,34526,"sweetener","sweetener"
"10032501AW",17,11,"List 11","teaspoonful",323,"-","-",42647,11953,34526,"mix","mix"
"10032501AW",17,11,"List 11","teaspoonful",323,"-","-",42647,11953,34526,"scoop","scoop"
"10032501AW",18,11,"List 11","flowerpot",315,"-","-",15826,2169,4115,"plant","plant"
"10032501AW",18,11,"List 11","flowerpot",315,"-","-",15826,2169,4115,"storage","storage"
"10032501AW",19,11,"List 11","grandchild",316,"-","-",25033,2346,24053,"play","play"
"10032501AW",19,11,"List 11","grandchild",316,"-","-",25033,2346,24053,"care","care"
"10032501AW",20,11,"List 11","taffy",324,"-","-",27432,2447,24919,"eat","eat"
"10032501AW",20,11,"List 11","taffy",324,"-","-",27432,2447,24919,"stretch","stretch"
"10032501AW",20,11,"List 11","taffy",324,"-","-",27432,2447,24919,"suck","suck"
"10032501AW",20,11,"List 11","taffy",324,"-","-",27432,2447,24919,"bite","bite"
"10032501AW",20,11,"List 11","taffy",324,"-","-",27432,2447,24919,"lick","lick"
"10032501AW",20,11,"List 11","taffy",324,"-","-",27432,2447,24919,"tear","tear"
"10032501AW",20,11,"List 11","taffy",324,"-","-",27432,2447,24919,"crush","crush"
"10032501AW",20,11,"List 11","taffy",324,"-","-",27432,2447,24919,"melt","melt"
"10032501AW",21,11,"List 11","mullets",319,"-","-",18045,2055,15458,"cut","cut"
"10032501AW",21,11,"List 11","mullets",319,"-","-",18045,2055,15458,"washed","washed"
"10032501AW",21,11,"List 11","mullets",319,"-","-",18045,2055,15458,"dyed","dyed"
"10032501AW",21,11,"List 11","mullets",319,"-","-",18045,2055,15458,"straightened","straightened"
"10032501AW",21,11,"List 11","mullets",319,"-","-",18045,2055,15458,"curled","curled"
"10032501AW",22,11,"List 11","flatiron",311,"-","-",24782,5684,23726,"hold","hold"
"10032501AW",22,11,"List 11","flatiron",311,"-","-",24782,5684,23726,"weapon","weapon"
"10032501AW",22,11,"List 11","flatiron",311,"-","-",24782,5684,23726,"straighten","straighten"
"10032501AW",23,11,"List 11","bondsman",308,"-","-",71479,41760,68725,"hug","hug"
"10032501AW",23,11,"List 11","bondsman",308,"-","-",71479,41760,68725,"hit","hit"
"10032501AW",24,11,"List 11","raincoat",326,"-","-",23484,1979,15435,"wear","wear"
"10032501AW",24,11,"List 11","raincoat",326,"-","-",23484,1979,15435,"fold","fold"
"10032501AW",24,11,"List 11","raincoat",326,"-","-",23484,1979,15435,"burn","burn"
"10032501AW",24,11,"List 11","raincoat",326,"-","-",23484,1979,15435,"shelter","shelter"
"10032501AW",25,11,"List 11","casserole",306,"-","-",22414,3166,18461,"eat","eat"
"10032501AW",25,11,"List 11","casserole",306,"-","-",22414,3166,18461,"reheat","reheat"
"10032501AW",25,11,"List 11","casserole",306,"-","-",22414,3166,18461,"scoop","scoop"
"10032501AW",25,11,"List 11","casserole",306,"-","-",22414,3166,18461,"stab","stab"
"10032501AW",26,11,"List 11","crust",304,"-","-",8475,2169,7390,"eat","eat"
"10032501AW",26,11,"List 11","crust",304,"-","-",8475,2169,7390,"crushed","crushed"
"10032501AW",26,11,"List 11","crust",304,"-","-",8475,2169,7390,"cut","cut"
"10032501AW",27,11,"List 11","molasses",321,"-","-",30848,1931,29847,"syrup","syrup"
"10032501AW",27,11,"List 11","molasses",321,"-","-",30848,1931,29847,"lick","lick"
"10032501AW",27,11,"List 11","molasses",321,"-","-",30848,1931,29847,"sweetner","sweetener"
"10032501AW",28,11,"List 11","butt",312,"-","-",20240,5097,15604,"slap","slap"
"10032501AW",28,11,"List 11","butt",312,"-","-",20240,5097,15604,"fondle","fondle"
"10032501AW",28,11,"List 11","butt",312,"-","-",20240,5097,15604,"rub","rub"
"10032501AW",28,11,"List 11","butt",312,"-","-",20240,5097,15604,"cushion","cushion"
"10032501AW",29,11,"List 11","parakeet",329,"-","-",8809,4277,4781,"pet","pet"
"10032501AW",30,11,"List 11","nut",307,"-","-",26911,6352,20166,"eat","eat"
"10032501AW",30,11,"List 11","nut",307,"-","-",26911,6352,20166,"crush","crush"
"10032501AW",30,11,"List 11","nut",307,"-","-",26911,6352,20166,"topping","topping"
"10032501AW",31,11,"List 11","pan",327,"-","-",12572,4371,11411,"fry","fry"
"10032501AW",31,11,"List 11","pan",327,"-","-",12572,4371,11411,"clean","clean"
"10032501AW",31,11,"List 11","pan",327,"-","-",12572,4371,11411,"weapon","weapon"
"10032501AW",32,11,"List 11","corn",317,"-","-",14705,1645,11298,"eat","eat"
"10032501AW",32,11,"List 11","corn",317,"-","-",14705,1645,11298,"boil","boil"
"10032501AW",32,11,"List 11","corn",317,"-","-",14705,1645,11298,"crush","crush"
"10032501AW",32,11,"List 11","corn",317,"-","-",14705,1645,11298,"ingredient","ingredient"
"10032501AW",33,11,"List 11","stepdaughter",314,"-","-",11812,4348,4951,"hug","hug"
"10032501AW",34,11,"List 11","trigger",320,"-","-",7852,4875,5298,"push","push"
"10032501AW",35,11,"List 11","belt",318,"-","-",11412,6058,9802,"accessory","accessory"
"10032501AW",35,11,"List 11","belt",318,"-","-",11412,6058,9802,"weapon","weapon"
"10032501AW",36,11,"List 11","acupuncture",302,"-","-",14969,5538,14075,"weapon","weapon"
"10032501AW",36,11,"List 11","acupuncture",302,"-","-",14969,5538,14075,"medical","medical"
"10032501AW",36,11,"List 11","acupuncture",302,"-","-",14969,5538,14075,"tool","tool"
"10032501AW",37,11,"List 11","rectum",309,"-","-",33346,6813,32299,"stretched","stretched"
"10032501AW",37,11,"List 11","rectum",309,"-","-",33346,6813,32299,"an","an"
"10032501AW",37,11,"List 11","rectum",309,"-","-",33346,6813,32299,"exit","exit"
"10032501AW",38,11,"List 11","device",303,"-","-",51612,1846,41935,"diary","diary"
"10032501AW",38,11,"List 11","device",303,"-","-",51612,1846,41935,"book","book"
"10032501AW",38,11,"List 11","device",303,"-","-",51612,1846,41935,"storage","storage"
"10032501AW",39,11,"List 11","dirt",325,"-","-",11728,7083,7693,"dug","dug"
"10032501AW",40,11,"List 11","kettledrum",305,"-","-",72159,67847,69822,"instrument","instrument"
"10043633MWA",11,11,"List 36","edibles",1064,"-","-",35909,1425,10472,"eaten","eaten"
"10043633MWA",11,11,"List 36","edibles",1064,"-","-",35909,1425,10472,"made","made"
"10043633MWA",11,11,"List 36","edibles",1064,"-","-",35909,1425,10472,"sold","sold"
"10043633MWA",11,11,"List 36","edibles",1064,"-","-",35909,1425,10472,"bought","bought"
"10043633MWA",12,11,"List 36","barber",1061,"-","-",17695,3398,14821,"called","called"
"10043633MWA",12,11,"List 36","barber",1061,"-","-",17695,3398,14821,"used","used"
"10043633MWA",12,11,"List 36","barber",1061,"-","-",17695,3398,14821,"killed","killed"
"10043633MWA",13,11,"List 36","alfalfa",1074,"-","-",30951,7184,16502,"listened","listened"
"10043633MWA",13,11,"List 36","alfalfa",1074,"-","-",30951,7184,16502,"to","to"
"10043633MWA",13,11,"List 36","alfalfa",1074,"-","-",30951,7184,16502,"watched","watched"
"10043633MWA",13,11,"List 36","alfalfa",1074,"-","-",30951,7184,16502,"talk","talk"
"10043633MWA",14,11,"List 36","evergreen",1079,"-","-",23631,13599,22337,"seen","seen"
"10043633MWA",14,11,"List 36","evergreen",1079,"-","-",23631,13599,22337,"sold","sold"
"10043633MWA",14,11,"List 36","evergreen",1079,"-","-",23631,13599,22337,"cut","cut"
"10043633MWA",14,11,"List 36","evergreen",1079,"-","-",23631,13599,22337,"down","down"
"10043633MWA",14,11,"List 36","evergreen",1079,"-","-",23631,13599,22337,"viewed","viewed"
"10043633MWA",15,11,"List 36","flashbulb",1077,"-","-",20826,2940,20705,"broken","broken"
"10043633MWA",15,11,"List 36","flashbulb",1077,"-","-",20826,2940,20705,"turned","turned"
"10043633MWA",15,11,"List 36","flashbulb",1077,"-","-",20826,2940,20705,"on","on"
"10043633MWA",15,11,"List 36","flashbulb",1077,"-","-",20826,2940,20705,"turned","turned"
"10043633MWA",15,11,"List 36","flashbulb",1077,"-","-",20826,2940,20705,"off","off"
"10043633MWA",15,11,"List 36","flashbulb",1077,"-","-",20826,2940,20705,"bought","bought"
"10043633MWA",15,11,"List 36","flashbulb",1077,"-","-",20826,2940,20705,"sold","sold"
"10043633MWA",17,11,"List 36","llama",1055,"-","-",20252,1363,17069,"sold","sold"
"10043633MWA",17,11,"List 36","llama",1055,"-","-",20252,1363,17069,"rode","rode"
"10043633MWA",17,11,"List 36","llama",1055,"-","-",20252,1363,17069,"bought","bought"
"10043633MWA",17,11,"List 36","llama",1055,"-","-",20252,1363,17069,"viewed","viewed"
"10043633MWA",17,11,"List 36","llama",1055,"-","-",20252,1363,17069,"kicked","kicked"
"10043633MWA",17,11,"List 36","llama",1055,"-","-",20252,1363,17069,"tripped","tripped"
"10043633MWA",17,11,"List 36","llama",1055,"-","-",20252,1363,17069,"over","over"
"10043633MWA",18,11,"List 36","curler",1069,"-","-",19491,2623,8362,"bought","bought"
"10043633MWA",18,11,"List 36","curler",1069,"-","-",19491,2623,8362,"used","used"
"10043633MWA",18,11,"List 36","curler",1069,"-","-",19491,2623,8362,"sold","sold"
"10043633MWA",19,11,"List 36","leftovers",1071,"-","-",18694,1778,17731,"eaten","eaten"
"10043633MWA",19,11,"List 36","leftovers",1071,"-","-",18694,1778,17731,"saved","saved"
"10043633MWA",19,11,"List 36","leftovers",1071,"-","-",18694,1778,17731,"made","made"
"10043633MWA",20,11,"List 36","tombstone",1073,"-","-",34025,29817,33711,"bought","bought"
"10043633MWA",20,11,"List 36","tombstone",1073,"-","-",34025,29817,33711,"sold","sold"
"10043633MWA",20,11,"List 36","tombstone",1073,"-","-",34025,29817,33711,"created","created"
"10043633MWA",21,11,"List 36","manicure",1081,"-","-",52688,3475,51744,"bought","bought"
"10043633MWA",21,11,"List 36","manicure",1081,"-","-",52688,3475,51744,"sold","sold"
"10043633MWA",21,11,"List 36","manicure",1081,"-","-",52688,3475,51744,"given","given"
"10043633MWA",22,11,"List 36","teardrop",1065,"-","-",9680,2481,9558,"cried","cried"
"10043633MWA",22,11,"List 36","teardrop",1065,"-","-",9680,2481,9558,"wiped","wiped"
"10043633MWA",22,11,"List 36","teardrop",1065,"-","-",9680,2481,9558,"away","away"
"10043633MWA",22,11,"List 36","teardrop",1065,"-","-",9680,2481,9558,"shot","shot"
"10043633MWA",23,11,"List 36","harmonica",1062,"-","-",57836,1329,40161,"played","played"
"10043633MWA",23,11,"List 36","harmonica",1062,"-","-",57836,1329,40161,"buzzed","buzzed"
"10043633MWA",23,11,"List 36","harmonica",1062,"-","-",57836,1329,40161,"sold","sold"
"10043633MWA",23,11,"List 36","harmonica",1062,"-","-",57836,1329,40161,"bought","bought"
"10043633MWA",24,11,"List 36","drugstore",1080,"-","-",28766,1841,15385,"visited","visited"
"10043633MWA",24,11,"List 36","drugstore",1080,"-","-",28766,1841,15385,"opened","opened"
"10043633MWA",24,11,"List 36","drugstore",1080,"-","-",28766,1841,15385,"closed","closed"
"10043633MWA",25,11,"List 36","switchboard",1075,"-","-",3427,2909,3367,"used","used"
"10043633MWA",26,11,"List 36","vitamins",1078,"-","-",12128,3266,8966,"taken","taken"
"10043633MWA",26,11,"List 36","vitamins",1078,"-","-",12128,3266,8966,"sold","sold"
"10043633MWA",26,11,"List 36","vitamins",1078,"-","-",12128,3266,8966,"bought","bought"
"10043633MWA",27,11,"List 36","laxative",1053,"-","-",16937,1576,10654,"taken","taken"
"10043633MWA",27,11,"List 36","laxative",1053,"-","-",16937,1576,10654,"bought","bought"
"10043633MWA",27,11,"List 36","laxative",1053,"-","-",16937,1576,10654,"sold","sold"
"10043633MWA",28,11,"List 36","beagle",1076,"-","-",20047,2170,19642,"played","played"
"10043633MWA",28,11,"List 36","beagle",1076,"-","-",20047,2170,19642,"with","with"
"10043633MWA",28,11,"List 36","beagle",1076,"-","-",20047,2170,19642,"viewed","viewed"
"10043633MWA",28,11,"List 36","beagle",1076,"-","-",20047,2170,19642,"walked","walked"
"10043633MWA",28,11,"List 36","beagle",1076,"-","-",20047,2170,19642,"rode","rode"
"10043633MWA",28,11,"List 36","beagle",1076,"-","-",20047,2170,19642,"bought","bought"
"10043633MWA",28,11,"List 36","beagle",1076,"-","-",20047,2170,19642,"sold","sold"
"10043633MWA",29,11,"List 36","screwdriver",1070,"-","-",12955,1641,12829,"bought","bought"
"10043633MWA",29,11,"List 36","screwdriver",1070,"-","-",12955,1641,12829,"sold","sold"
"10043633MWA",29,11,"List 36","screwdriver",1070,"-","-",12955,1641,12829,"used","used"
"10043633MWA",29,11,"List 36","screwdriver",1070,"-","-",12955,1641,12829,"broken","broken"
"10043633MWA",29,11,"List 36","screwdriver",1070,"-","-",12955,1641,12829,"bent","bent"
"10043633MWA",30,11,"List 36","houseboat",1072,"-","-",8325,1947,6851,"bought","bought"
"10043633MWA",30,11,"List 36","houseboat",1072,"-","-",8325,1947,6851,"sold","sold"
"10043633MWA",30,11,"List 36","houseboat",1072,"-","-",8325,1947,6851,"rode","rode"
"10043633MWA",30,11,"List 36","houseboat",1072,"-","-",8325,1947,6851,"broken","broken"
"10043633MWA",31,11,"List 36","telescope",1060,"-","-",7952,1713,7848,"used","used"
"10043633MWA",31,11,"List 36","telescope",1060,"-","-",7952,1713,7848,"broken","broken"
"10043633MWA",31,11,"List 36","telescope",1060,"-","-",7952,1713,7848,"bought","bought"
"10043633MWA",31,11,"List 36","telescope",1060,"-","-",7952,1713,7848,"sold","sold"
"10043633MWA",32,11,"List 36","rain",1068,"-","-",7721,1482,4354,"felt","felt"
"10043633MWA",32,11,"List 36","rain",1068,"-","-",7721,1482,4354,"caught","caught"
"10043633MWA",33,11,"List 36","engine",1066,"-","-",15653,2459,15442,"fix","fix"
"10043633MWA",33,11,"List 36","engine",1066,"-","-",15653,2459,15442,"broken","broken"
"10043633MWA",33,11,"List 36","engine",1066,"-","-",15653,2459,15442,"bought","bought"
"10043633MWA",33,11,"List 36","engine",1066,"-","-",15653,2459,15442,"sold","sold"
"10043633MWA",34,11,"List 36","saltshaker",1059,"-","-",6704,1401,6504,"broken","broken"
"10043633MWA",34,11,"List 36","saltshaker",1059,"-","-",6704,1401,6504,"sold","sold"
"10043633MWA",34,11,"List 36","saltshaker",1059,"-","-",6704,1401,6504,"bought","bought"
"10043633MWA",35,11,"List 36","male",1058,"-","-",12444,4214,10719,"broken","broken"
"10043633MWA",36,11,"List 36","woodshed",1052,"-","-",4375,1720,4280,"built","built"
"10043633MWA",36,11,"List 36","woodshed",1052,"-","-",4375,1720,4280,"bought","bought"
"10043633MWA",36,11,"List 36","woodshed",1052,"-","-",4375,1720,4280,"sold","sold"
"10043633MWA",37,11,"List 36","lambskin",1056,"-","-",6676,1335,6572,"sold","sold"
"10043633MWA",37,11,"List 36","lambskin",1056,"-","-",6676,1335,6572,"torn","torn"
"10043633MWA",37,11,"List 36","lambskin",1056,"-","-",6676,1335,6572,"bought","bought"
"10043633MWA",38,11,"List 36","motorcycle",1067,"-","-",7101,1542,7023,"bought","bought"
"10043633MWA",38,11,"List 36","motorcycle",1067,"-","-",7101,1542,7023,"sold","sold"
"10043633MWA",38,11,"List 36","motorcycle",1067,"-","-",7101,1542,7023,"fixed","fixed"
"10043633MWA",38,11,"List 36","motorcycle",1067,"-","-",7101,1542,7023,"refurbished","refurbished"
"10043633MWA",39,11,"List 36","mentor",1054,"-","-",5901,2129,5733,"listened","listened"
"10043633MWA",39,11,"List 36","mentor",1054,"-","-",5901,2129,5733,"to","to"
"10043633MWA",39,11,"List 36","mentor",1054,"-","-",5901,2129,5733,"bought","bought"
"10043633MWA",39,11,"List 36","mentor",1054,"-","-",5901,2129,5733,"sold","sold"
"10043633MWA",40,11,"List 36","ornament",1063,"-","-",4064,1162,3571,"bought","bought"
"10043633MWA",40,11,"List 36","ornament",1063,"-","-",4064,1162,3571,"sold","sold"
"10043633MWA",40,11,"List 36","ornament",1063,"-","-",4064,1162,3571,"broken","broken"
"10048843AC",11,2,"List 77","pigtail",2291,"-","-",11062,2402,10319,"hair","hair"
"10048843AC",11,2,"List 77","pigtail",2291,"-","-",11062,2402,10319,"ponytail","ponytail"
"10048843AC",11,2,"List 77","pigtail",2291,"-","-",11062,2402,10319,"hot","hot"
"10048843AC",12,2,"List 77","clergy",2282,"-","-",4737,3322,3945,"court","court"
"10048843AC",13,2,"List 77","nameplate",2301,"-","-",4432,2008,3753,"identification","identification"
"10048843AC",14,2,"List 77","costumer",2294,"-","-",7705,1834,6679,"buying","buying"
"10048843AC",14,2,"List 77","costumer",2294,"-","-",7705,1834,6679,"money","money"
"10048843AC",15,2,"List 77","photograph",2296,"-","-",5055,1093,4386,"picture","picture"
"10048843AC",15,2,"List 77","photograph",2296,"-","-",5055,1093,4386,"memories","memories"
"10048843AC",16,2,"List 77","mouthwash",2303,"-","-",6393,3401,5007,"fresh","fresh"
"10048843AC",16,2,"List 77","mouthwash",2303,"-","-",6393,3401,5007,"mint","mint"
"10048843AC",17,2,"List 77","brisket",2300,"-","-",8296,1209,7604,"food","food"
"10048843AC",17,2,"List 77","brisket",2300,"-","-",8296,1209,7604,"barbeque","barbecue"
"10048843AC",17,2,"List 77","brisket",2300,"-","-",8296,1209,7604,"grill","grill"
"10048843AC",18,2,"List 77","headset",2305,"-","-",11617,2485,10938,"noise","noise"
"10048843AC",18,2,"List 77","headset",2305,"-","-",11617,2485,10938,"quite","quite"
"10048843AC",18,2,"List 77","headset",2305,"-","-",11617,2485,10938,"focus","focus"
"10048843AC",19,2,"List 77","baby",2290,"-","-",7981,1291,6967,"cry","cry"
"10048843AC",19,2,"List 77","baby",2290,"-","-",7981,1291,6967,"loud","loud"
"10048843AC",19,2,"List 77","baby",2290,"-","-",7981,1291,6967,"sweet","sweet"
"10048843AC",19,2,"List 77","baby",2290,"-","-",7981,1291,6967,"little","little"
"10048843AC",20,2,"List 77","iron",2297,"-","-",7647,3184,7127,"cast","cast"
"10048843AC",20,2,"List 77","iron",2297,"-","-",7647,3184,7127,"hard","hard"
"10048843AC",20,2,"List 77","iron",2297,"-","-",7647,3184,7127,"element","element"
"10048843AC",21,2,"List 77","portrait",2308,"-","-",5619,1073,4883,"memory","memory"
"10048843AC",21,2,"List 77","portrait",2308,"-","-",5619,1073,4883,"fancy","fancy"
"10048843AC",22,2,"List 77","scallion",2292,"-","-",3671,2804,3086,"food","food"
"10048843AC",23,2,"List 77","pumpkin",2306,"-","-",8720,2652,7337,"fall","fall"
"10048843AC",23,2,"List 77","pumpkin",2306,"-","-",8720,2652,7337,"cold","cold"
"10048843AC",23,2,"List 77","pumpkin",2306,"-","-",8720,2652,7337,"halloween","halloween"
"10048843AC",24,2,"List 77","undercoat",2299,"-","-",4772,1685,4033,"warm","warm"
"10048843AC",25,2,"List 77","bamboo",2295,"-","-",4574,1284,3975,"green","green"
"10048843AC",25,2,"List 77","bamboo",2295,"-","-",4574,1284,3975,"food","food"
"10048843AC",25,2,"List 77","bamboo",2295,"-","-",4574,1284,3975,"leaf","leaf"
"10048843AC",26,2,"List 77","pimento",2304,"-","-",3004,1245,2713,"food","food"
"10048843AC",26,2,"List 77","pimento",2304,"-","-",3004,1245,2713,"cheese","cheese"
"10048843AC",27,2,"List 77","punchbowl",2309,"-","-",5732,1595,5443,"hold","hold"
"10048843AC",27,2,"List 77","punchbowl",2309,"-","-",5732,1595,5443,"liquid","liquid"
"10048843AC",27,2,"List 77","punchbowl",2309,"-","-",5732,1595,5443,"cold","cold"
"10048843AC",28,2,"List 77","nun",2288,"-","-",4275,2890,3840,"religion","religion"
"10048843AC",29,2,"List 77","thumbnail",2285,"-","-",3605,2269,3204,"pointy","pointy"
"10048843AC",30,2,"List 77","homemaker",2286,"-","-",7037,3312,6503,"worker","worker"
"10048843AC",30,2,"List 77","homemaker",2286,"-","-",7037,3312,6503,"food","food"
"10048843AC",30,2,"List 77","homemaker",2286,"-","-",7037,3312,6503,"cook","cook"
"10048843AC",31,2,"List 77","jukebox",2284,"-","-",5123,1252,4722,"sound","sound"
"10048843AC",31,2,"List 77","jukebox",2284,"-","-",5123,1252,4722,"music","music"
"10048843AC",31,2,"List 77","jukebox",2284,"-","-",5123,1252,4722,"dance","dance"
"10048843AC",31,2,"List 77","jukebox",2284,"-","-",5123,1252,4722,"fun","fun"
"10048843AC",32,2,"List 77","bank",2298,"-","-",4274,1036,3110,"money","money"
"10048843AC",32,2,"List 77","bank",2298,"-","-",4274,1036,3110,"loan","loan"
"10048843AC",33,2,"List 77","ketchup",2283,"-","-",5160,1125,4794,"sauce","sauce"
"10048843AC",33,2,"List 77","ketchup",2283,"-","-",5160,1125,4794,"red","red"
"10048843AC",33,2,"List 77","ketchup",2283,"-","-",5160,1125,4794,"tomato","tomato"
"10048843AC",34,2,"List 77","marksman",2311,"-","-",5467,2265,3523,"man","man"
"10048843AC",34,2,"List 77","marksman",2311,"-","-",5467,2265,3523,"worker","worker"
"10048843AC",35,2,"List 77","mop",2293,"-","-",4238,1262,3853,"wet","wet"
"10048843AC",35,2,"List 77","mop",2293,"-","-",4238,1262,3853,"clean","clean"
"10048843AC",36,2,"List 77","bookend",2302,"-","-",2786,1949,2436,"read","read"
"10048843AC",37,2,"List 77","foodstuff",2310,"-","-",3771,1183,3272,"food","food"
"10048843AC",37,2,"List 77","foodstuff",2310,"-","-",3771,1183,3272,"cook","cook"
"10048843AC",38,2,"List 77","crotch",2307,"-","-",4879,3486,4516,"body","body"
"10048843AC",38,2,"List 77","crotch",2307,"-","-",4879,3486,4516,"part","part"
"10048843AC",39,2,"List 77","nail",2287,"-","-",5111,1346,4165,"hold","hold"
"10048843AC",39,2,"List 77","nail",2287,"-","-",5111,1346,4165,"seal","seal"
"10048843AC",40,2,"List 77","shingles",2289,"-","-",2744,1381,2342,"disease","disease"
"10050187SL",11,6,"List 6","whisky",175,"-","-",7188,1670,4754,"drink","drink"
"10050187SL",11,6,"List 6","whisky",175,"-","-",7188,1670,4754,"cook","cook"
"10050187SL",11,6,"List 6","whisky",175,"-","-",7188,1670,4754,"with","with"
"10050187SL",13,6,"List 6","snowfall",167,"-","-",8665,4277,8461,"winter","winter"
"10050187SL",13,6,"List 6","snowfall",167,"-","-",8665,4277,8461,"freeze","freeze"
"10050187SL",14,6,"List 6","scale",176,"-","-",9996,1410,9838,"weight","weight"
"10050187SL",14,6,"List 6","scale",176,"-","-",9996,1410,9838,"size","size"
"10050187SL",16,6,"List 6","crystal",171,"-","-",13846,11232,13622,"tell","tell"
"10050187SL",16,6,"List 6","crystal",171,"-","-",13846,11232,13622,"the","the"
"10050187SL",16,6,"List 6","crystal",171,"-","-",13846,11232,13622,"future","future"
"10050187SL",19,6,"List 6","family",154,"-","-",6054,4529,5946,"loved","loved"
"10050187SL",19,6,"List 6","family",154,"-","-",6054,4529,5946,"ones","ones"
"10050187SL",20,6,"List 6","bird",172,"-","-",7688,1542,7430,"flies","flies"
"10050187SL",20,6,"List 6","bird",172,"-","-",7688,1542,7430,"lands","lands"
"10050187SL",20,6,"List 6","bird",172,"-","-",7688,1542,7430,"chirps","chirps"
"10050187SL",21,6,"List 6","canvass",178,"-","-",8566,3332,8307,"painting","painting"
"10050187SL",21,6,"List 6","canvass",178,"-","-",8566,3332,8307,"art","art"
"10050187SL",22,6,"List 6","tofu",181,"-","-",8589,1359,8399,"food","food"
"10050187SL",22,6,"List 6","tofu",181,"-","-",8589,1359,8399,"meat","meat"
"10050187SL",22,6,"List 6","tofu",181,"-","-",8589,1359,8399,"replacement","replacement"
"10050187SL",23,6,"List 6","screw",153,"-","-",5576,1921,5298,"hold","hold"
"10050187SL",23,6,"List 6","screw",153,"-","-",5576,1921,5298,"things","things"
"10050187SL",23,6,"List 6","screw",153,"-","-",5576,1921,5298,"together","together"
"10050187SL",24,6,"List 6","tinfoil",156,"-","-",11128,2132,10715,"cover","cover"
"10050187SL",24,6,"List 6","tinfoil",156,"-","-",11128,2132,10715,"something","something"
"10050187SL",24,6,"List 6","tinfoil",156,"-","-",11128,2132,10715,"keep","keep"
"10050187SL",24,6,"List 6","tinfoil",156,"-","-",11128,2132,10715,"things","things"
"10050187SL",24,6,"List 6","tinfoil",156,"-","-",11128,2132,10715,"hot","hot"
"10050187SL",25,6,"List 6","desert",161,"-","-",17659,5019,17339,"cake","cake"
"10050187SL",25,6,"List 6","desert",161,"-","-",17659,5019,17339,"cookies","cookies"
"10050187SL",25,6,"List 6","desert",161,"-","-",17659,5019,17339,"ice","ice"
"10050187SL",25,6,"List 6","desert",161,"-","-",17659,5019,17339,"crea","cream"
"10050187SL",26,6,"List 6","harvest",169,"-","-",5476,2463,5296,"fall","fall"
"10050187SL",26,6,"List 6","harvest",169,"-","-",5476,2463,5296,"food","food"
"10050187SL",27,6,"List 6","bicep",152,"-","-",2559,1500,2224,"muscle","muscle"
"10050187SL",28,6,"List 6","tabasco",174,"-","-",3562,1389,3333,"hot","hot"
"10050187SL",28,6,"List 6","tabasco",174,"-","-",3562,1389,3333,"sauce","sauce"
"10050187SL",29,6,"List 6","ginger",179,"-","-",9437,6506,9202,"spice","spice"
"10050187SL",29,6,"List 6","ginger",179,"-","-",9437,6506,9202,"in","in"
"10050187SL",29,6,"List 6","ginger",179,"-","-",9437,6506,9202,"food","food"
"10050187SL",30,6,"List 6","wand",170,"-","-",19081,5322,17921,"curling","curling"
"10050187SL",30,6,"List 6","wand",170,"-","-",19081,5322,17921,"hair","hair"
"10050187SL",30,6,"List 6","wand",170,"-","-",19081,5322,17921,"spraying","spraying"
"10050187SL",31,6,"List 6","blindfold",168,"-","-",7742,2150,7438,"cover","cover"
"10050187SL",31,6,"List 6","blindfold",168,"-","-",7742,2150,7438,"eyes","eyes"
"10050187SL",31,6,"List 6","blindfold",168,"-","-",7742,2150,7438,"keep","keep"
"10050187SL",31,6,"List 6","blindfold",168,"-","-",7742,2150,7438,"a","a"
"10050187SL",31,6,"List 6","blindfold",168,"-","-",7742,2150,7438,"secret","secret"
"10050187SL",32,6,"List 6","berry",180,"-","-",9489,3933,9243,"smoothies","smoothies"
"10050187SL",32,6,"List 6","berry",180,"-","-",9489,3933,9243,"pies","pies"
"10050187SL",32,6,"List 6","berry",180,"-","-",9489,3933,9243,"flavoring","flavoring"
"10050187SL",33,6,"List 6","van",164,"-","-",5140,1538,4672,"drive","drive"
"10050187SL",33,6,"List 6","van",164,"-","-",5140,1538,4672,"hauling","hauling"
"10050187SL",34,6,"List 6","bathe",157,"-","-",4334,1469,3403,"clean","clean"
"10050187SL",36,6,"List 6","balcony",177,"-","-",3484,1294,3164,"stand","stand"
"10050187SL",36,6,"List 6","balcony",177,"-","-",3484,1294,3164,"on","on"
"10050187SL",37,6,"List 6","physician",162,"-","-",7253,3699,6942,"health","health"
"10050187SL",37,6,"List 6","physician",162,"-","-",7253,3699,6942,"examination","examination"
"10050187SL",38,6,"List 6","chinaware",159,"-","-",6753,2333,6399,"decoration","decoration"
"10050187SL",38,6,"List 6","chinaware",159,"-","-",6753,2333,6399,"serving","serving"
"10050187SL",39,6,"List 6","ticket",165,"-","-",7143,1443,7049,"speeding","speeding"
"10050187SL",39,6,"List 6","ticket",165,"-","-",7143,1443,7049,"entering","entering"
"10050187SL",39,6,"List 6","ticket",165,"-","-",7143,1443,7049,"an","an"
"10050187SL",39,6,"List 6","ticket",165,"-","-",7143,1443,7049,"event","event"
"10077702_ela",11,25,"List 50","pudding",1497,"-","-",8479,3535,6290,"eating","eating"
"10077702_ela",11,25,"List 50","pudding",1497,"-","-",8479,3535,6290,"dessert","dessert"
"10077702_ela",12,25,"List 50","celery",1485,"-","-",20077,2164,19056,"stuffing","stuffing"
"10077702_ela",12,25,"List 50","celery",1485,"-","-",20077,2164,19056,"eating","eating"
"10077702_ela",12,25,"List 50","celery",1485,"-","-",20077,2164,19056,"cooking","cooking"
"10077702_ela",13,25,"List 50","councilwoman",1489,"-","-",19913,2879,10615,"debates","debates"
"10077702_ela",13,25,"List 50","councilwoman",1489,"-","-",19913,2879,10615,"representation","representation"
"10077702_ela",14,25,"List 50","geranium",1472,"-","-",19936,2504,16840,"planting","planting"
"10077702_ela",14,25,"List 50","geranium",1472,"-","-",19936,2504,16840,"herbology","herpetology"
"10077702_ela",14,25,"List 50","geranium",1472,"-","-",19936,2504,16840,"botany","botany"
"10077702_ela",15,25,"List 50","pineapple",1478,"-","-",19834,2024,18818,"pina","piney"
"10077702_ela",15,25,"List 50","pineapple",1478,"-","-",19834,2024,18818,"colada","cola"
"10077702_ela",15,25,"List 50","pineapple",1478,"-","-",19834,2024,18818,"cough","cough"
"10077702_ela",15,25,"List 50","pineapple",1478,"-","-",19834,2024,18818,"remedy","remedy"
"10077702_ela",15,25,"List 50","pineapple",1478,"-","-",19834,2024,18818,"smoothie","smoothie"
"10077702_ela",15,25,"List 50","pineapple",1478,"-","-",19834,2024,18818,"desserts","desserts"
"10077702_ela",16,25,"List 50","nanny",1481,"-","-",13994,2407,12820,"cleaning","cleaning"
"10077702_ela",16,25,"List 50","nanny",1481,"-","-",13994,2407,12820,"protect","protect"
"10077702_ela",16,25,"List 50","nanny",1481,"-","-",13994,2407,12820,"kids","kids"
"10077702_ela",16,25,"List 50","nanny",1481,"-","-",13994,2407,12820,"watch","watch"
"10077702_ela",16,25,"List 50","nanny",1481,"-","-",13994,2407,12820,"children","children"
"10077702_ela",17,25,"List 50","houseboy",1501,"-","-",13822,2244,8445,"cleaning","cleaning"
"10077702_ela",17,25,"List 50","houseboy",1501,"-","-",13822,2244,8445,"mowing","mowing"
"10077702_ela",17,25,"List 50","houseboy",1501,"-","-",13822,2244,8445,"the","the"
"10077702_ela",17,25,"List 50","houseboy",1501,"-","-",13822,2244,8445,"lawn","lawn"
"10077702_ela",18,25,"List 50","corset",1494,"-","-",20056,2406,18739,"fashion","fashion"
"10077702_ela",18,25,"List 50","corset",1494,"-","-",20056,2406,18739,"lingerie","lingerie"
"10077702_ela",18,25,"List 50","corset",1494,"-","-",20056,2406,18739,"waist","waist"
"10077702_ela",18,25,"List 50","corset",1494,"-","-",20056,2406,18739,"training","training"
"10077702_ela",19,25,"List 50","necktie",1483,"-","-",11261,2593,10129,"weddings","weddings"
"10077702_ela",19,25,"List 50","necktie",1483,"-","-",11261,2593,10129,"prom","prom"
"10077702_ela",19,25,"List 50","necktie",1483,"-","-",11261,2593,10129,"formals","formals"
"10077702_ela",19,25,"List 50","necktie",1483,"-","-",11261,2593,10129,"photography","photography"
"10077702_ela",20,25,"List 50","orange",1490,"-","-",11622,1945,8815,"juice","juice"
"10077702_ela",20,25,"List 50","orange",1490,"-","-",11622,1945,8815,"peeling","peeling"
"10077702_ela",21,25,"List 50","shallot",1480,"-","-",4281,2205,3219,"cooking","cooking"
"10077702_ela",22,25,"List 50","cliff",1495,"-","-",14213,3095,12151,"diving","diving"
"10077702_ela",22,25,"List 50","cliff",1495,"-","-",14213,3095,12151,"hiking","hiking"
"10077702_ela",22,25,"List 50","cliff",1495,"-","-",14213,3095,12151,"climbing","climbing"
"10077702_ela",23,25,"List 50","coin",1486,"-","-",10584,1592,9559,"payments","payments"
"10077702_ela",23,25,"List 50","coin",1486,"-","-",10584,1592,9559,"wishes","wishes"
"10077702_ela",23,25,"List 50","coin",1486,"-","-",10584,1592,9559,"bets","bets"
"10077702_ela",24,25,"List 50","wildcat",1475,"-","-",9974,7650,8643,"hunting","hunting"
"10077702_ela",25,25,"List 50","pullover",1477,"-","-",21695,1829,19715,"warmth","warmth"
"10077702_ela",25,25,"List 50","pullover",1477,"-","-",21695,1829,19715,"fashion","fashion"
"10077702_ela",25,25,"List 50","pullover",1477,"-","-",21695,1829,19715,"comfortability","comfort ability"
"10077702_ela",26,25,"List 50","shavings",1499,"-","-",8020,2959,5329,"sawdust","sawdust"
"10077702_ela",27,25,"List 50","cent",1474,"-","-",6392,2765,5355,"payment","payment"
"10077702_ela",27,25,"List 50","cent",1474,"-","-",6392,2765,5355,"tip","tip"
"10077702_ela",28,25,"List 50","saddle",1500,"-","-",6744,1439,4926,"horseback","horseback"
"10077702_ela",28,25,"List 50","saddle",1500,"-","-",6744,1439,4926,"riding","riding"
"10077702_ela",29,25,"List 50","potato",1484,"-","-",12325,1571,11534,"cooking","cooking"
"10077702_ela",29,25,"List 50","potato",1484,"-","-",12325,1571,11534,"frying","frying"
"10077702_ela",29,25,"List 50","potato",1484,"-","-",12325,1571,11534,"baking","baking"
"10077702_ela",29,25,"List 50","potato",1484,"-","-",12325,1571,11534,"eating","eating"
"10077702_ela",30,25,"List 50","Ladder",1498,"-","-",9668,1621,8784,"climbing","climbing"
"10077702_ela",30,25,"List 50","Ladder",1498,"-","-",9668,1621,8784,"reaching","reaching"
"10077702_ela",30,25,"List 50","Ladder",1498,"-","-",9668,1621,8784,"construction","construction"
"10077702_ela",31,25,"List 50","drywall",1482,"-","-",10140,3691,9309,"construction","construction"
"10077702_ela",31,25,"List 50","drywall",1482,"-","-",10140,3691,9309,"repair","repair"
"10077702_ela",31,25,"List 50","drywall",1482,"-","-",10140,3691,9309,"building","building"
"10077702_ela",32,25,"List 50","poultry",1488,"-","-",10946,2563,9578,"cooking","cooking"
"10077702_ela",32,25,"List 50","poultry",1488,"-","-",10946,2563,9578,"eating","eating"
"10077702_ela",33,25,"List 50","muzzle",1491,"-","-",10592,1959,4368,"restraint","restraint"
"10077702_ela",35,25,"List 50","sombrero",1493,"-","-",6349,2074,5442,"hat","hat"
"10077702_ela",35,25,"List 50","sombrero",1493,"-","-",6349,2074,5442,"decoration","decoration"
"10077702_ela",36,25,"List 50","merchant",1479,"-","-",7685,2385,6259,"seller","seller"
"10077702_ela",36,25,"List 50","merchant",1479,"-","-",7685,2385,6259,"persuasion","persuasion"
"10077702_ela",37,25,"List 50","metal",1492,"-","-",19438,2025,18632,"welding","welding"
"10077702_ela",37,25,"List 50","metal",1492,"-","-",19438,2025,18632,"building","building"
"10077702_ela",37,25,"List 50","metal",1492,"-","-",19438,2025,18632,"construction","construction"
"10077702_ela",37,25,"List 50","metal",1492,"-","-",19438,2025,18632,"jewelry","jewelry"
"10077702_ela",38,25,"List 50","needle",1496,"-","-",16103,3477,14893,"blood","blood"
"10077702_ela",38,25,"List 50","needle",1496,"-","-",16103,3477,14893,"drawing","drawing"
"10077702_ela",38,25,"List 50","needle",1496,"-","-",16103,3477,14893,"iv","iv"
"10077702_ela",38,25,"List 50","needle",1496,"-","-",16103,3477,14893,"medication","medication"
"10077702_ela",40,25,"List 50","joystick",1473,"-","-",6930,4449,6122,"video","video"
"10077702_ela",40,25,"List 50","joystick",1473,"-","-",6930,4449,6122,"games","games"
"10085738",11,18,"List 68","violinist",2035,"-","-",18294,7619,16875,"in","in"
"10085738",11,18,"List 68","violinist",2035,"-","-",18294,7619,16875,"orchestra","orchestra"
"10085738",11,18,"List 68","violinist",2035,"-","-",18294,7619,16875,"in","in"
"10085738",11,18,"List 68","violinist",2035,"-","-",18294,7619,16875,"wedding","wedding"
"10085738",12,18,"List 68","chickenfeed",2025,"-","-",5244,2039,4904,"feed","feed"
"10085738",12,18,"List 68","chickenfeed",2025,"-","-",5244,2039,4904,"chickens","chickens"
"10085738",13,18,"List 68","sketchpad",2016,"-","-",6241,2309,5923,"draw","draw"
"10085738",13,18,"List 68","sketchpad",2016,"-","-",6241,2309,5923,"write","write"
"10085738",13,18,"List 68","sketchpad",2016,"-","-",6241,2309,5923,"notes","notes"
"10085738",14,18,"List 68","chisel",2013,"-","-",9109,2801,8895,"sculptures","sculptures"
"10085738",14,18,"List 68","chisel",2013,"-","-",9109,2801,8895,"buildings","buildings"
"10085738",15,18,"List 68","umbrella",2020,"-","-",6131,2401,5553,"rain","rain"
"10085738",15,18,"List 68","umbrella",2020,"-","-",6131,2401,5553,"sun","sun"
"10085738",16,18,"List 68","whistle",2015,"-","-",9081,1499,8703,"stop","stop"
"10085738",16,18,"List 68","whistle",2015,"-","-",9081,1499,8703,"someone","someone"
"10085738",16,18,"List 68","whistle",2015,"-","-",9081,1499,8703,"stop","stop"
"10085738",16,18,"List 68","whistle",2015,"-","-",9081,1499,8703,"a","a"
"10085738",16,18,"List 68","whistle",2015,"-","-",9081,1499,8703,"game","game"
"10085738",17,18,"List 68","supper",2014,"-","-",4870,2220,4550,"dinner","dinner"
"10085738",17,18,"List 68","supper",2014,"-","-",4870,2220,4550,"eat","eat"
"10085738",18,18,"List 68","questionnaire",2012,"-","-",13974,2474,13732,"ask","ask"
"10085738",18,18,"List 68","questionnaire",2012,"-","-",13974,2474,13732,"questions","questions"
"10085738",18,18,"List 68","questionnaire",2012,"-","-",13974,2474,13732,"learn","learn"
"10085738",18,18,"List 68","questionnaire",2012,"-","-",13974,2474,13732,"about","about"
"10085738",18,18,"List 68","questionnaire",2012,"-","-",13974,2474,13732,"people","people"
"10085738",19,18,"List 68","teaspoon",2041,"-","-",5002,1609,4611,"baking","baking"
"10085738",19,18,"List 68","teaspoon",2041,"-","-",5002,1609,4611,"eating","eating"
"10085738",20,18,"List 68","stitching",2032,"-","-",13265,4008,12947,"a","a"
"10085738",20,18,"List 68","stitching",2032,"-","-",13265,4008,12947,"wound","wound"
"10085738",20,18,"List 68","stitching",2032,"-","-",13265,4008,12947,"clothes","clothes"
"10085738",20,18,"List 68","stitching",2032,"-","-",13265,4008,12947,"making","making"
"10085738",20,18,"List 68","stitching",2032,"-","-",13265,4008,12947,"blankets","blankets"
"10085738",22,18,"List 68","primates",2036,"-","-",7225,6056,6956,"animals","animals"
"10085738",23,18,"List 68","slacks",2026,"-","-",2762,1609,2323,"pants","pants"
"10085738",24,18,"List 68","staircase",2023,"-","-",11258,1838,11049,"walk","walk"
"10085738",24,18,"List 68","staircase",2023,"-","-",11258,1838,11049,"up","up"
"10085738",24,18,"List 68","staircase",2023,"-","-",11258,1838,11049,"or","or"
"10085738",24,18,"List 68","staircase",2023,"-","-",11258,1838,11049,"down","down"
"10085738",24,18,"List 68","staircase",2023,"-","-",11258,1838,11049,"decorate","decorate"
"10085738",26,18,"List 68","dorm",2037,"-","-",3180,2162,2731,"live","live"
"10085738",27,18,"List 68","slipknot",2024,"-","-",10825,4462,10630,"so","so"
"10085738",27,18,"List 68","slipknot",2024,"-","-",10825,4462,10630,"you","you"
"10085738",27,18,"List 68","slipknot",2024,"-","-",10825,4462,10630,"can","can"
"10085738",27,18,"List 68","slipknot",2024,"-","-",10825,4462,10630,"easily","easily"
"10085738",27,18,"List 68","slipknot",2024,"-","-",10825,4462,10630,"escape","escape"
"10085738",28,18,"List 68","servant",2038,"-","-",8399,1879,8257,"worker","worker"
"10085738",28,18,"List 68","servant",2038,"-","-",8399,1879,8257,"cleans","cleans"
"10085738",29,18,"List 68","winch",2021,"-","-",5848,3094,5582,"not","not"
"10085738",29,18,"List 68","winch",2021,"-","-",5848,3094,5582,"nice","nice"
"10085738",30,18,"List 68","pig",2031,"-","-",13908,9330,13166,"food","food"
"10085738",30,18,"List 68","pig",2031,"-","-",13908,9330,13166,"hunting","hunting"
"10085738",32,18,"List 68","toothbrush",2040,"-","-",9202,1675,8915,"brush","brush"
"10085738",32,18,"List 68","toothbrush",2040,"-","-",9202,1675,8915,"teeth","teeth"
"10085738",32,18,"List 68","toothbrush",2040,"-","-",9202,1675,8915,"clean","clean"
"10085738",32,18,"List 68","toothbrush",2040,"-","-",9202,1675,8915,"grout","grout"
"10085738",33,18,"List 68","wiring",2018,"-","-",19761,5010,19322,"in","in"
"10085738",33,18,"List 68","wiring",2018,"-","-",19761,5010,19322,"walls","walls"
"10085738",33,18,"List 68","wiring",2018,"-","-",19761,5010,19322,"in","in"
"10085738",33,18,"List 68","wiring",2018,"-","-",19761,5010,19322,"tvs","tv"
"10085738",34,18,"List 68","zucchini",2027,"-","-",3591,2883,3264,"eat","eat"
"10085738",35,18,"List 68","guy",2033,"-","-",19311,13500,19123,"picking","picking"
"10085738",35,18,"List 68","guy",2033,"-","-",19311,13500,19123,"up","up"
"10085738",35,18,"List 68","guy",2033,"-","-",19311,13500,19123,"heavy","heavy"
"10085738",35,18,"List 68","guy",2033,"-","-",19311,13500,19123,"stuff","stuff"
"10085738",36,18,"List 68","ottoman",2028,"-","-",5554,3278,5256,"prop","prop"
"10085738",36,18,"List 68","ottoman",2028,"-","-",5554,3278,5256,"legs","legs"
"10085738",36,18,"List 68","ottoman",2028,"-","-",5554,3278,5256,"up","up"
"10085738",37,18,"List 68","button",2034,"-","-",6682,1317,6450,"push","push"
"10085738",37,18,"List 68","button",2034,"-","-",6682,1317,6450,"fasten","fasten"
"10085738",37,18,"List 68","button",2034,"-","-",6682,1317,6450,"it","it"
"10085738",38,18,"List 68","businessman",2022,"-","-",20053,13953,19833,"help","help"
"10085738",38,18,"List 68","businessman",2022,"-","-",20053,13953,19833,"with","with"
"10085738",38,18,"List 68","businessman",2022,"-","-",20053,13953,19833,"paperwork","paperwork"
"10085738",39,18,"List 68","nursery",2039,"-","-",4838,3608,4594,"for","for"
"10085738",39,18,"List 68","nursery",2039,"-","-",4838,3608,4594,"baby","baby"
"10085738",40,18,"List 68","bellman",2029,"-","-",10941,1562,10731,"for","for"
"10085738",40,18,"List 68","bellman",2029,"-","-",10941,1562,10731,"luggage","luggage"
"10085738",40,18,"List 68","bellman",2029,"-","-",10941,1562,10731,"and","and"
"10085738",40,18,"List 68","bellman",2029,"-","-",10941,1562,10731,"directions","directions"
"10086350JAM",11,25,"List 100","breadboard",2988,"-","-",40620,7195,34356,"hold","hold"
"10086350JAM",11,25,"List 100","breadboard",2988,"-","-",40620,7195,34356,"serve","serve"
"10086350JAM",11,25,"List 100","breadboard",2988,"-","-",40620,7195,34356,"wash","wash"
"10086350JAM",11,25,"List 100","breadboard",2988,"-","-",40620,7195,34356,"make","make"
"10086350JAM",11,25,"List 100","breadboard",2988,"-","-",40620,7195,34356,"sand","sand"
"10086350JAM",13,25,"List 100","debris",2972,"-","-",31304,5525,27578,"topping","topping"
"10086350JAM",13,25,"List 100","debris",2972,"-","-",31304,5525,27578,"cleanup","cleanup"
"10086350JAM",13,25,"List 100","debris",2972,"-","-",31304,5525,27578,"distribution","distribution"
"10086350JAM",14,25,"List 100","badminton",3000,"-","-",39692,3252,38883,"play","play"
"10086350JAM",14,25,"List 100","badminton",3000,"-","-",39692,3252,38883,"serve","serve"
"10086350JAM",14,25,"List 100","badminton",3000,"-","-",39692,3252,38883,"setup","setup"
"10086350JAM",14,25,"List 100","badminton",3000,"-","-",39692,3252,38883,"score","score"
"10086350JAM",14,25,"List 100","badminton",3000,"-","-",39692,3252,38883,"watch","watch"
"10086350JAM",14,25,"List 100","badminton",3000,"-","-",39692,3252,38883,"purchase","purchase"
"10086350JAM",14,25,"List 100","badminton",3000,"-","-",39692,3252,38883,"record","record"
"10086350JAM",15,25,"List 100","topaz",2993,"-","-",27723,2985,26345,"wear","wear"
"10086350JAM",15,25,"List 100","topaz",2993,"-","-",27723,2985,26345,"show","show"
"10086350JAM",15,25,"List 100","topaz",2993,"-","-",27723,2985,26345,"off","off"
"10086350JAM",15,25,"List 100","topaz",2993,"-","-",27723,2985,26345,"make","make"
"10086350JAM",15,25,"List 100","topaz",2993,"-","-",27723,2985,26345,"jewelry","jewelry"
"10086350JAM",15,25,"List 100","topaz",2993,"-","-",27723,2985,26345,"sell","sell"
"10086350JAM",15,25,"List 100","topaz",2993,"-","-",27723,2985,26345,"buy","buy"
"10086350JAM",16,25,"List 100","knickers",2978,"-","-",29046,2795,27915,"wear","wear"
"10086350JAM",16,25,"List 100","knickers",2978,"-","-",29046,2795,27915,"take","take"
"10086350JAM",16,25,"List 100","knickers",2978,"-","-",29046,2795,27915,"off","off"
"10086350JAM",16,25,"List 100","knickers",2978,"-","-",29046,2795,27915,"put","put"
"10086350JAM",16,25,"List 100","knickers",2978,"-","-",29046,2795,27915,"on","on"
"10086350JAM",16,25,"List 100","knickers",2978,"-","-",29046,2795,27915,"throw","throw"
"10086350JAM",16,25,"List 100","knickers",2978,"-","-",29046,2795,27915,"wash","wash"
"10086350JAM",16,25,"List 100","knickers",2978,"-","-",29046,2795,27915,"dirty","dirty"
"10086350JAM",17,25,"List 100","bowling",2981,"-","-",43051,2944,41308,"play","play"
"10086350JAM",17,25,"List 100","bowling",2981,"-","-",43051,2944,41308,"watch","watch"
"10086350JAM",17,25,"List 100","bowling",2981,"-","-",43051,2944,41308,"score","score"
"10086350JAM",17,25,"List 100","bowling",2981,"-","-",43051,2944,41308,"loose","loose"
"10086350JAM",17,25,"List 100","bowling",2981,"-","-",43051,2944,41308,"win","win"
"10086350JAM",17,25,"List 100","bowling",2981,"-","-",43051,2944,41308,"practice","practice"
"10086350JAM",18,25,"List 100","greenhouse",2976,"-","-",36967,2746,35763,"plant","plant"
"10086350JAM",18,25,"List 100","greenhouse",2976,"-","-",36967,2746,35763,"set","set"
"10086350JAM",18,25,"List 100","greenhouse",2976,"-","-",36967,2746,35763,"up","up"
"10086350JAM",18,25,"List 100","greenhouse",2976,"-","-",36967,2746,35763,"maintain","maintain"
"10086350JAM",18,25,"List 100","greenhouse",2976,"-","-",36967,2746,35763,"organize","organize"
"10086350JAM",18,25,"List 100","greenhouse",2976,"-","-",36967,2746,35763,"clean","clean"
"10086350JAM",18,25,"List 100","greenhouse",2976,"-","-",36967,2746,35763,"up","up"
"10086350JAM",18,25,"List 100","greenhouse",2976,"-","-",36967,2746,35763,"regulate","regulate"
"10086350JAM",18,25,"List 100","greenhouse",2976,"-","-",36967,2746,35763,"sell","sell"
"10086350JAM",18,25,"List 100","greenhouse",2976,"-","-",36967,2746,35763,"buy","buy"
"10086350JAM",19,25,"List 100","wallboard",2979,"-","-",43033,3443,40209,"write","write"
"10086350JAM",19,25,"List 100","wallboard",2979,"-","-",43033,3443,40209,"on","on"
"10086350JAM",19,25,"List 100","wallboard",2979,"-","-",43033,3443,40209,"throw","throw"
"10086350JAM",19,25,"List 100","wallboard",2979,"-","-",43033,3443,40209,"out","out"
"10086350JAM",19,25,"List 100","wallboard",2979,"-","-",43033,3443,40209,"put","put"
"10086350JAM",19,25,"List 100","wallboard",2979,"-","-",43033,3443,40209,"up","up"
"10086350JAM",19,25,"List 100","wallboard",2979,"-","-",43033,3443,40209,"pin","pin"
"10086350JAM",19,25,"List 100","wallboard",2979,"-","-",43033,3443,40209,"display","display"
"10086350JAM",19,25,"List 100","wallboard",2979,"-","-",43033,3443,40209,"hide","hide"
"10086350JAM",19,25,"List 100","wallboard",2979,"-","-",43033,3443,40209,"organize","organize"
"10086350JAM",20,25,"List 100","school",2980,"-","-",48187,2725,47304,"attend","attend"
"10086350JAM",20,25,"List 100","school",2980,"-","-",48187,2725,47304,"build","build"
"10086350JAM",20,25,"List 100","school",2980,"-","-",48187,2725,47304,"create","create"
"10086350JAM",20,25,"List 100","school",2980,"-","-",48187,2725,47304,"despise","despise"
"10086350JAM",20,25,"List 100","school",2980,"-","-",48187,2725,47304,"cherish","cherish"
"10086350JAM",20,25,"List 100","school",2980,"-","-",48187,2725,47304,"go","go"
"10086350JAM",20,25,"List 100","school",2980,"-","-",48187,2725,47304,"to","to"
"10086350JAM",20,25,"List 100","school",2980,"-","-",48187,2725,47304,"leave","leave"
"10086350JAM",20,25,"List 100","school",2980,"-","-",48187,2725,47304,"from","from"
"10086350JAM",20,25,"List 100","school",2980,"-","-",48187,2725,47304,"run","run"
"10086350JAM",20,25,"List 100","school",2980,"-","-",48187,2725,47304,"late","late"
"10086350JAM",20,25,"List 100","school",2980,"-","-",48187,2725,47304,"to","to"
"10086350JAM",20,25,"List 100","school",2980,"-","-",48187,2725,47304,"early","early"
"10086350JAM",20,25,"List 100","school",2980,"-","-",48187,2725,47304,"to","to"
"10086350JAM",20,25,"List 100","school",2980,"-","-",48187,2725,47304,"show","show"
"10086350JAM",20,25,"List 100","school",2980,"-","-",48187,2725,47304,"up","up"
"10086350JAM",21,25,"List 100","waffle",2984,"-","-",40471,2980,38027,"eat","eat"
"10086350JAM",21,25,"List 100","waffle",2984,"-","-",40471,2980,38027,"make","make"
"10086350JAM",21,25,"List 100","waffle",2984,"-","-",40471,2980,38027,"serve","serve"
"10086350JAM",21,25,"List 100","waffle",2984,"-","-",40471,2980,38027,"order","order"
"10086350JAM",21,25,"List 100","waffle",2984,"-","-",40471,2980,38027,"drown","drown"
"10086350JAM",21,25,"List 100","waffle",2984,"-","-",40471,2980,38027,"in","in"
"10086350JAM",21,25,"List 100","waffle",2984,"-","-",40471,2980,38027,"syrup","syrup"
"10086350JAM",21,25,"List 100","waffle",2984,"-","-",40471,2980,38027,"buttered","buttered"
"10086350JAM",22,25,"List 100","Fern",2977,"-","-",49919,4304,48504,"watch","watch"
"10086350JAM",22,25,"List 100","Fern",2977,"-","-",49919,4304,48504,"tend","tend"
"10086350JAM",22,25,"List 100","Fern",2977,"-","-",49919,4304,48504,"to","to"
"10086350JAM",22,25,"List 100","Fern",2977,"-","-",49919,4304,48504,"keep","keep"
"10086350JAM",22,25,"List 100","Fern",2977,"-","-",49919,4304,48504,"water","water"
"10086350JAM",22,25,"List 100","Fern",2977,"-","-",49919,4304,48504,"dry","dry"
"10086350JAM",22,25,"List 100","Fern",2977,"-","-",49919,4304,48504,"out","out"
"10086350JAM",22,25,"List 100","Fern",2977,"-","-",49919,4304,48504,"rot","rot"
"10086350JAM",22,25,"List 100","Fern",2977,"-","-",49919,4304,48504,"drown","drown"
"10086350JAM",22,25,"List 100","Fern",2977,"-","-",49919,4304,48504,"cut","cut"
"10086350JAM",22,25,"List 100","Fern",2977,"-","-",49919,4304,48504,"splice","splice"
"10086350JAM",23,25,"List 100","fieldstone",2991,"-","-",18899,4665,17518,"watch","watch"
"10086350JAM",23,25,"List 100","fieldstone",2991,"-","-",18899,4665,17518,"have","have"
"10086350JAM",23,25,"List 100","fieldstone",2991,"-","-",18899,4665,17518,"take","take"
"10086350JAM",23,25,"List 100","fieldstone",2991,"-","-",18899,4665,17518,"give","give"
"10086350JAM",23,25,"List 100","fieldstone",2991,"-","-",18899,4665,17518,"study","study"
"10086350JAM",24,25,"List 100","waist",2998,"-","-",61299,2335,59207,"train","train"
"10086350JAM",24,25,"List 100","waist",2998,"-","-",61299,2335,59207,"bend","bend"
"10086350JAM",24,25,"List 100","waist",2998,"-","-",61299,2335,59207,"sinch","sins"
"10086350JAM",24,25,"List 100","waist",2998,"-","-",61299,2335,59207,"tighten","tighten"
"10086350JAM",24,25,"List 100","waist",2998,"-","-",61299,2335,59207,"enhance","enhance"
"10086350JAM",24,25,"List 100","waist",2998,"-","-",61299,2335,59207,"highlight","highlight"
"10086350JAM",24,25,"List 100","waist",2998,"-","-",61299,2335,59207,"hide","hide"
"10086350JAM",24,25,"List 100","waist",2998,"-","-",61299,2335,59207,"slim","slim"
"10086350JAM",24,25,"List 100","waist",2998,"-","-",61299,2335,59207,"down","down"
"10086350JAM",25,25,"List 100","centipede",2987,"-","-",28757,2584,26782,"watch","watch"
"10086350JAM",25,25,"List 100","centipede",2987,"-","-",28757,2584,26782,"grow","grow"
"10086350JAM",25,25,"List 100","centipede",2987,"-","-",28757,2584,26782,"hatch","hatch"
"10086350JAM",25,25,"List 100","centipede",2987,"-","-",28757,2584,26782,"kill","kill"
"10086350JAM",25,25,"List 100","centipede",2987,"-","-",28757,2584,26782,"study","study"
"10086350JAM",25,25,"List 100","centipede",2987,"-","-",28757,2584,26782,"draw","draw"
"10086350JAM",25,25,"List 100","centipede",2987,"-","-",28757,2584,26782,"paint","paint"
"10086350JAM",26,25,"List 100","earplugs",2997,"-","-",31720,3447,28672,"listen","listen"
"10086350JAM",26,25,"List 100","earplugs",2997,"-","-",31720,3447,28672,"clean","clean"
"10086350JAM",26,25,"List 100","earplugs",2997,"-","-",31720,3447,28672,"charge","charge"
"10086350JAM",26,25,"List 100","earplugs",2997,"-","-",31720,3447,28672,"sync","sync"
"10086350JAM",26,25,"List 100","earplugs",2997,"-","-",31720,3447,28672,"give","give"
"10086350JAM",26,25,"List 100","earplugs",2997,"-","-",31720,3447,28672,"take","take"
"10086350JAM",26,25,"List 100","earplugs",2997,"-","-",31720,3447,28672,"recieve","receive"
"10086350JAM",27,25,"List 100","wrist",2994,"-","-",36595,2580,35608,"bend","bend"
"10086350JAM",27,25,"List 100","wrist",2994,"-","-",36595,2580,35608,"twist","twist"
"10086350JAM",27,25,"List 100","wrist",2994,"-","-",36595,2580,35608,"roll","roll"
"10086350JAM",27,25,"List 100","wrist",2994,"-","-",36595,2580,35608,"flick","flick"
"10086350JAM",27,25,"List 100","wrist",2994,"-","-",36595,2580,35608,"support","support"
"10086350JAM",27,25,"List 100","wrist",2994,"-","-",36595,2580,35608,"damage","damage"
"10086350JAM",27,25,"List 100","wrist",2994,"-","-",36595,2580,35608,"injur","injure"
"10086350JAM",27,25,"List 100","wrist",2994,"-","-",36595,2580,35608,"tattoo","tattoo"
"10086350JAM",28,25,"List 100","respirator",2996,"-","-",29382,2791,28612,"wear","wear"
"10086350JAM",28,25,"List 100","respirator",2996,"-","-",29382,2791,28612,"buy","buy"
"10086350JAM",28,25,"List 100","respirator",2996,"-","-",29382,2791,28612,"own","own"
"10086350JAM",28,25,"List 100","respirator",2996,"-","-",29382,2791,28612,"sell","sell"
"10086350JAM",28,25,"List 100","respirator",2996,"-","-",29382,2791,28612,"apply","apply"
"10086350JAM",28,25,"List 100","respirator",2996,"-","-",29382,2791,28612,"remove","remove"
"10086350JAM",28,25,"List 100","respirator",2996,"-","-",29382,2791,28612,"clean","clean"
"10086350JAM",28,25,"List 100","respirator",2996,"-","-",29382,2791,28612,"use","use"
"10086350JAM",29,25,"List 100","deck",2989,"-","-",45458,3337,39673,"walk","walk"
"10086350JAM",29,25,"List 100","deck",2989,"-","-",45458,3337,39673,"on","on"
"10086350JAM",29,25,"List 100","deck",2989,"-","-",45458,3337,39673,"sit","sit"
"10086350JAM",29,25,"List 100","deck",2989,"-","-",45458,3337,39673,"on","on"
"10086350JAM",29,25,"List 100","deck",2989,"-","-",45458,3337,39673,"stand","stand"
"10086350JAM",29,25,"List 100","deck",2989,"-","-",45458,3337,39673,"on","on"
"10086350JAM",29,25,"List 100","deck",2989,"-","-",45458,3337,39673,"jump","jump"
"10086350JAM",29,25,"List 100","deck",2989,"-","-",45458,3337,39673,"on","on"
"10086350JAM",29,25,"List 100","deck",2989,"-","-",45458,3337,39673,"paint","paint"
"10086350JAM",29,25,"List 100","deck",2989,"-","-",45458,3337,39673,"stain","stain"
"10086350JAM",29,25,"List 100","deck",2989,"-","-",45458,3337,39673,"admire","admire"
"10086350JAM",29,25,"List 100","deck",2989,"-","-",45458,3337,39673,"build","build"
"10086350JAM",29,25,"List 100","deck",2989,"-","-",45458,3337,39673,"demolish","demolish"
"10086350JAM",29,25,"List 100","deck",2989,"-","-",45458,3337,39673,"burn","burn"
"10086350JAM",30,25,"List 100","dish",2982,"-","-",38280,4312,37447,"serve","serve"
"10086350JAM",30,25,"List 100","dish",2982,"-","-",38280,4312,37447,"eat","eat"
"10086350JAM",30,25,"List 100","dish",2982,"-","-",38280,4312,37447,"off","off"
"10086350JAM",30,25,"List 100","dish",2982,"-","-",38280,4312,37447,"of","of"
"10086350JAM",30,25,"List 100","dish",2982,"-","-",38280,4312,37447,"wash","wash"
"10086350JAM",30,25,"List 100","dish",2982,"-","-",38280,4312,37447,"dirty","dirty"
"10086350JAM",30,25,"List 100","dish",2982,"-","-",38280,4312,37447,"use","use"
"10086350JAM",30,25,"List 100","dish",2982,"-","-",38280,4312,37447,"throw","throw"
"10086350JAM",30,25,"List 100","dish",2982,"-","-",38280,4312,37447,"catch","catch"
"10086350JAM",30,25,"List 100","dish",2982,"-","-",38280,4312,37447,"break","break"
"10086350JAM",30,25,"List 100","dish",2982,"-","-",38280,4312,37447,"buy","buy"
"10086350JAM",30,25,"List 100","dish",2982,"-","-",38280,4312,37447,"sell","sell"
"10086350JAM",30,25,"List 100","dish",2982,"-","-",38280,4312,37447,"collect","collect"
"10086350JAM",31,25,"List 100","guardrail",2992,"-","-",50058,4084,48797,"paint","paint"
"10086350JAM",31,25,"List 100","guardrail",2992,"-","-",50058,4084,48797,"stain","stain"
"10086350JAM",31,25,"List 100","guardrail",2992,"-","-",50058,4084,48797,"decorate","decorate"
"10086350JAM",31,25,"List 100","guardrail",2992,"-","-",50058,4084,48797,"hold","hold"
"10086350JAM",31,25,"List 100","guardrail",2992,"-","-",50058,4084,48797,"use","use"
"10086350JAM",31,25,"List 100","guardrail",2992,"-","-",50058,4084,48797,"support","support"
"10086350JAM",31,25,"List 100","guardrail",2992,"-","-",50058,4084,48797,"destroy","destroy"
"10086350JAM",32,25,"List 100","dye",2973,"-","-",49964,4396,45091,"use","use"
"10086350JAM",32,25,"List 100","dye",2973,"-","-",49964,4396,45091,"blend","blend"
"10086350JAM",32,25,"List 100","dye",2973,"-","-",49964,4396,45091,"apply","apply"
"10086350JAM",32,25,"List 100","dye",2973,"-","-",49964,4396,45091,"recieve","receive"
"10086350JAM",32,25,"List 100","dye",2973,"-","-",49964,4396,45091,"give","give"
"10086350JAM",32,25,"List 100","dye",2973,"-","-",49964,4396,45091,"sell","sell"
"10086350JAM",32,25,"List 100","dye",2973,"-","-",49964,4396,45091,"buy","buy"
"10086350JAM",32,25,"List 100","dye",2973,"-","-",49964,4396,45091,"gift","gift"
"10086350JAM",32,25,"List 100","dye",2973,"-","-",49964,4396,45091,"wash","wash"
"10086350JAM",32,25,"List 100","dye",2973,"-","-",49964,4396,45091,"out","out"
"10086350JAM",33,25,"List 100","blowgun",2986,"-","-",20595,3851,19119,"own","own"
"10086350JAM",33,25,"List 100","blowgun",2986,"-","-",20595,3851,19119,"use","use"
"10086350JAM",33,25,"List 100","blowgun",2986,"-","-",20595,3851,19119,"buy","buy"
"10086350JAM",33,25,"List 100","blowgun",2986,"-","-",20595,3851,19119,"sell","sell"
"10086350JAM",33,25,"List 100","blowgun",2986,"-","-",20595,3851,19119,"draw","draw"
"10086350JAM",34,25,"List 100","pulley",2974,"-","-",31049,2596,24849,"use","use"
"10086350JAM",34,25,"List 100","pulley",2974,"-","-",31049,2596,24849,"set","set"
"10086350JAM",34,25,"List 100","pulley",2974,"-","-",31049,2596,24849,"up","up"
"10086350JAM",34,25,"List 100","pulley",2974,"-","-",31049,2596,24849,"remove","remove"
"10086350JAM",34,25,"List 100","pulley",2974,"-","-",31049,2596,24849,"adjust","adjust"
"10086350JAM",34,25,"List 100","pulley",2974,"-","-",31049,2596,24849,"observe","observe"
"10086350JAM",35,25,"List 100","trampoline",2995,"-","-",36766,2362,32621,"jump","jump"
"10086350JAM",35,25,"List 100","trampoline",2995,"-","-",36766,2362,32621,"sit","sit"
"10086350JAM",35,25,"List 100","trampoline",2995,"-","-",36766,2362,32621,"lay","lay"
"10086350JAM",35,25,"List 100","trampoline",2995,"-","-",36766,2362,32621,"play","play"
"10086350JAM",35,25,"List 100","trampoline",2995,"-","-",36766,2362,32621,"stand","stand"
"10086350JAM",35,25,"List 100","trampoline",2995,"-","-",36766,2362,32621,"enjoy","enjoy"
"10086350JAM",35,25,"List 100","trampoline",2995,"-","-",36766,2362,32621,"use","use"
"10086350JAM",35,25,"List 100","trampoline",2995,"-","-",36766,2362,32621,"buy","buy"
"10086350JAM",35,25,"List 100","trampoline",2995,"-","-",36766,2362,32621,"sell","sell"
"10086350JAM",35,25,"List 100","trampoline",2995,"-","-",36766,2362,32621,"own","own"
"10086350JAM",35,25,"List 100","trampoline",2995,"-","-",36766,2362,32621,"desire","desire"
"10086350JAM",36,25,"List 100","limb",2983,"-","-",63535,4141,53285,"break","break"
"10086350JAM",36,25,"List 100","limb",2983,"-","-",63535,4141,53285,"wash","wash"
"10086350JAM",36,25,"List 100","limb",2983,"-","-",63535,4141,53285,"hold","hold"
"10086350JAM",36,25,"List 100","limb",2983,"-","-",63535,4141,53285,"support","support"
"10086350JAM",36,25,"List 100","limb",2983,"-","-",63535,4141,53285,"hit","hit"
"10086350JAM",36,25,"List 100","limb",2983,"-","-",63535,4141,53285,"hurt","hurt"
"10086350JAM",36,25,"List 100","limb",2983,"-","-",63535,4141,53285,"burn","burn"
"10086350JAM",37,25,"List 100","brow",2999,"-","-",48527,2412,46646,"draw","draw"
"10086350JAM",37,25,"List 100","brow",2999,"-","-",48527,2412,46646,"scratch","scratch"
"10086350JAM",37,25,"List 100","brow",2999,"-","-",48527,2412,46646,"tweeze","tweezers"
"10086350JAM",37,25,"List 100","brow",2999,"-","-",48527,2412,46646,"thread","thread"
"10086350JAM",37,25,"List 100","brow",2999,"-","-",48527,2412,46646,"wax","wax"
"10086350JAM",37,25,"List 100","brow",2999,"-","-",48527,2412,46646,"raise","raise"
"10086350JAM",37,25,"List 100","brow",2999,"-","-",48527,2412,46646,"lower","lower"
"10086350JAM",37,25,"List 100","brow",2999,"-","-",48527,2412,46646,"furrow","furrow"
"10086350JAM",37,25,"List 100","brow",2999,"-","-",48527,2412,46646,"dye","dye"
"10086350JAM",37,25,"List 100","brow",2999,"-","-",48527,2412,46646,"shave","shave"
"10086350JAM",37,25,"List 100","brow",2999,"-","-",48527,2412,46646,"grow","grow"
"10086350JAM",38,25,"List 100","marketeer",2990,"-","-",24066,4051,22154,"know","know"
"10086350JAM",38,25,"List 100","marketeer",2990,"-","-",24066,4051,22154,"become","become"
"10086350JAM",38,25,"List 100","marketeer",2990,"-","-",24066,4051,22154,"meet","meet"
"10086350JAM",38,25,"List 100","marketeer",2990,"-","-",24066,4051,22154,"use","use"
"10086350JAM",38,25,"List 100","marketeer",2990,"-","-",24066,4051,22154,"hire","hire"
"10086350JAM",38,25,"List 100","marketeer",2990,"-","-",24066,4051,22154,"recommend","recommend"
"10086350JAM",39,25,"List 100","hound",2975,"-","-",69390,8961,66126,"own","own"
"10086350JAM",39,25,"List 100","hound",2975,"-","-",69390,8961,66126,"buy","buy"
"10086350JAM",39,25,"List 100","hound",2975,"-","-",69390,8961,66126,"sell","sell"
"10086350JAM",39,25,"List 100","hound",2975,"-","-",69390,8961,66126,"breed","breed"
"10086350JAM",39,25,"List 100","hound",2975,"-","-",69390,8961,66126,"pet","pet"
"10086350JAM",39,25,"List 100","hound",2975,"-","-",69390,8961,66126,"play","play"
"10086350JAM",39,25,"List 100","hound",2975,"-","-",69390,8961,66126,"with","with"
"10086350JAM",39,25,"List 100","hound",2975,"-","-",69390,8961,66126,"bathe","bathe"
"10086350JAM",39,25,"List 100","hound",2975,"-","-",69390,8961,66126,"hunt","hunt"
"10086350JAM",39,25,"List 100","hound",2975,"-","-",69390,8961,66126,"kill","kill"
"10086350JAM",39,25,"List 100","hound",2975,"-","-",69390,8961,66126,"bury","bury"
"10086350JAM",40,25,"List 100","tee",2985,"-","-",39863,7033,38756,"stick","stick"
"10086350JAM",40,25,"List 100","tee",2985,"-","-",39863,7033,38756,"in","in"
"10086350JAM",40,25,"List 100","tee",2985,"-","-",39863,7033,38756,"grass","grass"
"10086350JAM",40,25,"List 100","tee",2985,"-","-",39863,7033,38756,"hit","hit"
"10086350JAM",40,25,"List 100","tee",2985,"-","-",39863,7033,38756,"knock","knock"
"10086350JAM",40,25,"List 100","tee",2985,"-","-",39863,7033,38756,"out","out"
"10086350JAM",40,25,"List 100","tee",2985,"-","-",39863,7033,38756,"set","set"
"10086350JAM",40,25,"List 100","tee",2985,"-","-",39863,7033,38756,"place","place"
"10086350JAM",40,25,"List 100","tee",2985,"-","-",39863,7033,38756,"give","give"
"10086350JAM",40,25,"List 100","tee",2985,"-","-",39863,7033,38756,"take","take"
"10086350JAM",40,25,"List 100","tee",2985,"-","-",39863,7033,38756,"use","use"
"10088817XD",11,17,"List 17","bubble",496,"-","-",34169,4360,13846,"pop","pop"
"10088817XD",11,17,"List 17","bubble",496,"-","-",34169,4360,13846,"blow","blow"
"10088817XD",11,17,"List 17","bubble",496,"-","-",34169,4360,13846,"eat","eat"
"10088817XD",12,17,"List 17","colander",502,"-","-",53368,23412,31175,"strain","strain"
"10088817XD",12,17,"List 17","colander",502,"-","-",53368,23412,31175,"pour","pour"
"10088817XD",13,17,"List 17","gearbox",488,"-","-",70926,60476,68357,"increase","increase"
"10088817XD",13,17,"List 17","gearbox",488,"-","-",70926,60476,68357,"decrease","decrease"
"10088817XD",13,17,"List 17","gearbox",488,"-","-",70926,60476,68357,"break","break"
"10088817XD",14,17,"List 17","bookseller",484,"-","-",30681,3062,26779,"sell","sell"
"10088817XD",14,17,"List 17","bookseller",484,"-","-",30681,3062,26779,"return","return"
"10088817XD",14,17,"List 17","bookseller",484,"-","-",30681,3062,26779,"scan","scan"
"10088817XD",14,17,"List 17","bookseller",484,"-","-",30681,3062,26779,"read","read"
"10088817XD",14,17,"List 17","bookseller",484,"-","-",30681,3062,26779,"stock","stock"
"10088817XD",14,17,"List 17","bookseller",484,"-","-",30681,3062,26779,"produce","produce"
"10088817XD",15,17,"List 17","headphones",487,"-","-",64559,4167,63290,"break","break"
"10088817XD",15,17,"List 17","headphones",487,"-","-",64559,4167,63290,"play","play"
"10088817XD",15,17,"List 17","headphones",487,"-","-",64559,4167,63290,"music","music"
"10088817XD",15,17,"List 17","headphones",487,"-","-",64559,4167,63290,"dirty","dirty"
"10088817XD",16,17,"List 17","frame",503,"-","-",27827,5734,25077,"hang","hang"
"10088817XD",16,17,"List 17","frame",503,"-","-",27827,5734,25077,"break","break"
"10088817XD",16,17,"List 17","frame",503,"-","-",27827,5734,25077,"protect","protect"
"10088817XD",16,17,"List 17","frame",503,"-","-",27827,5734,25077,"broadcast","broadcast"
"10088817XD",17,17,"List 17","wart",504,"-","-",22095,2389,18540,"pop","pop"
"10088817XD",18,17,"List 17","handbook",500,"-","-",51043,4232,49749,"break","break"
"10088817XD",18,17,"List 17","handbook",500,"-","-",51043,4232,49749,"give","give"
"10088817XD",18,17,"List 17","handbook",500,"-","-",51043,4232,49749,"information","information"
"10088817XD",18,17,"List 17","handbook",500,"-","-",51043,4232,49749,"water","water"
"10088817XD",18,17,"List 17","handbook",500,"-","-",51043,4232,49749,"damaged","damaged"
"10088817XD",18,17,"List 17","handbook",500,"-","-",51043,4232,49749,"tear","tear"
"10088817XD",18,17,"List 17","handbook",500,"-","-",51043,4232,49749,"thrown","thrown"
"10088817XD",18,17,"List 17","handbook",500,"-","-",51043,4232,49749,"drop","drop"
"10088817XD",18,17,"List 17","handbook",500,"-","-",51043,4232,49749,"ran","ran"
"10088817XD",18,17,"List 17","handbook",500,"-","-",51043,4232,49749,"over","over"
"10088817XD",19,17,"List 17","feline",495,"-","-",54016,24306,52186,"scratch","scratch"
"10088817XD",19,17,"List 17","feline",495,"-","-",54016,24306,52186,"cry","cry"
"10088817XD",19,17,"List 17","feline",495,"-","-",54016,24306,52186,"fall","fall"
"10088817XD",19,17,"List 17","feline",495,"-","-",54016,24306,52186,"roll","roll"
"10088817XD",19,17,"List 17","feline",495,"-","-",54016,24306,52186,"sit","sit"
"10088817XD",19,17,"List 17","feline",495,"-","-",54016,24306,52186,"hug","hug"
"10088817XD",19,17,"List 17","feline",495,"-","-",54016,24306,52186,"kiss","kiss"
"10088817XD",20,17,"List 17","kid",497,"-","-",273008,92289,147195,"baby","baby"
"10088817XD",20,17,"List 17","kid",497,"-","-",273008,92289,147195,"it","it"
"10088817XD",20,17,"List 17","kid",497,"-","-",273008,92289,147195,"whoop","whoop"
"10088817XD",20,17,"List 17","kid",497,"-","-",273008,92289,147195,"it","it"
"10088817XD",20,17,"List 17","kid",497,"-","-",273008,92289,147195,"feed","feed"
"10088817XD",20,17,"List 17","kid",497,"-","-",273008,92289,147195,"it","it"
"10088817XD",20,17,"List 17","kid",497,"-","-",273008,92289,147195,"take","take"
"10088817XD",20,17,"List 17","kid",497,"-","-",273008,92289,147195,"care","care"
"10088817XD",20,17,"List 17","kid",497,"-","-",273008,92289,147195,"of","of"
"10088817XD",20,17,"List 17","kid",497,"-","-",273008,92289,147195,"it","it"
"10088817XD",20,17,"List 17","kid",497,"-","-",273008,92289,147195,"talk","talk"
"10088817XD",20,17,"List 17","kid",497,"-","-",273008,92289,147195,"to","to"
"10088817XD",20,17,"List 17","kid",497,"-","-",273008,92289,147195,"it","it"
"10088817XD",20,17,"List 17","kid",497,"-","-",273008,92289,147195,"read","read"
"10088817XD",20,17,"List 17","kid",497,"-","-",273008,92289,147195,"to","to"
"10088817XD",20,17,"List 17","kid",497,"-","-",273008,92289,147195,"it","it"
"10088817XD",21,17,"List 17","drill",486,"-","-",27663,9539,18097,"screws","screws"
"10088817XD",21,17,"List 17","drill",486,"-","-",27663,9539,18097,"building","building"
"10088817XD",22,17,"List 17","aftershave",506,"-","-",96424,81789,94571,"wash","wash"
"10088817XD",22,17,"List 17","aftershave",506,"-","-",96424,81789,94571,"rinse","rinse"
"10088817XD",22,17,"List 17","aftershave",506,"-","-",96424,81789,94571,"lotion","lotion"
"10088817XD",23,17,"List 17","doorknob",509,"-","-",34617,3049,13810,"twist","twist"
"10088817XD",23,17,"List 17","doorknob",509,"-","-",34617,3049,13810,"break","break"
"10088817XD",23,17,"List 17","doorknob",509,"-","-",34617,3049,13810,"install","install"
"10088817XD",24,17,"List 17","memorabilia",491,"-","-",108492,81810,107301,"sale","sale"
"10088817XD",24,17,"List 17","memorabilia",491,"-","-",108492,81810,107301,"observe","observe"
"10088817XD",24,17,"List 17","memorabilia",491,"-","-",108492,81810,107301,"study","study"
"10088817XD",24,17,"List 17","memorabilia",491,"-","-",108492,81810,107301,"put","put"
"10088817XD",24,17,"List 17","memorabilia",491,"-","-",108492,81810,107301,"it","it"
"10088817XD",24,17,"List 17","memorabilia",491,"-","-",108492,81810,107301,"in","in"
"10088817XD",24,17,"List 17","memorabilia",491,"-","-",108492,81810,107301,"a","a"
"10088817XD",24,17,"List 17","memorabilia",491,"-","-",108492,81810,107301,"museum","museum"
"10088817XD",25,17,"List 17","mincemeat",505,"-","-",46936,12512,46225,"eat","eat"
"10088817XD",25,17,"List 17","mincemeat",505,"-","-",46936,12512,46225,"cook","cook"
"10088817XD",25,17,"List 17","mincemeat",505,"-","-",46936,12512,46225,"buy","buy"
"10088817XD",25,17,"List 17","mincemeat",505,"-","-",46936,12512,46225,"sale","sale"
"10088817XD",25,17,"List 17","mincemeat",505,"-","-",46936,12512,46225,"hunt","hunt"
"10088817XD",25,17,"List 17","mincemeat",505,"-","-",46936,12512,46225,"it","it"
"10088817XD",26,17,"List 17","wastebasket",485,"-","-",24771,3816,23111,"throw","throw"
"10088817XD",26,17,"List 17","wastebasket",485,"-","-",24771,3816,23111,"away","away"
"10088817XD",26,17,"List 17","wastebasket",485,"-","-",24771,3816,23111,"weigh","weigh"
"10088817XD",26,17,"List 17","wastebasket",485,"-","-",24771,3816,23111,"note","note"
"10088817XD",27,17,"List 17","groom",483,"-","-",27084,11832,25692,"shave","shave"
"10088817XD",27,17,"List 17","groom",483,"-","-",27084,11832,25692,"marry","marry"
"10088817XD",27,17,"List 17","groom",483,"-","-",27084,11832,25692,"it","it"
"10088817XD",27,17,"List 17","groom",483,"-","-",27084,11832,25692,"clean","clean"
"10088817XD",27,17,"List 17","groom",483,"-","-",27084,11832,25692,"it","it"
"10088817XD",27,17,"List 17","groom",483,"-","-",27084,11832,25692,"love","love"
"10088817XD",27,17,"List 17","groom",483,"-","-",27084,11832,25692,"it","it"
"10088817XD",28,17,"List 17","parka",482,"-","-",45225,9844,43943,"wear","wear"
"10088817XD",28,17,"List 17","parka",482,"-","-",45225,9844,43943,"it","it"
"10088817XD",28,17,"List 17","parka",482,"-","-",45225,9844,43943,"wash","wash"
"10088817XD",28,17,"List 17","parka",482,"-","-",45225,9844,43943,"dry","dry"
"10088817XD",28,17,"List 17","parka",482,"-","-",45225,9844,43943,"give","give"
"10088817XD",28,17,"List 17","parka",482,"-","-",45225,9844,43943,"it","it"
"10088817XD",28,17,"List 17","parka",482,"-","-",45225,9844,43943,"away","away"
"10088817XD",28,17,"List 17","parka",482,"-","-",45225,9844,43943,"keep","keep"
"10088817XD",28,17,"List 17","parka",482,"-","-",45225,9844,43943,"it","it"
"10088817XD",28,17,"List 17","parka",482,"-","-",45225,9844,43943,"roll","roll"
"10088817XD",28,17,"List 17","parka",482,"-","-",45225,9844,43943,"over","over"
"10088817XD",28,17,"List 17","parka",482,"-","-",45225,9844,43943,"it","it"
"10088817XD",28,17,"List 17","parka",482,"-","-",45225,9844,43943,"step","step"
"10088817XD",28,17,"List 17","parka",482,"-","-",45225,9844,43943,"on","on"
"10088817XD",28,17,"List 17","parka",482,"-","-",45225,9844,43943,"it","it"
"10088817XD",29,17,"List 17","jacket",494,"-","-",66084,2896,42832,"wear","wear"
"10088817XD",29,17,"List 17","jacket",494,"-","-",66084,2896,42832,"tear","tear"
"10088817XD",29,17,"List 17","jacket",494,"-","-",66084,2896,42832,"wash","wash"
"10088817XD",29,17,"List 17","jacket",494,"-","-",66084,2896,42832,"grow","grow"
"10088817XD",29,17,"List 17","jacket",494,"-","-",66084,2896,42832,"out","out"
"10088817XD",29,17,"List 17","jacket",494,"-","-",66084,2896,42832,"it","it"
"10088817XD",29,17,"List 17","jacket",494,"-","-",66084,2896,42832,"pass","pass"
"10088817XD",29,17,"List 17","jacket",494,"-","-",66084,2896,42832,"it","it"
"10088817XD",29,17,"List 17","jacket",494,"-","-",66084,2896,42832,"down","down"
"10088817XD",30,17,"List 17","caddy",490,"-","-",52418,25048,46076,"store","store"
"10088817XD",30,17,"List 17","caddy",490,"-","-",52418,25048,46076,"stuff","stuff"
"10088817XD",30,17,"List 17","caddy",490,"-","-",52418,25048,46076,"in","in"
"10088817XD",30,17,"List 17","caddy",490,"-","-",52418,25048,46076,"it","it"
"10088817XD",30,17,"List 17","caddy",490,"-","-",52418,25048,46076,"spill","spill"
"10088817XD",30,17,"List 17","caddy",490,"-","-",52418,25048,46076,"stuff","stuff"
"10088817XD",30,17,"List 17","caddy",490,"-","-",52418,25048,46076,"in","in"
"10088817XD",30,17,"List 17","caddy",490,"-","-",52418,25048,46076,"it","it"
"10088817XD",30,17,"List 17","caddy",490,"-","-",52418,25048,46076,"it","it"
"10088817XD",30,17,"List 17","caddy",490,"-","-",52418,25048,46076,"can","can"
"10088817XD",30,17,"List 17","caddy",490,"-","-",52418,25048,46076,"break","break"
"10088817XD",30,17,"List 17","caddy",490,"-","-",52418,25048,46076,"it","it"
"10088817XD",30,17,"List 17","caddy",490,"-","-",52418,25048,46076,"can","can"
"10088817XD",30,17,"List 17","caddy",490,"-","-",52418,25048,46076,"tear","tear"
"10088817XD",31,17,"List 17","fingerboard",507,"-","-",31085,14978,29918,"play","play"
"10088817XD",31,17,"List 17","fingerboard",507,"-","-",31085,14978,29918,"throw","throw"
"10088817XD",31,17,"List 17","fingerboard",507,"-","-",31085,14978,29918,"away","away"
"10088817XD",31,17,"List 17","fingerboard",507,"-","-",31085,14978,29918,"lose","lose"
"10088817XD",31,17,"List 17","fingerboard",507,"-","-",31085,14978,29918,"it","it"
"10088817XD",32,17,"List 17","rum",492,"-","-",23401,2070,22012,"drink","drink"
"10088817XD",32,17,"List 17","rum",492,"-","-",23401,2070,22012,"throw","throw"
"10088817XD",32,17,"List 17","rum",492,"-","-",23401,2070,22012,"it","it"
"10088817XD",32,17,"List 17","rum",492,"-","-",23401,2070,22012,"up","up"
"10088817XD",32,17,"List 17","rum",492,"-","-",23401,2070,22012,"spill","spill"
"10088817XD",32,17,"List 17","rum",492,"-","-",23401,2070,22012,"throw","throw"
"10088817XD",32,17,"List 17","rum",492,"-","-",23401,2070,22012,"away","away"
"10088817XD",33,17,"List 17","washerwoman",511,"-","-",47055,24933,44901,"wash","wash"
"10088817XD",33,17,"List 17","washerwoman",511,"-","-",47055,24933,44901,"dry","dry"
"10088817XD",33,17,"List 17","washerwoman",511,"-","-",47055,24933,44901,"work","work"
"10088817XD",33,17,"List 17","washerwoman",511,"-","-",47055,24933,44901,"love","love"
"10088817XD",33,17,"List 17","washerwoman",511,"-","-",47055,24933,44901,"pay","pay"
"10088817XD",34,17,"List 17","sleigh",508,"-","-",30751,3167,29557,"ride","ride"
"10088817XD",34,17,"List 17","sleigh",508,"-","-",30751,3167,29557,"fall","fall"
"10088817XD",34,17,"List 17","sleigh",508,"-","-",30751,3167,29557,"off","off"
"10088817XD",34,17,"List 17","sleigh",508,"-","-",30751,3167,29557,"lose","lose"
"10088817XD",34,17,"List 17","sleigh",508,"-","-",30751,3167,29557,"break","break"
"10088817XD",34,17,"List 17","sleigh",508,"-","-",30751,3167,29557,"buy","buy"
"10088817XD",35,17,"List 17","chapel",498,"-","-",20988,3174,17551,"burn","burn"
"10088817XD",35,17,"List 17","chapel",498,"-","-",20988,3174,17551,"build","build"
"10088817XD",35,17,"List 17","chapel",498,"-","-",20988,3174,17551,"clean","clean"
"10088817XD",35,17,"List 17","chapel",498,"-","-",20988,3174,17551,"dirty","dirty"
"10088817XD",36,17,"List 17","leech",499,"-","-",12032,2607,10442,"kill","kill"
"10088817XD",36,17,"List 17","leech",499,"-","-",12032,2607,10442,"release","release"
"10088817XD",36,17,"List 17","leech",499,"-","-",12032,2607,10442,"study","study"
"10088817XD",37,17,"List 17","kitten",493,"-","-",20617,2836,17635,"love","love"
"10088817XD",37,17,"List 17","kitten",493,"-","-",20617,2836,17635,"save","save"
"10088817XD",37,17,"List 17","kitten",493,"-","-",20617,2836,17635,"buy","buy"
"10088817XD",37,17,"List 17","kitten",493,"-","-",20617,2836,17635,"hug","hug"
"10088817XD",38,17,"List 17","gingersnap",489,"-","-",54124,18757,52482,"eat","eat"
"10088817XD",38,17,"List 17","gingersnap",489,"-","-",54124,18757,52482,"bake","bake"
"10088817XD",38,17,"List 17","gingersnap",489,"-","-",54124,18757,52482,"sale","sale"
"10088817XD",38,17,"List 17","gingersnap",489,"-","-",54124,18757,52482,"receive","receive"
"10088817XD",39,17,"List 17","spice",510,"-","-",16186,5562,14424,"cook","cook"
"10088817XD",39,17,"List 17","spice",510,"-","-",16186,5562,14424,"drop","drop"
"10088817XD",39,17,"List 17","spice",510,"-","-",16186,5562,14424,"lose","lose"
"10088817XD",39,17,"List 17","spice",510,"-","-",16186,5562,14424,"spill","spill"
"10088817XD",40,17,"List 17","nutshell",501,"-","-",93540,38817,44803,"eat","eat"
"10088817XD",40,17,"List 17","nutshell",501,"-","-",93540,38817,44803,"find","find"
"10088817XD",40,17,"List 17","nutshell",501,"-","-",93540,38817,44803,"sell","sell"
"10088817XD",40,17,"List 17","nutshell",501,"-","-",93540,38817,44803,"cook","cook"
"10089475KD",11,12,"List 37","mustard",1105,"-","-",14975,3882,12043,"burger","burger"
"10089475KD",11,12,"List 37","mustard",1105,"-","-",14975,3882,12043,"egg","egg"
"10089475KD",11,12,"List 37","mustard",1105,"-","-",14975,3882,12043,"salad","salad"
"10089475KD",12,12,"List 37","kneecap",1093,"-","-",21600,4424,15590,"kneel","kneel"
"10089475KD",12,12,"List 37","kneecap",1093,"-","-",21600,4424,15590,"football","football"
"10089475KD",12,12,"List 37","kneecap",1093,"-","-",21600,4424,15590,"rugby","rugby"
"10089475KD",12,12,"List 37","kneecap",1093,"-","-",21600,4424,15590,"prayer","prayer"
"10089475KD",13,12,"List 37","jet",1085,"-","-",27946,3504,27466,"travel","travel"
"10089475KD",13,12,"List 37","jet",1085,"-","-",27946,3504,27466,"fun","fun"
"10089475KD",13,12,"List 37","jet",1085,"-","-",27946,3504,27466,"convenience","convenience"
"10089475KD",13,12,"List 37","jet",1085,"-","-",27946,3504,27466,"war","war"
"10089475KD",13,12,"List 37","jet",1085,"-","-",27946,3504,27466,"emergency","emergency"
"10089475KD",14,12,"List 37","gear",1084,"-","-",19795,3656,18673,"dive","dive"
"10089475KD",14,12,"List 37","gear",1084,"-","-",19795,3656,18673,"work","work"
"10089475KD",14,12,"List 37","gear",1084,"-","-",19795,3656,18673,"dress","dress"
"10089475KD",14,12,"List 37","gear",1084,"-","-",19795,3656,18673,"protection","protection"
"10089475KD",15,12,"List 37","clover",1090,"-","-",28474,22339,27979,"repair","repair"
"10089475KD",15,12,"List 37","clover",1090,"-","-",28474,22339,27979,"soil","soil"
"10089475KD",15,12,"List 37","clover",1090,"-","-",28474,22339,27979,"erosion","erosion"
"10089475KD",16,12,"List 37","chair",1111,"-","-",14565,1482,13898,"sit","sit"
"10089475KD",16,12,"List 37","chair",1111,"-","-",14565,1482,13898,"clean","clean"
"10089475KD",16,12,"List 37","chair",1111,"-","-",14565,1482,13898,"sleep","sleep"
"10089475KD",17,12,"List 37","lamplight",1096,"-","-",17350,2659,15311,"see","see"
"10089475KD",17,12,"List 37","lamplight",1096,"-","-",17350,2659,15311,"read","read"
"10089475KD",17,12,"List 37","lamplight",1096,"-","-",17350,2659,15311,"to","to"
"10089475KD",17,12,"List 37","lamplight",1096,"-","-",17350,2659,15311,"write","write"
"10089475KD",17,12,"List 37","lamplight",1096,"-","-",17350,2659,15311,"tell","tell"
"10089475KD",17,12,"List 37","lamplight",1096,"-","-",17350,2659,15311,"stories","stories"
"10089475KD",18,12,"List 37","tummy",1106,"-","-",18418,1960,17893,"eat","eat"
"10089475KD",18,12,"List 37","tummy",1106,"-","-",18418,1960,17893,"store","store"
"10089475KD",18,12,"List 37","tummy",1106,"-","-",18418,1960,17893,"food","food"
"10089475KD",18,12,"List 37","tummy",1106,"-","-",18418,1960,17893,"fight","fight"
"10089475KD",18,12,"List 37","tummy",1106,"-","-",18418,1960,17893,"rubs","rubs"
"10089475KD",18,12,"List 37","tummy",1106,"-","-",18418,1960,17893,"carry","carry"
"10089475KD",18,12,"List 37","tummy",1106,"-","-",18418,1960,17893,"a","a"
"10089475KD",18,12,"List 37","tummy",1106,"-","-",18418,1960,17893,"baby","baby"
"10089475KD",19,12,"List 37","scorecard",1091,"-","-",8535,3956,7459,"keep","keep"
"10089475KD",19,12,"List 37","scorecard",1091,"-","-",8535,3956,7459,"track","track"
"10089475KD",20,12,"List 37","lid",1108,"-","-",10522,1787,9203,"cover","cover"
"10089475KD",20,12,"List 37","lid",1108,"-","-",10522,1787,9203,"store","store"
"10089475KD",20,12,"List 37","lid",1108,"-","-",10522,1787,9203,"food","food"
"10089475KD",21,12,"List 37","handle",1087,"-","-",23576,1869,19660,"stability","stability"
"10089475KD",21,12,"List 37","handle",1087,"-","-",23576,1869,19660,"to","to"
"10089475KD",21,12,"List 37","handle",1087,"-","-",23576,1869,19660,"close","close"
"10089475KD",21,12,"List 37","handle",1087,"-","-",23576,1869,19660,"to","to"
"10089475KD",21,12,"List 37","handle",1087,"-","-",23576,1869,19660,"open","open"
"10089475KD",22,12,"List 37","toffee",1092,"-","-",45151,31048,44461,"dates","dates"
"10089475KD",22,12,"List 37","toffee",1092,"-","-",45151,31048,44461,"raise","raise"
"10089475KD",22,12,"List 37","toffee",1092,"-","-",45151,31048,44461,"sugar","sugar"
"10089475KD",22,12,"List 37","toffee",1092,"-","-",45151,31048,44461,"levels","levels"
"10089475KD",22,12,"List 37","toffee",1092,"-","-",45151,31048,44461,"snack","snack"
"10089475KD",23,12,"List 37","greenery",1104,"-","-",4541,2919,4085,"health","health"
"10089475KD",24,12,"List 37","locket",1089,"-","-",6681,4550,6070,"n/a","n/a"
"10089475KD",25,12,"List 37","dressing",1099,"-","-",20396,2153,19993,"for","for"
"10089475KD",25,12,"List 37","dressing",1099,"-","-",20396,2153,19993,"salad","salad"
"10089475KD",25,12,"List 37","dressing",1099,"-","-",20396,2153,19993,"for","for"
"10089475KD",25,12,"List 37","dressing",1099,"-","-",20396,2153,19993,"nuggests","nuggets"
"10089475KD",25,12,"List 37","dressing",1099,"-","-",20396,2153,19993,"for","for"
"10089475KD",25,12,"List 37","dressing",1099,"-","-",20396,2153,19993,"steak","steak"
"10089475KD",25,12,"List 37","dressing",1099,"-","-",20396,2153,19993,"for","for"
"10089475KD",25,12,"List 37","dressing",1099,"-","-",20396,2153,19993,"chicken","chicken"
"10089475KD",25,12,"List 37","dressing",1099,"-","-",20396,2153,19993,"for","for"
"10089475KD",25,12,"List 37","dressing",1099,"-","-",20396,2153,19993,"burgers","burgers"
"10089475KD",26,12,"List 37","critter",1088,"-","-",27933,22266,27470,"pet","pet"
"10089475KD",26,12,"List 37","critter",1088,"-","-",27933,22266,27470,"scare","scare"
"10089475KD",26,12,"List 37","critter",1088,"-","-",27933,22266,27470,"someone","someone"
"10089475KD",27,12,"List 37","shirttail",1094,"-","-",4992,2469,4669,"i","i"
"10089475KD",27,12,"List 37","shirttail",1094,"-","-",4992,2469,4669,"dont","don't"
"10089475KD",27,12,"List 37","shirttail",1094,"-","-",4992,2469,4669,"know","know"
"10089475KD",28,12,"List 37","vase",1082,"-","-",21785,1428,20717,"to","to"
"10089475KD",28,12,"List 37","vase",1082,"-","-",21785,1428,20717,"hold","hold"
"10089475KD",28,12,"List 37","vase",1082,"-","-",21785,1428,20717,"flowers","flowers"
"10089475KD",28,12,"List 37","vase",1082,"-","-",21785,1428,20717,"to","to"
"10089475KD",28,12,"List 37","vase",1082,"-","-",21785,1428,20717,"hold","hold"
"10089475KD",28,12,"List 37","vase",1082,"-","-",21785,1428,20717,"fish","fish"
"10089475KD",28,12,"List 37","vase",1082,"-","-",21785,1428,20717,"to","to"
"10089475KD",28,12,"List 37","vase",1082,"-","-",21785,1428,20717,"store","store"
"10089475KD",28,12,"List 37","vase",1082,"-","-",21785,1428,20717,"arrangements","arrangements"
"10089475KD",28,12,"List 37","vase",1082,"-","-",21785,1428,20717,"to","to"
"10089475KD",28,12,"List 37","vase",1082,"-","-",21785,1428,20717,"store","store"
"10089475KD",28,12,"List 37","vase",1082,"-","-",21785,1428,20717,"money","money"
"10089475KD",29,12,"List 37","glue",1107,"-","-",14827,3435,14175,"for","for"
"10089475KD",29,12,"List 37","glue",1107,"-","-",14827,3435,14175,"work","work"
"10089475KD",29,12,"List 37","glue",1107,"-","-",14827,3435,14175,"for","for"
"10089475KD",29,12,"List 37","glue",1107,"-","-",14827,3435,14175,"school","school"
"10089475KD",29,12,"List 37","glue",1107,"-","-",14827,3435,14175,"for","for"
"10089475KD",29,12,"List 37","glue",1107,"-","-",14827,3435,14175,"painting","painting"
"10089475KD",30,12,"List 37","stereo",1103,"-","-",12876,1657,7674,"to","to"
"10089475KD",30,12,"List 37","stereo",1103,"-","-",12876,1657,7674,"listen","listen"
"10089475KD",30,12,"List 37","stereo",1103,"-","-",12876,1657,7674,"to","to"
"10089475KD",30,12,"List 37","stereo",1103,"-","-",12876,1657,7674,"see","see"
"10089475KD",31,12,"List 37","twig",1110,"-","-",6582,2079,6261,"i","i"
"10089475KD",31,12,"List 37","twig",1110,"-","-",6582,2079,6261,"dont","don't"
"10089475KD",31,12,"List 37","twig",1110,"-","-",6582,2079,6261,"know","know"
"10089475KD",32,12,"List 37","tub",1100,"-","-",9325,1485,8912,"to","to"
"10089475KD",32,12,"List 37","tub",1100,"-","-",9325,1485,8912,"bath","bath"
