Username,ID,ExperimentName,Session,Trial,Date,TimeDif,Condition.Number,Stimuli.File,Order.File,Condition.Description,Condition.Notes,Stimuli.Cue,Stimuli.Answer,Stimuli.Shuffle,Stimuli.Stimuli.Notes,Stimuli.Value,Procedure.Item,Procedure.Trial.Type,Procedure.Max.Time,Procedure.Min.Time,Procedure.Text,Procedure.Procedure.Notes,Procedure.Shuffle,Response.RT,Response.Response,Response.Accuracy,Response.RTfirst,Response.RTlast,Response.strictAcc,Response.lenientAcc,Response.focus,Response.JOL,Response.Focus
aidanwhiteAB,hix78smz0t,Affordance Norms_South Alabama,1,11,2022-11-30T03:17:47+00:00,2.268159866,86,updated stim.csv,Version86.csv,Version 86,List 86,tapioca,NA,2552,4.454545455,2634,2553,BOI,-,-,Please name all of the ways you could use this object. Keep in mind that one object can have many uses. Separate your responses with a comma.,NA,y,2177,NA,NA,-1,-1,NA,NA,NA,,1
aidanwhiteAB,hix78smz0t,Affordance Norms_South Alabama,1,12,2022-11-30T03:17:49+00:00,2.108350039,86,updated stim.csv,Version86.csv,Version 86,List 86,navel,NA,2570,5,1737,2571,BOI,-,-,Please name all of the ways you could use this object. Keep in mind that one object can have many uses. Separate your responses with a comma.,NA,y,2017,NA,NA,-1,-1,NA,NA,NA,,1
aidanwhiteAB,hix78smz0t,Affordance Norms_South Alabama,1,13,2022-11-30T03:18:37+00:00,47.53119206,86,updated stim.csv,Version86.csv,Version 86,List 86,alcohol,NA,2568,5.833333333,24,2569,BOI,-,-,Please name all of the ways you could use this object. Keep in mind that one object can have many uses. Separate your responses with a comma.,NA,y,47392,NA,NA,2141,47139,NA,NA,NA,"driving, partying",1
aidanwhiteAB,hix78smz0t,Affordance Norms_South Alabama,1,14,2022-11-30T03:18:38+00:00,1.571670055,86,updated stim.csv,Version86.csv,Version 86,List 86,plaything,NA,2560,4.92,2004,2561,BOI,-,-,Please name all of the ways you could use this object. Keep in mind that one object can have many uses. Separate your responses with a comma.,NA,y,1474,NA,NA,-1,-1,NA,NA,NA,,1
aidanwhiteAB,hix78smz0t,Affordance Norms_South Alabama,1,15,2022-11-30T03:18:45+00:00,6.562487841,86,updated stim.csv,Version86.csv,Version 86,List 86,wrench,NA,2565,6.181818182,2980,2566,BOI,-,-,Please name all of the ways you could use this object. Keep in mind that one object can have many uses. Separate your responses with a comma.,NA,y,6476,NA,NA,2291,6034,NA,NA,NA,"tightening, loosening",1
aidanwhiteAB,hix78smz0t,Affordance Norms_South Alabama,1,16,2022-11-30T03:18:50+00:00,5.219346046,86,updated stim.csv,Version86.csv,Version 86,List 86,glitter,NA,2578,4.434782609,1115,2579,BOI,-,-,Please name all of the ways you could use this object. Keep in mind that one object can have many uses. Separate your responses with a comma.,NA,y,5126,NA,NA,2707,4802,NA,NA,NA,decorating,1
aidanwhiteAB,hix78smz0t,Affordance Norms_South Alabama,1,17,2022-11-30T03:18:55+00:00,4.796905041,86,updated stim.csv,Version86.csv,Version 86,List 86,wax,NA,2573,5.291666667,2912,2574,BOI,-,-,Please name all of the ways you could use this object. Keep in mind that one object can have many uses. Separate your responses with a comma.,NA,y,4704,NA,NA,2553,3676,NA,NA,NA,burning,1
aidanwhiteAB,hix78smz0t,Affordance Norms_South Alabama,1,18,2022-11-30T03:19:03+00:00,7.940485001,86,updated stim.csv,Version86.csv,Version 86,List 86,riverboat,NA,2574,5.52,2174,2575,BOI,-,-,Please name all of the ways you could use this object. Keep in mind that one object can have many uses. Separate your responses with a comma.,NA,y,7843,NA,NA,2321,6336,NA,NA,NA,"riding, living",1
aidanwhiteAB,hix78smz0t,Affordance Norms_South Alabama,1,19,2022-11-30T03:19:06+00:00,3.074666977,86,updated stim.csv,Version86.csv,Version 86,List 86,dove,NA,2580,4.333333333,835,2581,BOI,-,-,Please name all of the ways you could use this object. Keep in mind that one object can have many uses. Separate your responses with a comma.,NA,y,2979,NA,NA,-1,-1,NA,NA,NA,,1
aidanwhiteAB,hix78smz0t,Affordance Norms_South Alabama,1,20,2022-11-30T03:19:07+00:00,1.301623106,86,updated stim.csv,Version86.csv,Version 86,List 86,tumbler,NA,2551,5.136363636,2795,2552,BOI,-,-,Please name all of the ways you could use this object. Keep in mind that one object can have many uses. Separate your responses with a comma.,NA,y,1204,NA,NA,-1,-1,NA,NA,NA,,1
aidanwhiteAB,hix78smz0t,Affordance Norms_South Alabama,1,21,2022-11-30T03:19:12+00:00,4.87597084,86,updated stim.csv,Version86.csv,Version 86,List 86,assassin,NA,2579,4.32,88,2580,BOI,-,-,Please name all of the ways you could use this object. Keep in mind that one object can have many uses. Separate your responses with a comma.,NA,y,4785,NA,NA,2266,4575,NA,NA,NA,killing,1
aidanwhiteAB,hix78smz0t,Affordance Norms_South Alabama,1,22,2022-11-30T03:19:22+00:00,9.505913019,86,updated stim.csv,Version86.csv,Version 86,List 86,forearm,NA,2576,5.782608696,1043,2577,BOI,-,-,Please name all of the ways you could use this object. Keep in mind that one object can have many uses. Separate your responses with a comma.,NA,y,9415,NA,NA,4387,6861,NA,NA,NA,extending,1
aidanwhiteAB,hix78smz0t,Affordance Norms_South Alabama,1,23,2022-11-30T03:19:32+00:00,10.72590113,86,updated stim.csv,Version86.csv,Version 86,List 86,chip,NA,2563,5.181818182,529,2564,BOI,-,-,Please name all of the ways you could use this object. Keep in mind that one object can have many uses. Separate your responses with a comma.,NA,y,10629,NA,NA,2998,7812,NA,NA,NA,"eating, playing",1
aidanwhiteAB,hix78smz0t,Affordance Norms_South Alabama,1,24,2022-11-30T03:19:40+00:00,7.653014898,86,updated stim.csv,Version86.csv,Version 86,List 86,boutique,NA,2566,4.692307692,291,2567,BOI,-,-,Please name all of the ways you could use this object. Keep in mind that one object can have many uses. Separate your responses with a comma.,NA,y,7562,NA,NA,4383,7318,NA,NA,NA,shopping,1
aidanwhiteAB,hix78smz0t,Affordance Norms_South Alabama,1,25,2022-11-30T03:19:48+00:00,8.289973021,86,updated stim.csv,Version86.csv,Version 86,List 86,searchlight,NA,2562,4.391304348,2298,2563,BOI,-,-,Please name all of the ways you could use this object. Keep in mind that one object can have many uses. Separate your responses with a comma.,NA,y,8201,NA,NA,1974,7825,NA,NA,NA,"searching, illumination",1
aidanwhiteAB,hix78smz0t,Affordance Norms_South Alabama,1,26,2022-11-30T03:19:58+00:00,9.571161985,86,updated stim.csv,Version86.csv,Version 86,List 86,barn,NA,2569,5.173913043,151,2570,BOI,-,-,Please name all of the ways you could use this object. Keep in mind that one object can have many uses. Separate your responses with a comma.,NA,y,9478,NA,NA,1989,8144,NA,NA,NA,"hiding, sleeping, storing",1
aidanwhiteAB,hix78smz0t,Affordance Norms_South Alabama,1,27,2022-11-30T03:20:01+00:00,2.963289976,86,updated stim.csv,Version86.csv,Version 86,List 86,soldier,NA,2558,4.56,2446,2559,BOI,-,-,Please name all of the ways you could use this object. Keep in mind that one object can have many uses. Separate your responses with a comma.,NA,y,2853,NA,NA,1383,2463,NA,NA,NA,killing,1
aidanwhiteAB,hix78smz0t,Affordance Norms_South Alabama,1,28,2022-11-30T03:20:06+00:00,4.584610939,86,updated stim.csv,Version86.csv,Version 86,List 86,gumbo,NA,2556,4.619047619,1196,2557,BOI,-,-,Please name all of the ways you could use this object. Keep in mind that one object can have many uses. Separate your responses with a comma.,NA,y,4494,NA,NA,3568,4357,NA,NA,NA,eating,1
aidanwhiteAB,hix78smz0t,Affordance Norms_South Alabama,1,29,2022-11-30T03:20:07+00:00,1.600963116,86,updated stim.csv,Version86.csv,Version 86,List 86,periscope,NA,2557,4.653846154,1927,2558,BOI,-,-,Please name all of the ways you could use this object. Keep in mind that one object can have many uses. Separate your responses with a comma.,NA,y,1514,NA,NA,-1,-1,NA,NA,NA,,1
aidanwhiteAB,hix78smz0t,Affordance Norms_South Alabama,1,30,2022-11-30T03:20:10+00:00,2.736512899,86,updated stim.csv,Version86.csv,Version 86,List 86,fillet,NA,2554,4.32,975,2555,BOI,-,-,Please name all of the ways you could use this object. Keep in mind that one object can have many uses. Separate your responses with a comma.,NA,y,2643,NA,NA,1694,2502,NA,NA,NA,eating,1
aidanwhiteAB,hix78smz0t,Affordance Norms_South Alabama,1,31,2022-11-30T03:20:14+00:00,3.65489316,86,updated stim.csv,Version86.csv,Version 86,List 86,toastmaster,NA,2561,4.652173913,2711,2562,BOI,-,-,Please name all of the ways you could use this object. Keep in mind that one object can have many uses. Separate your responses with a comma.,NA,y,3563,NA,NA,1493,3358,NA,NA,NA,toasting,1
aidanwhiteAB,hix78smz0t,Affordance Norms_South Alabama,1,32,2022-11-30T03:20:17+00:00,3.338284016,86,updated stim.csv,Version86.csv,Version 86,List 86,snowman,NA,2553,4.916666667,2435,2554,BOI,-,-,Please name all of the ways you could use this object. Keep in mind that one object can have many uses. Separate your responses with a comma.,NA,y,3245,NA,NA,2633,3052,NA,NA,NA,fun,1
aidanwhiteAB,hix78smz0t,Affordance Norms_South Alabama,1,33,2022-11-30T03:20:22+00:00,4.642980814,86,updated stim.csv,Version86.csv,Version 86,List 86,cryptographer,NA,2575,4.583333333,719,2576,BOI,-,-,Please name all of the ways you could use this object. Keep in mind that one object can have many uses. Separate your responses with a comma.,NA,y,4554,NA,NA,-1,-1,NA,NA,NA,,1
aidanwhiteAB,hix78smz0t,Affordance Norms_South Alabama,1,34,2022-11-30T03:20:31+00:00,9.375990152,86,updated stim.csv,Version86.csv,Version 86,List 86,football,NA,2559,6.12,1030,2560,BOI,-,-,Please name all of the ways you could use this object. Keep in mind that one object can have many uses. Separate your responses with a comma.,NA,y,9283,NA,NA,1660,7715,NA,NA,NA,"throwing, kicking, sitting",1
aidanwhiteAB,hix78smz0t,Affordance Norms_South Alabama,1,35,2022-11-30T03:20:40+00:00,9.278192997,86,updated stim.csv,Version86.csv,Version 86,List 86,taxpayer,NA,2571,4.583333333,2640,2572,BOI,-,-,Please name all of the ways you could use this object. Keep in mind that one object can have many uses. Separate your responses with a comma.,NA,y,9188,NA,NA,2935,9005,NA,NA,NA,"paying, dying",1
aidanwhiteAB,hix78smz0t,Affordance Norms_South Alabama,1,36,2022-11-30T03:20:43+00:00,2.654747963,86,updated stim.csv,Version86.csv,Version 86,List 86,sapling,NA,2555,4.304347826,2240,2556,BOI,-,-,Please name all of the ways you could use this object. Keep in mind that one object can have many uses. Separate your responses with a comma.,NA,y,2551,NA,NA,1584,2472,NA,NA,NA,growing,1
aidanwhiteAB,hix78smz0t,Affordance Norms_South Alabama,1,37,2022-11-30T03:20:46+00:00,2.863219976,86,updated stim.csv,Version86.csv,Version 86,List 86,crate,NA,2567,5.304347826,684,2568,BOI,-,-,Please name all of the ways you could use this object. Keep in mind that one object can have many uses. Separate your responses with a comma.,NA,y,2775,NA,NA,1628,2667,NA,NA,NA,storing,1
aidanwhiteAB,hix78smz0t,Affordance Norms_South Alabama,1,38,2022-11-30T03:20:55+00:00,9.531022072,86,updated stim.csv,Version86.csv,Version 86,List 86,pug,NA,2572,5.965517241,2090,2573,BOI,-,-,Please name all of the ways you could use this object. Keep in mind that one object can have many uses. Separate your responses with a comma.,NA,y,9444,NA,NA,4493,5641,NA,NA,NA,none,1
aidanwhiteAB,hix78smz0t,Affordance Norms_South Alabama,1,39,2022-11-30T03:21:04+00:00,8.529695988,86,updated stim.csv,Version86.csv,Version 86,List 86,gravestone,NA,2564,4.875,1165,2565,BOI,-,-,Please name all of the ways you could use this object. Keep in mind that one object can have many uses. Separate your responses with a comma.,NA,y,8439,NA,NA,3669,8170,NA,NA,NA,"marking, remebering",1
aidanwhiteAB,hix78smz0t,Affordance Norms_South Alabama,1,40,2022-11-30T03:21:11+00:00,7.195787907,86,updated stim.csv,Version86.csv,Version 86,List 86,rainfall,NA,2577,4.88,2132,2578,BOI,-,-,Please name all of the ways you could use this object. Keep in mind that one object can have many uses. Separate your responses with a comma.,NA,y,7105,NA,NA,5285,6764,NA,NA,NA,watering,1
beagraves,7oii8j90z0,Affordance Norms_South Alabama,1,11,2022-11-28T20:11:01+00:00,11.44460106,58,updated stim.csv,Version58.csv,Version 58,List 58,ground,NA,1725,5.875,1182,1726,BOI,-,-,Please name all of the ways you could use this object. Keep in mind that one object can have many uses. Separate your responses with a comma.,NA,y,11352,NA,NA,4805,6741,NA,NA,NA,walk on ,1
beagraves,7oii8j90z0,Affordance Norms_South Alabama,1,12,2022-11-28T20:11:19+00:00,17.32771707,58,updated stim.csv,Version58.csv,Version 58,List 58,jersey,NA,1711,5.8,1382,1712,BOI,-,-,Please name all of the ways you could use this object. Keep in mind that one object can have many uses. Separate your responses with a comma.,NA,y,17232,NA,NA,2664,10630,NA,NA,NA,wear,1
beagraves,7oii8j90z0,Affordance Norms_South Alabama,1,13,2022-11-28T20:11:32+00:00,13.68165684,58,updated stim.csv,Version58.csv,Version 58,List 58,mullet,NA,1727,4.518518519,1717,1728,BOI,-,-,Please name all of the ways you could use this object. Keep in mind that one object can have many uses. Separate your responses with a comma.,NA,y,13584,NA,NA,5437,10123,NA,NA,NA,style hair,1
beagraves,7oii8j90z0,Affordance Norms_South Alabama,1,14,2022-11-28T20:11:45+00:00,12.81101418,58,updated stim.csv,Version58.csv,Version 58,List 58,shutter,NA,1736,4.541666667,2371,1737,BOI,-,-,Please name all of the ways you could use this object. Keep in mind that one object can have many uses. Separate your responses with a comma.,NA,y,12714,NA,NA,3682,11708,NA,NA,NA,"open, close",1
beagraves,7oii8j90z0,Affordance Norms_South Alabama,1,15,2022-11-28T20:12:02+00:00,16.78578901,58,updated stim.csv,Version58.csv,Version 58,List 58,robber,NA,1734,4.464285714,2180,1735,BOI,-,-,Please name all of the ways you could use this object. Keep in mind that one object can have many uses. Separate your responses with a comma.,NA,y,16691,NA,NA,11325,12961,NA,NA,NA,steal,1
beagraves,7oii8j90z0,Affordance Norms_South Alabama,1,16,2022-11-28T20:12:15+00:00,12.57462382,58,updated stim.csv,Version58.csv,Version 58,List 58,tickler,NA,1738,4.76,2693,1739,BOI,-,-,Please name all of the ways you could use this object. Keep in mind that one object can have many uses. Separate your responses with a comma.,NA,y,12481,NA,NA,4326,11576,NA,NA,NA,make someone laugh,1
beagraves,7oii8j90z0,Affordance Norms_South Alabama,1,17,2022-11-28T20:12:35+00:00,20.04222417,58,updated stim.csv,Version58.csv,Version 58,List 58,tulip,NA,1724,5.217391304,2794,1725,BOI,-,-,Please name all of the ways you could use this object. Keep in mind that one object can have many uses. Separate your responses with a comma.,NA,y,19900,NA,NA,4138,19251,NA,NA,NA,"make flower arrangment, give as gift",1
beagraves,7oii8j90z0,Affordance Norms_South Alabama,1,18,2022-11-28T20:12:48+00:00,13.26742196,58,updated stim.csv,Version58.csv,Version 58,List 58,door,NA,1731,6.217391304,821,1732,BOI,-,-,Please name all of the ways you could use this object. Keep in mind that one object can have many uses. Separate your responses with a comma.,NA,y,13144,NA,NA,2740,12129,NA,NA,NA,"open, close, slam, shut",1
beagraves,7oii8j90z0,Affordance Norms_South Alabama,1,19,2022-11-28T20:12:56+00:00,7.757276058,58,updated stim.csv,Version58.csv,Version 58,List 58,spices,NA,1737,5.391304348,2471,1738,BOI,-,-,Please name all of the ways you could use this object. Keep in mind that one object can have many uses. Separate your responses with a comma.,NA,y,7633,NA,NA,4073,6847,NA,NA,NA,add flavor,1
beagraves,7oii8j90z0,Affordance Norms_South Alabama,1,20,2022-11-28T20:13:21+00:00,25.22195101,58,updated stim.csv,Version58.csv,Version 58,List 58,tampon,NA,1730,6.208333333,2629,1731,BOI,-,-,Please name all of the ways you could use this object. Keep in mind that one object can have many uses. Separate your responses with a comma.,NA,y,25047,NA,NA,5034,20884,NA,NA,NA,"retain liquid, plug ",1
beagraves,7oii8j90z0,Affordance Norms_South Alabama,1,21,2022-11-28T20:13:41+00:00,19.80802298,58,updated stim.csv,Version58.csv,Version 58,List 58,supervisor,NA,1715,4.269230769,2591,1716,BOI,-,-,Please name all of the ways you could use this object. Keep in mind that one object can have many uses. Separate your responses with a comma.,NA,y,19709,NA,NA,11845,17955,NA,NA,NA,in charge,1
beagraves,7oii8j90z0,Affordance Norms_South Alabama,1,22,2022-11-28T20:13:51+00:00,10.041008,58,updated stim.csv,Version58.csv,Version 58,List 58,postcard,NA,1718,5.76,2042,1719,BOI,-,-,Please name all of the ways you could use this object. Keep in mind that one object can have many uses. Separate your responses with a comma.,NA,y,9946,NA,NA,1615,9520,NA,NA,NA,"send, mail",1
beagraves,7oii8j90z0,Affordance Norms_South Alabama,1,23,2022-11-28T20:13:57+00:00,6.651893854,58,updated stim.csv,Version58.csv,Version 58,List 58,sketch,NA,1720,4.88,2393,1721,BOI,-,-,Please name all of the ways you could use this object. Keep in mind that one object can have many uses. Separate your responses with a comma.,NA,y,6556,NA,NA,2146,5489,NA,NA,NA,drawing,1
beagraves,7oii8j90z0,Affordance Norms_South Alabama,1,24,2022-11-28T20:14:16+00:00,18.31311703,58,updated stim.csv,Version58.csv,Version 58,List 58,Wheelchair,NA,1726,6.132791328,2923,1727,BOI,-,-,Please name all of the ways you could use this object. Keep in mind that one object can have many uses. Separate your responses with a comma.,NA,y,18223,NA,NA,7823,17794,NA,NA,NA,aid handicap,1
beagraves,7oii8j90z0,Affordance Norms_South Alabama,1,25,2022-11-28T20:14:25+00:00,9.277245998,58,updated stim.csv,Version58.csv,Version 58,List 58,lozenge,NA,1714,5.4,1553,1715,BOI,-,-,Please name all of the ways you could use this object. Keep in mind that one object can have many uses. Separate your responses with a comma.,NA,y,9163,NA,NA,5695,8500,NA,NA,NA,"suck, chew",1
beagraves,7oii8j90z0,Affordance Norms_South Alabama,1,26,2022-11-28T20:15:05+00:00,40.41118908,58,updated stim.csv,Version58.csv,Version 58,List 58,starch,NA,1735,4.416666667,2509,1736,BOI,-,-,Please name all of the ways you could use this object. Keep in mind that one object can have many uses. Separate your responses with a comma.,NA,y,40257,NA,NA,5913,35214,NA,NA,NA,"thicken, soothe",1
beagraves,7oii8j90z0,Affordance Norms_South Alabama,1,27,2022-11-28T20:16:19+00:00,74.11024904,58,updated stim.csv,Version58.csv,Version 58,List 58,cleavage,NA,1712,4.625,553,1713,BOI,-,-,Please name all of the ways you could use this object. Keep in mind that one object can have many uses. Separate your responses with a comma.,NA,y,73941,NA,NA,61992,73655,NA,NA,NA,make body more appealing,1
beagraves,7oii8j90z0,Affordance Norms_South Alabama,1,28,2022-11-28T20:16:31+00:00,11.54749298,58,updated stim.csv,Version58.csv,Version 58,List 58,receptionist,NA,1733,4.68,2146,1734,BOI,-,-,Please name all of the ways you could use this object. Keep in mind that one object can have many uses. Separate your responses with a comma.,NA,y,11423,NA,NA,2517,11051,NA,NA,NA,"answer phones, take names",1
beagraves,7oii8j90z0,Affordance Norms_South Alabama,1,29,2022-11-28T20:16:41+00:00,9.606292963,58,updated stim.csv,Version58.csv,Version 58,List 58,whisker,NA,1722,4.863636364,2928,1723,BOI,-,-,Please name all of the ways you could use this object. Keep in mind that one object can have many uses. Separate your responses with a comma.,NA,y,9508,NA,NA,2248,8942,NA,NA,NA,"mix, stir",1
beagraves,7oii8j90z0,Affordance Norms_South Alabama,1,30,2022-11-28T20:17:13+00:00,32.43804097,58,updated stim.csv,Version58.csv,Version 58,List 58,squeegee,NA,1713,5.875,2493,1714,BOI,-,-,Please name all of the ways you could use this object. Keep in mind that one object can have many uses. Separate your responses with a comma.,NA,y,32288,NA,NA,25174,31893,NA,NA,NA,wipe,1
beagraves,7oii8j90z0,Affordance Norms_South Alabama,1,31,2022-11-28T20:17:26+00:00,13.46158791,58,updated stim.csv,Version58.csv,Version 58,List 58,bulldozer,NA,1723,4.565217391,352,1724,BOI,-,-,Please name all of the ways you could use this object. Keep in mind that one object can have many uses. Separate your responses with a comma.,NA,y,13328,NA,NA,4636,12948,NA,NA,NA,"dig, move large objects",1
beagraves,7oii8j90z0,Affordance Norms_South Alabama,1,32,2022-11-28T20:17:31+00:00,4.806178093,58,updated stim.csv,Version58.csv,Version 58,List 58,tabloid,NA,1739,4.52173913,2621,1740,BOI,-,-,Please name all of the ways you could use this object. Keep in mind that one object can have many uses. Separate your responses with a comma.,NA,y,4710,NA,NA,2178,3616,NA,NA,NA,read,1
beagraves,7oii8j90z0,Affordance Norms_South Alabama,1,33,2022-11-28T20:17:38+00:00,6.504465103,58,updated stim.csv,Version58.csv,Version 58,List 58,newsboy,NA,1729,4.869565217,1756,1730,BOI,-,-,Please name all of the ways you could use this object. Keep in mind that one object can have many uses. Separate your responses with a comma.,NA,y,6380,NA,NA,4180,5669,NA,NA,NA,deliver,1
beagraves,7oii8j90z0,Affordance Norms_South Alabama,1,34,2022-11-28T20:17:43+00:00,4.761592865,58,updated stim.csv,Version58.csv,Version 58,List 58,hen,NA,1728,4.652173913,1279,1729,BOI,-,-,Please name all of the ways you could use this object. Keep in mind that one object can have many uses. Separate your responses with a comma.,NA,y,4664,NA,NA,1994,4035,NA,NA,NA,lay eggs,1
beagraves,7oii8j90z0,Affordance Norms_South Alabama,1,35,2022-11-28T20:17:59+00:00,16.47263408,58,updated stim.csv,Version58.csv,Version 58,List 58,crouton,NA,1716,5.724137931,709,1717,BOI,-,-,Please name all of the ways you could use this object. Keep in mind that one object can have many uses. Separate your responses with a comma.,NA,y,16323,NA,NA,4161,15945,NA,NA,NA,"add flavor, crunch, eat",1
beagraves,7oii8j90z0,Affordance Norms_South Alabama,1,36,2022-11-28T20:18:09+00:00,9.71964407,58,updated stim.csv,Version58.csv,Version 58,List 58,guitarist,NA,1732,4.75,1194,1733,BOI,-,-,Please name all of the ways you could use this object. Keep in mind that one object can have many uses. Separate your responses with a comma.,NA,y,9616,NA,NA,1727,7634,NA,NA,NA,"play, teach",1
beagraves,7oii8j90z0,Affordance Norms_South Alabama,1,37,2022-11-28T20:18:17+00:00,8.18867898,58,updated stim.csv,Version58.csv,Version 58,List 58,sideburns,NA,1719,5.166666667,2375,1720,BOI,-,-,Please name all of the ways you could use this object. Keep in mind that one object can have many uses. Separate your responses with a comma.,NA,y,8061,NA,NA,4386,7637,NA,NA,NA,style hair,1
beagraves,7oii8j90z0,Affordance Norms_South Alabama,1,38,2022-11-28T20:18:31+00:00,14.18925595,58,updated stim.csv,Version58.csv,Version 58,List 58,tailor,NA,1717,5.130434783,2626,1718,BOI,-,-,Please name all of the ways you could use this object. Keep in mind that one object can have many uses. Separate your responses with a comma.,NA,y,14095,NA,NA,3523,12748,NA,NA,NA,"size, measurements",1
beagraves,7oii8j90z0,Affordance Norms_South Alabama,1,39,2022-11-28T20:18:41+00:00,10.06463504,58,updated stim.csv,Version58.csv,Version 58,List 58,shoe,NA,1721,6.458333333,2349,1722,BOI,-,-,Please name all of the ways you could use this object. Keep in mind that one object can have many uses. Separate your responses with a comma.,NA,y,9963,NA,NA,3094,9305,NA,NA,NA,"put on, take off",1
beagraves,7oii8j90z0,Affordance Norms_South Alabama,1,40,2022-11-28T20:18:49+00:00,8.091197968,58,updated stim.csv,Version58.csv,Version 58,List 58,examiner,NA,1740,4.565217391,924,1741,BOI,-,-,Please name all of the ways you could use this object. Keep in mind that one object can have many uses. Separate your responses with a comma.,NA,y,8001,NA,NA,2360,7706,NA,NA,NA,take information,1
egn2122EGN,kbp60xxy4v,Affordance Norms_South Alabama,1,11,2022-11-29T05:31:14+00:00,12.24575496,70,updated stim.csv,Version70.csv,Version 70,List 70,furnishings,NA,2080,6.166666667,1067,2081,BOI,-,-,Please name all of the ways you could use this object. Keep in mind that one object can have many uses. Separate your responses with a comma.,NA,y,11882,NA,NA,3632,11634,NA,NA,NA,"chair,table,couch,lamp",1
egn2122EGN,kbp60xxy4v,Affordance Norms_South Alabama,1,12,2022-11-29T05:31:16+00:00,2.262093067,70,updated stim.csv,Version70.csv,Version 70,List 70,paddle,NA,2086,5.68,1842,2087,BOI,-,-,Please name all of the ways you could use this object. Keep in mind that one object can have many uses. Separate your responses with a comma.,NA,y,1889,NA,NA,-1,-1,NA,NA,NA,,1
egn2122EGN,kbp60xxy4v,Affordance Norms_South Alabama,1,13,2022-11-29T05:31:17+00:00,1.265800953,70,updated stim.csv,Version70.csv,Version 70,List 70,rib,NA,2079,5.92,2164,2080,BOI,-,-,Please name all of the ways you could use this object. Keep in mind that one object can have many uses. Separate your responses with a comma.,NA,y,895,NA,NA,-1,-1,NA,NA,NA,,1
egn2122EGN,kbp60xxy4v,Affordance Norms_South Alabama,1,14,2022-11-29T05:31:20+00:00,2.703987122,70,updated stim.csv,Version70.csv,Version 70,List 70,camera,NA,2089,6.086956522,406,2090,BOI,-,-,Please name all of the ways you could use this object. Keep in mind that one object can have many uses. Separate your responses with a comma.,NA,y,2334,NA,NA,1302,2132,NA,NA,NA,picture,1
egn2122EGN,kbp60xxy4v,Affordance Norms_South Alabama,1,15,2022-11-29T05:31:22+00:00,1.542769909,70,updated stim.csv,Version70.csv,Version 70,List 70,bedpost,NA,2073,5.346153846,186,2074,BOI,-,-,Please name all of the ways you could use this object. Keep in mind that one object can have many uses. Separate your responses with a comma.,NA,y,1178,NA,NA,-1,-1,NA,NA,NA,,1
egn2122EGN,kbp60xxy4v,Affordance Norms_South Alabama,1,16,2022-11-29T05:31:29+00:00,7.318772078,70,updated stim.csv,Version70.csv,Version 70,List 70,match,NA,2084,4.565217391,1620,2085,BOI,-,-,Please name all of the ways you could use this object. Keep in mind that one object can have many uses. Separate your responses with a comma.,NA,y,6962,NA,NA,-1,-1,NA,NA,NA,,1
egn2122EGN,kbp60xxy4v,Affordance Norms_South Alabama,1,17,2022-11-29T05:31:30+00:00,1.083285809,70,updated stim.csv,Version70.csv,Version 70,List 70,daggers,NA,2100,4.75,748,2101,BOI,-,-,Please name all of the ways you could use this object. Keep in mind that one object can have many uses. Separate your responses with a comma.,NA,y,721,NA,NA,-1,-1,NA,NA,NA,,1
egn2122EGN,kbp60xxy4v,Affordance Norms_South Alabama,1,18,2022-11-29T05:31:32+00:00,2.293497086,70,updated stim.csv,Version70.csv,Version 70,List 70,passport,NA,2087,5,1883,2088,BOI,-,-,Please name all of the ways you could use this object. Keep in mind that one object can have many uses. Separate your responses with a comma.,NA,y,1924,NA,NA,-1,-1,NA,NA,NA,,1
egn2122EGN,kbp60xxy4v,Affordance Norms_South Alabama,1,19,2022-11-29T05:31:33+00:00,1.000857115,70,updated stim.csv,Version70.csv,Version 70,List 70,executioner,NA,2078,4.44,927,2079,BOI,-,-,Please name all of the ways you could use this object. Keep in mind that one object can have many uses. Separate your responses with a comma.,NA,y,637,NA,NA,-1,-1,NA,NA,NA,,1
egn2122EGN,kbp60xxy4v,Affordance Norms_South Alabama,1,20,2022-11-29T05:31:35+00:00,1.768797874,70,updated stim.csv,Version70.csv,Version 70,List 70,vibrator,NA,2077,6.464285714,2855,2078,BOI,-,-,Please name all of the ways you could use this object. Keep in mind that one object can have many uses. Separate your responses with a comma.,NA,y,1409,NA,NA,-1,-1,NA,NA,NA,,1
egn2122EGN,kbp60xxy4v,Affordance Norms_South Alabama,1,21,2022-11-29T05:31:36+00:00,0.948657036,70,updated stim.csv,Version70.csv,Version 70,List 70,boatman,NA,2072,4.76,257,2073,BOI,-,-,Please name all of the ways you could use this object. Keep in mind that one object can have many uses. Separate your responses with a comma.,NA,y,590,NA,NA,-1,-1,NA,NA,NA,,1
egn2122EGN,kbp60xxy4v,Affordance Norms_South Alabama,1,22,2022-11-29T05:31:37+00:00,0.991530895,70,updated stim.csv,Version70.csv,Version 70,List 70,cobblestone,NA,2092,5.086956522,583,2093,BOI,-,-,Please name all of the ways you could use this object. Keep in mind that one object can have many uses. Separate your responses with a comma.,NA,y,627,NA,NA,-1,-1,NA,NA,NA,,1
egn2122EGN,kbp60xxy4v,Affordance Norms_South Alabama,1,23,2022-11-29T05:31:38+00:00,0.937635183,70,updated stim.csv,Version70.csv,Version 70,List 70,dumbwaiter,NA,2074,4.44,866,2075,BOI,-,-,Please name all of the ways you could use this object. Keep in mind that one object can have many uses. Separate your responses with a comma.,NA,y,564,NA,NA,-1,-1,NA,NA,NA,,1
egn2122EGN,kbp60xxy4v,Affordance Norms_South Alabama,1,24,2022-11-29T05:31:39+00:00,1.23978281,70,updated stim.csv,Version70.csv,Version 70,List 70,mallet,NA,2098,5.56,1584,2099,BOI,-,-,Please name all of the ways you could use this object. Keep in mind that one object can have many uses. Separate your responses with a comma.,NA,y,877,NA,NA,-1,-1,NA,NA,NA,,1
egn2122EGN,kbp60xxy4v,Affordance Norms_South Alabama,1,25,2022-11-29T05:31:43+00:00,3.357567072,70,updated stim.csv,Version70.csv,Version 70,List 70,caterpillar,NA,2085,5.083333333,458,2086,BOI,-,-,Please name all of the ways you could use this object. Keep in mind that one object can have many uses. Separate your responses with a comma.,NA,y,2988,NA,NA,1579,2824,NA,NA,NA,butterfly,1
egn2122EGN,kbp60xxy4v,Affordance Norms_South Alabama,1,26,2022-11-29T05:31:47+00:00,3.971354961,70,updated stim.csv,Version70.csv,Version 70,List 70,captain,NA,2097,4.913043478,427,2098,BOI,-,-,Please name all of the ways you could use this object. Keep in mind that one object can have many uses. Separate your responses with a comma.,NA,y,3609,NA,NA,2112,3333,NA,NA,NA,lead boat,1
egn2122EGN,kbp60xxy4v,Affordance Norms_South Alabama,1,27,2022-11-29T05:31:54+00:00,7.221296072,70,updated stim.csv,Version70.csv,Version 70,List 70,democrat,NA,2088,4.416666667,771,2089,BOI,-,-,Please name all of the ways you could use this object. Keep in mind that one object can have many uses. Separate your responses with a comma.,NA,y,6858,NA,NA,3066,4173,NA,NA,NA,,1
egn2122EGN,kbp60xxy4v,Affordance Norms_South Alabama,1,28,2022-11-29T05:31:56+00:00,1.923079967,70,updated stim.csv,Version70.csv,Version 70,List 70,jockstrap,NA,2091,5.739130435,1387,2092,BOI,-,-,Please name all of the ways you could use this object. Keep in mind that one object can have many uses. Separate your responses with a comma.,NA,y,1564,NA,NA,-1,-1,NA,NA,NA,,1
egn2122EGN,kbp60xxy4v,Affordance Norms_South Alabama,1,29,2022-11-29T05:31:58+00:00,1.98812604,70,updated stim.csv,Version70.csv,Version 70,List 70,greyhound,NA,2071,4.636363636,1174,2072,BOI,-,-,Please name all of the ways you could use this object. Keep in mind that one object can have many uses. Separate your responses with a comma.,NA,y,1626,NA,NA,1286,1468,NA,NA,NA,dog,1
egn2122EGN,kbp60xxy4v,Affordance Norms_South Alabama,1,30,2022-11-29T05:32:00+00:00,2.081809044,70,updated stim.csv,Version70.csv,Version 70,List 70,sawdust,NA,2083,4.4,2254,2084,BOI,-,-,Please name all of the ways you could use this object. Keep in mind that one object can have many uses. Separate your responses with a comma.,NA,y,1711,NA,NA,-1,-1,NA,NA,NA,,1
egn2122EGN,kbp60xxy4v,Affordance Norms_South Alabama,1,31,2022-11-29T05:32:02+00:00,2.036352873,70,updated stim.csv,Version70.csv,Version 70,List 70,Microscope,NA,2090,5.721024259,1655,2091,BOI,-,-,Please name all of the ways you could use this object. Keep in mind that one object can have many uses. Separate your responses with a comma.,NA,y,1674,NA,NA,-1,-1,NA,NA,NA,,1
egn2122EGN,kbp60xxy4v,Affordance Norms_South Alabama,1,32,2022-11-29T05:32:09+00:00,7.051577091,70,updated stim.csv,Version70.csv,Version 70,List 70,wall,NA,2076,4.68,2886,2077,BOI,-,-,Please name all of the ways you could use this object. Keep in mind that one object can have many uses. Separate your responses with a comma.,NA,y,6694,NA,NA,2454,6516,NA,NA,NA,cinderblock,1
egn2122EGN,kbp60xxy4v,Affordance Norms_South Alabama,1,33,2022-11-29T05:32:11+00:00,1.660722017,70,updated stim.csv,Version70.csv,Version 70,List 70,teakettle,NA,2094,6.125,2646,2095,BOI,-,-,Please name all of the ways you could use this object. Keep in mind that one object can have many uses. Separate your responses with a comma.,NA,y,1294,NA,NA,-1,-1,NA,NA,NA,,1
egn2122EGN,kbp60xxy4v,Affordance Norms_South Alabama,1,34,2022-11-29T05:32:12+00:00,0.987076998,70,updated stim.csv,Version70.csv,Version 70,List 70,skullcap,NA,2075,4.962962963,2403,2076,BOI,-,-,Please name all of the ways you could use this object. Keep in mind that one object can have many uses. Separate your responses with a comma.,NA,y,623,NA,NA,-1,-1,NA,NA,NA,,1
egn2122EGN,kbp60xxy4v,Affordance Norms_South Alabama,1,35,2022-11-29T05:32:12+00:00,0.865123987,70,updated stim.csv,Version70.csv,Version 70,List 70,lobster,NA,2099,4.92,1534,2100,BOI,-,-,Please name all of the ways you could use this object. Keep in mind that one object can have many uses. Separate your responses with a comma.,NA,y,493,NA,NA,-1,-1,NA,NA,NA,,1
egn2122EGN,kbp60xxy4v,Affordance Norms_South Alabama,1,36,2022-11-29T05:32:13+00:00,0.842106104,70,updated stim.csv,Version70.csv,Version 70,List 70,sawhorse,NA,2095,5.125,2255,2096,BOI,-,-,Please name all of the ways you could use this object. Keep in mind that one object can have many uses. Separate your responses with a comma.,NA,y,479,NA,NA,-1,-1,NA,NA,NA,,1
egn2122EGN,kbp60xxy4v,Affordance Norms_South Alabama,1,37,2022-11-29T05:32:14+00:00,0.78922677,70,updated stim.csv,Version70.csv,Version 70,List 70,mitten,NA,2081,6.041666667,1671,2082,BOI,-,-,Please name all of the ways you could use this object. Keep in mind that one object can have many uses. Separate your responses with a comma.,NA,y,420,NA,NA,-1,-1,NA,NA,NA,,1
egn2122EGN,kbp60xxy4v,Affordance Norms_South Alabama,1,38,2022-11-29T05:32:15+00:00,0.723341227,70,updated stim.csv,Version70.csv,Version 70,List 70,eyeglasses,NA,2096,6.28,934,2097,BOI,-,-,Please name all of the ways you could use this object. Keep in mind that one object can have many uses. Separate your responses with a comma.,NA,y,364,NA,NA,-1,-1,NA,NA,NA,,1
egn2122EGN,kbp60xxy4v,Affordance Norms_South Alabama,1,39,2022-11-29T05:32:16+00:00,0.771336794,70,updated stim.csv,Version70.csv,Version 70,List 70,goalkeeper,NA,2082,4.458333333,1120,2083,BOI,-,-,Please name all of the ways you could use this object. Keep in mind that one object can have many uses. Separate your responses with a comma.,NA,y,389,NA,NA,-1,-1,NA,NA,NA,,1
egn2122EGN,kbp60xxy4v,Affordance Norms_South Alabama,1,40,2022-11-29T05:32:16+00:00,0.636635065,70,updated stim.csv,Version70.csv,Version 70,List 70,bush,NA,2093,4.8,369,2094,BOI,-,-,Please name all of the ways you could use this object. Keep in mind that one object can have many uses. Separate your responses with a comma.,NA,y,263,NA,NA,-1,-1,NA,NA,NA,,1
IANB,q8gf8ghp50,Affordance Norms_South Alabama,1,11,2022-11-30T23:03:21+00:00,5.072141171,99,updated stim.csv,Version99.csv,Version 99,List 99,springboard,NA,2943,5,2488,2944,BOI,-,-,Please name all of the ways you could use this object. Keep in mind that one object can have many uses. Separate your responses with a comma.,NA,y,4889,NA,NA,3590,4802,NA,NA,NA,Gymnastics,1
IANB,q8gf8ghp50,Affordance Norms_South Alabama,1,12,2022-11-30T23:03:24+00:00,2.589275837,99,updated stim.csv,Version99.csv,Version 99,List 99,tar,NA,2951,4.37037037,2635,2952,BOI,-,-,Please name all of the ways you could use this object. Keep in mind that one object can have many uses. Separate your responses with a comma.,NA,y,2484,NA,NA,1295,2188,NA,NA,NA,Roadwork,1
IANB,q8gf8ghp50,Affordance Norms_South Alabama,1,13,2022-11-30T23:03:48+00:00,24.77094197,99,updated stim.csv,Version99.csv,Version 99,List 99,forefinger,NA,2965,5.16,1044,2966,BOI,-,-,Please name all of the ways you could use this object. Keep in mind that one object can have many uses. Separate your responses with a comma.,NA,y,24601,NA,NA,12407,24389,NA,NA,NA,Tying shoes,1
IANB,q8gf8ghp50,Affordance Norms_South Alabama,1,14,2022-11-30T23:03:56+00:00,7.963971138,99,updated stim.csv,Version99.csv,Version 99,List 99,vaseline,NA,2964,5.608695652,2839,2965,BOI,-,-,Please name all of the ways you could use this object. Keep in mind that one object can have many uses. Separate your responses with a comma.,NA,y,7788,NA,NA,6171,7697,NA,NA,NA,Skin repair,1
IANB,q8gf8ghp50,Affordance Norms_South Alabama,1,15,2022-11-30T23:03:58+00:00,2.242013931,99,updated stim.csv,Version99.csv,Version 99,List 99,thyme,NA,2941,4.958333333,2691,2942,BOI,-,-,Please name all of the ways you could use this object. Keep in mind that one object can have many uses. Separate your responses with a comma.,NA,y,2137,NA,NA,1292,2002,NA,NA,NA,Cooking,1
IANB,q8gf8ghp50,Affordance Norms_South Alabama,1,16,2022-11-30T23:04:05+00:00,6.20334816,99,updated stim.csv,Version99.csv,Version 99,List 99,plant,NA,2963,5.652173913,1989,2964,BOI,-,-,Please name all of the ways you could use this object. Keep in mind that one object can have many uses. Separate your responses with a comma.,NA,y,6031,NA,NA,4306,5824,NA,NA,NA,Cure depression,1
IANB,q8gf8ghp50,Affordance Norms_South Alabama,1,17,2022-11-30T23:04:08+00:00,3.324345827,99,updated stim.csv,Version99.csv,Version 99,List 99,rat,NA,2950,4.608695652,2139,2951,BOI,-,-,Please name all of the ways you could use this object. Keep in mind that one object can have many uses. Separate your responses with a comma.,NA,y,3223,NA,NA,1442,2970,NA,NA,NA,Cure depression,1
IANB,q8gf8ghp50,Affordance Norms_South Alabama,1,18,2022-11-30T23:04:16+00:00,8.216632128,99,updated stim.csv,Version99.csv,Version 99,List 99,aunt,NA,2960,5.041666667,98,2961,BOI,-,-,Please name all of the ways you could use this object. Keep in mind that one object can have many uses. Separate your responses with a comma.,NA,y,8041,NA,NA,3150,7613,NA,NA,NA,Family member,1
IANB,q8gf8ghp50,Affordance Norms_South Alabama,1,19,2022-11-30T23:04:22+00:00,5.707487822,99,updated stim.csv,Version99.csv,Version 99,List 99,calender,NA,2945,5.84,401,2946,BOI,-,-,Please name all of the ways you could use this object. Keep in mind that one object can have many uses. Separate your responses with a comma.,NA,y,5534,NA,NA,1667,5477,NA,NA,NA,Know the date,1
IANB,q8gf8ghp50,Affordance Norms_South Alabama,1,20,2022-11-30T23:04:27+00:00,4.617650032,99,updated stim.csv,Version99.csv,Version 99,List 99,armpit,NA,2967,5.52,75,2968,BOI,-,-,Please name all of the ways you could use this object. Keep in mind that one object can have many uses. Separate your responses with a comma.,NA,y,4368,NA,NA,2358,4252,NA,NA,NA,armpit farts,1
IANB,q8gf8ghp50,Affordance Norms_South Alabama,1,21,2022-11-30T23:04:29+00:00,2.404469013,99,updated stim.csv,Version99.csv,Version 99,List 99,horseradish,NA,2942,5.24,1315,2943,BOI,-,-,Please name all of the ways you could use this object. Keep in mind that one object can have many uses. Separate your responses with a comma.,NA,y,2297,NA,NA,1459,2155,NA,NA,NA,cooking,1
IANB,q8gf8ghp50,Affordance Norms_South Alabama,1,22,2022-11-30T23:04:32+00:00,2.693861008,99,updated stim.csv,Version99.csv,Version 99,List 99,toast,NA,2953,6.2,2709,2954,BOI,-,-,Please name all of the ways you could use this object. Keep in mind that one object can have many uses. Separate your responses with a comma.,NA,y,2592,NA,NA,1914,2462,NA,NA,NA,eating,1
IANB,q8gf8ghp50,Affordance Norms_South Alabama,1,23,2022-11-30T23:04:34+00:00,2.690569162,99,updated stim.csv,Version99.csv,Version 99,List 99,employer,NA,2944,5.291666667,904,2945,BOI,-,-,Please name all of the ways you could use this object. Keep in mind that one object can have many uses. Separate your responses with a comma.,NA,y,2591,NA,NA,1934,2379,NA,NA,NA,money,1
IANB,q8gf8ghp50,Affordance Norms_South Alabama,1,24,2022-11-30T23:04:37+00:00,2.474553823,99,updated stim.csv,Version99.csv,Version 99,List 99,stepfather,NA,2948,5.16,2526,2949,BOI,-,-,Please name all of the ways you could use this object. Keep in mind that one object can have many uses. Separate your responses with a comma.,NA,y,2380,NA,NA,1640,2282,NA,NA,NA,nothing,1
IANB,q8gf8ghp50,Affordance Norms_South Alabama,1,25,2022-11-30T23:04:42+00:00,5.57170105,99,updated stim.csv,Version99.csv,Version 99,List 99,bomb,NA,2970,4.384615385,264,2971,BOI,-,-,Please name all of the ways you could use this object. Keep in mind that one object can have many uses. Separate your responses with a comma.,NA,y,5402,NA,NA,2746,5113,NA,NA,NA,terrorism,1
IANB,q8gf8ghp50,Affordance Norms_South Alabama,1,26,2022-11-30T23:04:49+00:00,6.523266077,99,updated stim.csv,Version99.csv,Version 99,List 99,cattle,NA,2969,4.625,463,2970,BOI,-,-,Please name all of the ways you could use this object. Keep in mind that one object can have many uses. Separate your responses with a comma.,NA,y,6349,NA,NA,1412,6145,NA,NA,NA,producing milk,1
IANB,q8gf8ghp50,Affordance Norms_South Alabama,1,27,2022-11-30T23:04:52+00:00,2.866057873,99,updated stim.csv,Version99.csv,Version 99,List 99,doughnut,NA,2966,6.260869565,834,2967,BOI,-,-,Please name all of the ways you could use this object. Keep in mind that one object can have many uses. Separate your responses with a comma.,NA,y,2763,NA,NA,1606,2651,NA,NA,NA,eating,1
IANB,q8gf8ghp50,Affordance Norms_South Alabama,1,28,2022-11-30T23:04:58+00:00,5.809792995,99,updated stim.csv,Version99.csv,Version 99,List 99,flour,NA,2946,5.875,1014,2947,BOI,-,-,Please name all of the ways you could use this object. Keep in mind that one object can have many uses. Separate your responses with a comma.,NA,y,5642,NA,NA,1838,5524,NA,NA,NA,cooking,1
IANB,q8gf8ghp50,Affordance Norms_South Alabama,1,29,2022-11-30T23:05:04+00:00,6.231045008,99,updated stim.csv,Version99.csv,Version 99,List 99,builder,NA,2954,4.826086957,349,2955,BOI,-,-,Please name all of the ways you could use this object. Keep in mind that one object can have many uses. Separate your responses with a comma.,NA,y,6052,NA,NA,5439,5824,NA,NA,NA,wall,1
IANB,q8gf8ghp50,Affordance Norms_South Alabama,1,30,2022-11-30T23:05:10+00:00,5.866799116,99,updated stim.csv,Version99.csv,Version 99,List 99,river,NA,2947,4.64,2172,2948,BOI,-,-,Please name all of the ways you could use this object. Keep in mind that one object can have many uses. Separate your responses with a comma.,NA,y,5685,NA,NA,4289,5542,NA,NA,NA,water source,1
IANB,q8gf8ghp50,Affordance Norms_South Alabama,1,31,2022-11-30T23:05:12+00:00,2.779206038,99,updated stim.csv,Version99.csv,Version 99,List 99,building,NA,2968,5.208333333,350,2969,BOI,-,-,Please name all of the ways you could use this object. Keep in mind that one object can have many uses. Separate your responses with a comma.,NA,y,2673,NA,NA,2002,2580,NA,NA,NA,living,1
IANB,q8gf8ghp50,Affordance Norms_South Alabama,1,32,2022-11-30T23:06:02+00:00,49.65495896,99,updated stim.csv,Version99.csv,Version 99,List 99,mitt,NA,2959,6.08,1670,2960,BOI,-,-,Please name all of the ways you could use this object. Keep in mind that one object can have many uses. Separate your responses with a comma.,NA,y,49475,NA,NA,48124,49256,NA,NA,NA,keep warm,1
IANB,q8gf8ghp50,Affordance Norms_South Alabama,1,33,2022-11-30T23:06:09+00:00,7.302845955,99,updated stim.csv,Version99.csv,Version 99,List 99,concert,NA,2949,4.714285714,617,2950,BOI,-,-,Please name all of the ways you could use this object. Keep in mind that one object can have many uses. Separate your responses with a comma.,NA,y,7119,NA,NA,1832,6505,NA,NA,NA,serotonin ,1
IANB,q8gf8ghp50,Affordance Norms_South Alabama,1,34,2022-11-30T23:06:13+00:00,3.847846031,99,updated stim.csv,Version99.csv,Version 99,List 99,horseman,NA,2956,4.28,1314,2957,BOI,-,-,Please name all of the ways you could use this object. Keep in mind that one object can have many uses. Separate your responses with a comma.,NA,y,3736,NA,NA,2189,3524,NA,NA,NA,ride a horse,1
IANB,q8gf8ghp50,Affordance Norms_South Alabama,1,35,2022-11-30T23:06:20+00:00,6.385082006,99,updated stim.csv,Version99.csv,Version 99,List 99,recorder,NA,2962,5.8,2148,2963,BOI,-,-,Please name all of the ways you could use this object. Keep in mind that one object can have many uses. Separate your responses with a comma.,NA,y,6203,NA,NA,2570,5950,NA,NA,NA,music production,1
IANB,q8gf8ghp50,Affordance Norms_South Alabama,1,36,2022-11-30T23:06:24+00:00,4.230082035,99,updated stim.csv,Version99.csv,Version 99,List 99,garbage,NA,2952,4.96,1075,2953,BOI,-,-,Please name all of the ways you could use this object. Keep in mind that one object can have many uses. Separate your responses with a comma.,NA,y,4049,NA,NA,3329,3918,NA,NA,NA,nothing,1
IANB,q8gf8ghp50,Affordance Norms_South Alabama,1,37,2022-11-30T23:07:10+00:00,46.4708519,99,updated stim.csv,Version99.csv,Version 99,List 99,stall,NA,2955,4.625,2504,2956,BOI,-,-,Please name all of the ways you could use this object. Keep in mind that one object can have many uses. Separate your responses with a comma.,NA,y,46281,NA,NA,45313,46051,NA,NA,NA,privacy,1
IANB,q8gf8ghp50,Affordance Norms_South Alabama,1,38,2022-11-30T23:07:14+00:00,4.045766115,99,updated stim.csv,Version99.csv,Version 99,List 99,actor,NA,2961,4.739130435,10,2962,BOI,-,-,Please name all of the ways you could use this object. Keep in mind that one object can have many uses. Separate your responses with a comma.,NA,y,3940,NA,NA,1665,3731,NA,NA,NA,serotonin,1
IANB,q8gf8ghp50,Affordance Norms_South Alabama,1,39,2022-11-30T23:07:17+00:00,3.019099951,99,updated stim.csv,Version99.csv,Version 99,List 99,contraceptive,NA,2958,5.391304348,629,2959,BOI,-,-,Please name all of the ways you could use this object. Keep in mind that one object can have many uses. Separate your responses with a comma.,NA,y,2919,NA,NA,2064,2806,NA,NA,NA,no kids,1
IANB,q8gf8ghp50,Affordance Norms_South Alabama,1,40,2022-11-30T23:08:05+00:00,47.90152597,99,updated stim.csv,Version99.csv,Version 99,List 99,casebook,NA,2957,5.391304348,446,2958,BOI,-,-,Please name all of the ways you could use this object. Keep in mind that one object can have many uses. Separate your responses with a comma.,NA,y,47729,NA,NA,46193,47604,NA,NA,NA,no idea,1
J00557817DPD,mvzwttqm9n,Affordance Norms_South Alabama,1,11,2022-11-30T03:59:32+00:00,12.69244504,89,updated stim.csv,Version89.csv,Version 89,List 89,garb,NA,2653,4.541666667,1074,2654,BOI,-,-,Please name all of the ways you could use this object. Keep in mind that one object can have many uses. Separate your responses with a comma.,NA,y,12385,NA,NA,1606,6592,NA,NA,NA,"wear, dress",1
J00557817DPD,mvzwttqm9n,Affordance Norms_South Alabama,1,12,2022-11-30T04:00:02+00:00,30.37335491,89,updated stim.csv,Version89.csv,Version 89,List 89,waitress,NA,2649,4.826086957,2884,2650,BOI,-,-,Please name all of the ways you could use this object. Keep in mind that one object can have many uses. Separate your responses with a comma.,NA,y,30049,NA,NA,1701,28647,NA,NA,NA,"serve, pay",1
J00557817DPD,mvzwttqm9n,Affordance Norms_South Alabama,1,13,2022-11-30T04:00:18+00:00,15.53374887,89,updated stim.csv,Version89.csv,Version 89,List 89,plaintiff,NA,2654,4.375,1985,2655,BOI,-,-,Please name all of the ways you could use this object. Keep in mind that one object can have many uses. Separate your responses with a comma.,NA,y,15229,NA,NA,4890,13099,NA,NA,NA,"decide, choose, debate, argue",1
J00557817DPD,mvzwttqm9n,Affordance Norms_South Alabama,1,14,2022-11-30T04:00:27+00:00,9.086170197,89,updated stim.csv,Version89.csv,Version 89,List 89,hat,NA,2652,6.44,1258,2653,BOI,-,-,Please name all of the ways you could use this object. Keep in mind that one object can have many uses. Separate your responses with a comma.,NA,y,8784,NA,NA,1159,7263,NA,NA,NA,"wear, fold, throw",1
J00557817DPD,mvzwttqm9n,Affordance Norms_South Alabama,1,15,2022-11-30T04:00:37+00:00,10.55588102,89,updated stim.csv,Version89.csv,Version 89,List 89,jar,NA,2655,6.208333333,1373,2656,BOI,-,-,Please name all of the ways you could use this object. Keep in mind that one object can have many uses. Separate your responses with a comma.,NA,y,10262,NA,NA,1548,9132,NA,NA,NA,"open, close, contain",1
J00557817DPD,mvzwttqm9n,Affordance Norms_South Alabama,1,16,2022-11-30T04:00:50+00:00,12.69302297,89,updated stim.csv,Version89.csv,Version 89,List 89,entree,NA,2645,5.28,912,2646,BOI,-,-,Please name all of the ways you could use this object. Keep in mind that one object can have many uses. Separate your responses with a comma.,NA,y,12389,NA,NA,1347,11356,NA,NA,NA,"eat, cook, serve, microwave",1
J00557817DPD,mvzwttqm9n,Affordance Norms_South Alabama,1,17,2022-11-30T04:01:01+00:00,11.35844898,89,updated stim.csv,Version89.csv,Version 89,List 89,congresswoman,NA,2648,4.32,627,2649,BOI,-,-,Please name all of the ways you could use this object. Keep in mind that one object can have many uses. Separate your responses with a comma.,NA,y,11046,NA,NA,1725,10142,NA,NA,NA,"vote, debate",1
J00557817DPD,mvzwttqm9n,Affordance Norms_South Alabama,1,18,2022-11-30T04:01:10+00:00,8.875898838,89,updated stim.csv,Version89.csv,Version 89,List 89,croquette,NA,2669,4.681818182,702,2670,BOI,-,-,Please name all of the ways you could use this object. Keep in mind that one object can have many uses. Separate your responses with a comma.,NA,y,8558,NA,NA,2340,7660,NA,NA,NA,"cook, eat, serve, bake, fry",1
J00557817DPD,mvzwttqm9n,Affordance Norms_South Alabama,1,19,2022-11-30T04:01:18+00:00,7.895057201,89,updated stim.csv,Version89.csv,Version 89,List 89,trash,NA,2663,5.136363636,2764,2664,BOI,-,-,Please name all of the ways you could use this object. Keep in mind that one object can have many uses. Separate your responses with a comma.,NA,y,7569,NA,NA,1407,3831,NA,NA,NA,"throw, dispose",1
J00557817DPD,mvzwttqm9n,Affordance Norms_South Alabama,1,20,2022-11-30T04:01:31+00:00,13.28183699,89,updated stim.csv,Version89.csv,Version 89,List 89,lick,NA,2644,4.652173913,1502,2645,BOI,-,-,Please name all of the ways you could use this object. Keep in mind that one object can have many uses. Separate your responses with a comma.,NA,y,12961,NA,NA,4726,11839,NA,NA,NA,"tongue, eat, kiss",1
J00557817DPD,mvzwttqm9n,Affordance Norms_South Alabama,1,21,2022-11-30T04:01:40+00:00,8.200316906,89,updated stim.csv,Version89.csv,Version 89,List 89,guestroom,NA,2642,4.538461538,1190,2643,BOI,-,-,Please name all of the ways you could use this object. Keep in mind that one object can have many uses. Separate your responses with a comma.,NA,y,7906,NA,NA,1440,6968,NA,NA,NA,"sleep, relax, hide",1
J00557817DPD,mvzwttqm9n,Affordance Norms_South Alabama,1,22,2022-11-30T04:01:51+00:00,11.06006598,89,updated stim.csv,Version89.csv,Version 89,List 89,brooch,NA,2664,5.130434783,331,2665,BOI,-,-,Please name all of the ways you could use this object. Keep in mind that one object can have many uses. Separate your responses with a comma.,NA,y,10746,NA,NA,3520,9793,NA,NA,NA,"wear, polish, adorn",1
J00557817DPD,mvzwttqm9n,Affordance Norms_South Alabama,1,23,2022-11-30T04:02:00+00:00,9.673604965,89,updated stim.csv,Version89.csv,Version 89,List 89,band,NA,2643,4.384615385,137,2644,BOI,-,-,Please name all of the ways you could use this object. Keep in mind that one object can have many uses. Separate your responses with a comma.,NA,y,9365,NA,NA,1291,7339,NA,NA,NA,"wear, play",1
J00557817DPD,mvzwttqm9n,Affordance Norms_South Alabama,1,24,2022-11-30T04:02:17+00:00,16.80973315,89,updated stim.csv,Version89.csv,Version 89,List 89,rocker,NA,2656,5.04,2184,2657,BOI,-,-,Please name all of the ways you could use this object. Keep in mind that one object can have many uses. Separate your responses with a comma.,NA,y,16480,NA,NA,2605,15534,NA,NA,NA,"rock, sway, sleep, sit",1
J00557817DPD,mvzwttqm9n,Affordance Norms_South Alabama,1,25,2022-11-30T04:02:30+00:00,12.68662596,89,updated stim.csv,Version89.csv,Version 89,List 89,catwalk,NA,2665,4.652173913,464,2666,BOI,-,-,Please name all of the ways you could use this object. Keep in mind that one object can have many uses. Separate your responses with a comma.,NA,y,12368,NA,NA,1285,11414,NA,NA,NA,"walk, travel, observe",1
J00557817DPD,mvzwttqm9n,Affordance Norms_South Alabama,1,26,2022-11-30T04:02:36+00:00,6.384032011,89,updated stim.csv,Version89.csv,Version 89,List 89,lace,NA,2641,4.869565217,1445,2642,BOI,-,-,Please name all of the ways you could use this object. Keep in mind that one object can have many uses. Separate your responses with a comma.,NA,y,6063,NA,NA,1645,5077,NA,NA,NA,"tie, wrap",1
J00557817DPD,mvzwttqm9n,Affordance Norms_South Alabama,1,27,2022-11-30T04:02:54+00:00,18.26468682,89,updated stim.csv,Version89.csv,Version 89,List 89,husband,NA,2662,6.041666667,1338,2663,BOI,-,-,Please name all of the ways you could use this object. Keep in mind that one object can have many uses. Separate your responses with a comma.,NA,y,17952,NA,NA,3437,17334,NA,NA,NA,"work, cook, clean, serve, marry",1
J00557817DPD,mvzwttqm9n,Affordance Norms_South Alabama,1,28,2022-11-30T04:03:01+00:00,6.662278175,89,updated stim.csv,Version89.csv,Version 89,List 89,hamburger,NA,2660,6.148148148,1222,2661,BOI,-,-,Please name all of the ways you could use this object. Keep in mind that one object can have many uses. Separate your responses with a comma.,NA,y,6343,NA,NA,1142,3517,NA,NA,NA,"eat, cook, fry",1
J00557817DPD,mvzwttqm9n,Affordance Norms_South Alabama,1,29,2022-11-30T04:03:07+00:00,5.724537849,89,updated stim.csv,Version89.csv,Version 89,List 89,radio,NA,2647,5.291666667,2122,2648,BOI,-,-,Please name all of the ways you could use this object. Keep in mind that one object can have many uses. Separate your responses with a comma.,NA,y,5393,NA,NA,1263,3647,NA,NA,NA,listen,1
J00557817DPD,mvzwttqm9n,Affordance Norms_South Alabama,1,30,2022-11-30T04:03:15+00:00,8.17611599,89,updated stim.csv,Version89.csv,Version 89,List 89,crackers,NA,2667,5.913043478,677,2668,BOI,-,-,Please name all of the ways you could use this object. Keep in mind that one object can have many uses. Separate your responses with a comma.,NA,y,7879,NA,NA,1053,6981,NA,NA,NA,"eat, bake, dip",1
J00557817DPD,mvzwttqm9n,Affordance Norms_South Alabama,1,31,2022-11-30T04:03:22+00:00,7.05312109,89,updated stim.csv,Version89.csv,Version 89,List 89,needles,NA,2659,5.416666667,1747,2660,BOI,-,-,Please name all of the ways you could use this object. Keep in mind that one object can have many uses. Separate your responses with a comma.,NA,y,6743,NA,NA,1430,5846,NA,NA,NA,"poke, prod, stick, jab",1
J00557817DPD,mvzwttqm9n,Affordance Norms_South Alabama,1,32,2022-11-30T04:03:38+00:00,15.79251003,89,updated stim.csv,Version89.csv,Version 89,List 89,bathtub,NA,2650,6.565217391,170,2651,BOI,-,-,Please name all of the ways you could use this object. Keep in mind that one object can have many uses. Separate your responses with a comma.,NA,y,15473,NA,NA,1262,6573,NA,NA,NA,"bathe, relax",1
J00557817DPD,mvzwttqm9n,Affordance Norms_South Alabama,1,33,2022-11-30T04:03:45+00:00,7.237554073,89,updated stim.csv,Version89.csv,Version 89,List 89,rail,NA,2658,5.517241379,2127,2659,BOI,-,-,Please name all of the ways you could use this object. Keep in mind that one object can have many uses. Separate your responses with a comma.,NA,y,6921,NA,NA,1479,5960,NA,NA,NA,"hold, support, walk",1
J00557817DPD,mvzwttqm9n,Affordance Norms_South Alabama,1,34,2022-11-30T04:04:29+00:00,43.90313101,89,updated stim.csv,Version89.csv,Version 89,List 89,dwarf,NA,2666,4.333333333,871,2667,BOI,-,-,Please name all of the ways you could use this object. Keep in mind that one object can have many uses. Separate your responses with a comma.,NA,y,43600,NA,NA,4306,6426,NA,NA,NA,fight,0.724
J00557817DPD,mvzwttqm9n,Affordance Norms_South Alabama,1,35,2022-11-30T04:04:34+00:00,4.680874825,89,updated stim.csv,Version89.csv,Version 89,List 89,cupboard,NA,2661,5.782608696,727,2662,BOI,-,-,Please name all of the ways you could use this object. Keep in mind that one object can have many uses. Separate your responses with a comma.,NA,y,4502,NA,NA,2006,3230,NA,NA,NA,"store, stow",1
J00557817DPD,mvzwttqm9n,Affordance Norms_South Alabama,1,36,2022-11-30T04:04:44+00:00,10.63702011,89,updated stim.csv,Version89.csv,Version 89,List 89,picnicker,NA,2668,4.458333333,1951,2669,BOI,-,-,Please name all of the ways you could use this object. Keep in mind that one object can have many uses. Separate your responses with a comma.,NA,y,10331,NA,NA,3610,9377,NA,NA,NA,"unwind, recreation",1
J00557817DPD,mvzwttqm9n,Affordance Norms_South Alabama,1,37,2022-11-30T04:05:13+00:00,28.88759804,89,updated stim.csv,Version89.csv,Version 89,List 89,icepick,NA,2657,5.416666667,1347,2658,BOI,-,-,Please name all of the ways you could use this object. Keep in mind that one object can have many uses. Separate your responses with a comma.,NA,y,28571,NA,NA,4311,25921,NA,NA,NA,"serve drinks, climb",1
J00557817DPD,mvzwttqm9n,Affordance Norms_South Alabama,1,38,2022-11-30T04:05:22+00:00,8.779429913,89,updated stim.csv,Version89.csv,Version 89,List 89,mum,NA,2646,4.416666667,1719,2647,BOI,-,-,Please name all of the ways you could use this object. Keep in mind that one object can have many uses. Separate your responses with a comma.,NA,y,8453,NA,NA,3237,7572,NA,NA,NA,"mother, parent, foster",1
J00557817DPD,mvzwttqm9n,Affordance Norms_South Alabama,1,39,2022-11-30T04:05:42+00:00,19.48790789,89,updated stim.csv,Version89.csv,Version 89,List 89,barkeep,NA,2670,4.260869565,148,2671,BOI,-,-,Please name all of the ways you could use this object. Keep in mind that one object can have many uses. Separate your responses with a comma.,NA,y,19124,NA,NA,7201,18227,NA,NA,NA,"serve, tend, accompany",0.861
J00557817DPD,mvzwttqm9n,Affordance Norms_South Alabama,1,40,2022-11-30T04:05:50+00:00,8.090738058,89,updated stim.csv,Version89.csv,Version 89,List 89,banister,NA,2651,5.130434783,140,2652,BOI,-,-,Please name all of the ways you could use this object. Keep in mind that one object can have many uses. Separate your responses with a comma.,NA,y,7786,NA,NA,1457,6560,NA,NA,NA,"rail, support, walk",1
J00605047_jaf,tts6r08esk,Affordance Norms_South Alabama,1,11,2022-12-01T03:11:06+00:00,19.02653313,5,updated stim.csv,Version5.csv,Version 5,List 5,eyepiece,NA,150,5.8,937,151,BOI,-,-,Please name all of the ways you could use this object. Keep in mind that one object can have many uses. Separate your responses with a comma.,NA,y,18515,NA,NA,3992,15480,NA,NA,NA,"cover, read through, protect with",1
J00605047_jaf,tts6r08esk,Affordance Norms_South Alabama,1,12,2022-12-01T03:11:37+00:00,31.43140388,5,updated stim.csv,Version5.csv,Version 5,List 5,postman,NA,142,4.913043478,2044,143,BOI,-,-,Please name all of the ways you could use this object. Keep in mind that one object can have many uses. Separate your responses with a comma.,NA,y,30984,NA,NA,2115,30626,NA,NA,NA,"delivers, talk to, greet, give, take",1
J00605047_jaf,tts6r08esk,Affordance Norms_South Alabama,1,13,2022-12-01T03:12:12+00:00,35.22971511,5,updated stim.csv,Version5.csv,Version 5,List 5,worker,NA,133,5.086956522,2971,134,BOI,-,-,Please name all of the ways you could use this object. Keep in mind that one object can have many uses. Separate your responses with a comma.,NA,y,34540,NA,NA,12635,32377,NA,NA,NA,"work, enforce rules, complete job, start job",1
J00605047_jaf,tts6r08esk,Affordance Norms_South Alabama,1,14,2022-12-01T03:12:18+00:00,5.776885986,5,updated stim.csv,Version5.csv,Version 5,List 5,laryngoscope,NA,135,4.411764706,1467,136,BOI,-,-,Please name all of the ways you could use this object. Keep in mind that one object can have many uses. Separate your responses with a comma.,NA,y,5436,NA,NA,-1,-1,NA,NA,NA,,1
J00605047_jaf,tts6r08esk,Affordance Norms_South Alabama,1,15,2022-12-01T03:12:30+00:00,11.65430689,5,updated stim.csv,Version5.csv,Version 5,List 5,watercress,NA,128,4.782608696,2910,129,BOI,-,-,Please name all of the ways you could use this object. Keep in mind that one object can have many uses. Separate your responses with a comma.,NA,y,11416,NA,NA,-1,-1,NA,NA,NA,,1
J00605047_jaf,tts6r08esk,Affordance Norms_South Alabama,1,16,2022-12-01T03:12:47+00:00,17.47141004,5,updated stim.csv,Version5.csv,Version 5,List 5,doll,NA,148,6.434782609,814,149,BOI,-,-,Please name all of the ways you could use this object. Keep in mind that one object can have many uses. Separate your responses with a comma.,NA,y,17207,NA,NA,1767,13870,NA,NA,NA,"play, throw, catch, destroy, create",1
J00605047_jaf,tts6r08esk,Affordance Norms_South Alabama,1,17,2022-12-01T03:13:00+00:00,12.83033204,5,updated stim.csv,Version5.csv,Version 5,List 5,powderpuff,NA,145,4.923076923,2055,146,BOI,-,-,Please name all of the ways you could use this object. Keep in mind that one object can have many uses. Separate your responses with a comma.,NA,y,12572,NA,NA,6677,11540,NA,NA,NA,"watch, listen",1
J00605047_jaf,tts6r08esk,Affordance Norms_South Alabama,1,18,2022-12-01T03:13:19+00:00,18.93442988,5,updated stim.csv,Version5.csv,Version 5,List 5,cabbage,NA,132,5.608695652,386,133,BOI,-,-,Please name all of the ways you could use this object. Keep in mind that one object can have many uses. Separate your responses with a comma.,NA,y,18692,NA,NA,1212,18161,NA,NA,NA,"eat, cook, throw, catch, destroy, smash, burn",1
J00605047_jaf,tts6r08esk,Affordance Norms_South Alabama,1,19,2022-12-01T03:13:24+00:00,4.75957799,5,updated stim.csv,Version5.csv,Version 5,List 5,wristlet,NA,144,5.428571429,2984,145,BOI,-,-,Please name all of the ways you could use this object. Keep in mind that one object can have many uses. Separate your responses with a comma.,NA,y,3906,NA,NA,2369,2942,NA,NA,NA,wear,1
J00605047_jaf,tts6r08esk,Affordance Norms_South Alabama,1,20,2022-12-01T03:13:37+00:00,12.92064905,5,updated stim.csv,Version5.csv,Version 5,List 5,medication,NA,122,6.28,1637,123,BOI,-,-,Please name all of the ways you could use this object. Keep in mind that one object can have many uses. Separate your responses with a comma.,NA,y,12698,NA,NA,2667,12400,NA,NA,NA,"take, give, consume, make, destroy",1
J00605047_jaf,tts6r08esk,Affordance Norms_South Alabama,1,21,2022-12-01T03:13:52+00:00,15.40441895,5,updated stim.csv,Version5.csv,Version 5,List 5,crutch,NA,149,5.8,717,150,BOI,-,-,Please name all of the ways you could use this object. Keep in mind that one object can have many uses. Separate your responses with a comma.,NA,y,15169,NA,NA,3284,13750,NA,NA,NA,"use, throw, catch, break",1
J00605047_jaf,tts6r08esk,Affordance Norms_South Alabama,1,22,2022-12-01T03:14:10+00:00,17.51222801,5,updated stim.csv,Version5.csv,Version 5,List 5,cedar,NA,143,4.583333333,470,144,BOI,-,-,Please name all of the ways you could use this object. Keep in mind that one object can have many uses. Separate your responses with a comma.,NA,y,17106,NA,NA,1627,16948,NA,NA,NA,"cut, burn, create, destroy, plant, consume",1
J00605047_jaf,tts6r08esk,Affordance Norms_South Alabama,1,23,2022-12-01T03:14:20+00:00,10.56242013,5,updated stim.csv,Version5.csv,Version 5,List 5,sheepskin,NA,137,4.928571429,2330,138,BOI,-,-,Please name all of the ways you could use this object. Keep in mind that one object can have many uses. Separate your responses with a comma.,NA,y,10300,NA,NA,1599,7776,NA,NA,NA,"wear, process, tear",1
J00605047_jaf,tts6r08esk,Affordance Norms_South Alabama,1,24,2022-12-01T03:14:35+00:00,14.42057085,5,updated stim.csv,Version5.csv,Version 5,List 5,bazooka,NA,129,5.041666667,175,130,BOI,-,-,Please name all of the ways you could use this object. Keep in mind that one object can have many uses. Separate your responses with a comma.,NA,y,14072,NA,NA,1674,13601,NA,NA,NA,"shoot, lean on, sit on",1
J00605047_jaf,tts6r08esk,Affordance Norms_South Alabama,1,25,2022-12-01T03:14:37+00:00,2.903767109,5,updated stim.csv,Version5.csv,Version 5,List 5,stableman,NA,141,4.375,2495,142,BOI,-,-,Please name all of the ways you could use this object. Keep in mind that one object can have many uses. Separate your responses with a comma.,NA,y,2676,NA,NA,-1,-1,NA,NA,NA,,1
J00605047_jaf,tts6r08esk,Affordance Norms_South Alabama,1,26,2022-12-01T03:14:54+00:00,16.29091907,5,updated stim.csv,Version5.csv,Version 5,List 5,prosecutor,NA,146,4.64,2078,147,BOI,-,-,Please name all of the ways you could use this object. Keep in mind that one object can have many uses. Separate your responses with a comma.,NA,y,16034,NA,NA,2310,15640,NA,NA,NA,"work, pay, receive help",1
J00605047_jaf,tts6r08esk,Affordance Norms_South Alabama,1,27,2022-12-01T03:15:07+00:00,13.67798495,5,updated stim.csv,Version5.csv,Version 5,List 5,sandbank,NA,126,4.52,2234,127,BOI,-,-,Please name all of the ways you could use this object. Keep in mind that one object can have many uses. Separate your responses with a comma.,NA,y,12846,NA,NA,1398,12692,NA,NA,NA,"stand, slide, sit",1
J00605047_jaf,tts6r08esk,Affordance Norms_South Alabama,1,28,2022-12-01T03:15:14+00:00,6.978291035,5,updated stim.csv,Version5.csv,Version 5,List 5,tranquilizers,NA,127,4.607142857,2761,128,BOI,-,-,Please name all of the ways you could use this object. Keep in mind that one object can have many uses. Separate your responses with a comma.,NA,y,6710,NA,NA,1353,5911,NA,NA,NA,"shoot, take",1
J00605047_jaf,tts6r08esk,Affordance Norms_South Alabama,1,29,2022-12-01T03:15:25+00:00,10.21169901,5,updated stim.csv,Version5.csv,Version 5,List 5,pedal,NA,125,5.04,1900,126,BOI,-,-,Please name all of the ways you could use this object. Keep in mind that one object can have many uses. Separate your responses with a comma.,NA,y,9985,NA,NA,4063,9723,NA,NA,NA,"push, stand",1
J00605047_jaf,tts6r08esk,Affordance Norms_South Alabama,1,30,2022-12-01T03:15:47+00:00,22.56491399,5,updated stim.csv,Version5.csv,Version 5,List 5,woodwork,NA,138,5.12,2966,139,BOI,-,-,Please name all of the ways you could use this object. Keep in mind that one object can have many uses. Separate your responses with a comma.,NA,y,22166,NA,NA,15800,21582,NA,NA,NA,"learn, create with, carve",1
J00605047_jaf,tts6r08esk,Affordance Norms_South Alabama,1,31,2022-12-01T03:15:58+00:00,10.78050685,5,updated stim.csv,Version5.csv,Version 5,List 5,copper,NA,124,4.833333333,638,125,BOI,-,-,Please name all of the ways you could use this object. Keep in mind that one object can have many uses. Separate your responses with a comma.,NA,y,10463,NA,NA,1642,10257,NA,NA,NA,"melt, mold, hit, bend",1
J00605047_jaf,tts6r08esk,Affordance Norms_South Alabama,1,32,2022-12-01T03:16:05+00:00,7.393249989,5,updated stim.csv,Version5.csv,Version 5,List 5,waste,NA,123,4.318181818,2903,124,BOI,-,-,Please name all of the ways you could use this object. Keep in mind that one object can have many uses. Separate your responses with a comma.,NA,y,7105,NA,NA,2129,6784,NA,NA,NA,"burn, throw, consume",1
J00605047_jaf,tts6r08esk,Affordance Norms_South Alabama,1,33,2022-12-01T03:16:12+00:00,6.438753128,5,updated stim.csv,Version5.csv,Version 5,List 5,antiques,NA,140,4.68,51,141,BOI,-,-,Please name all of the ways you could use this object. Keep in mind that one object can have many uses. Separate your responses with a comma.,NA,y,6129,NA,NA,1983,5811,NA,NA,NA,"display, sell, buy",1
J00605047_jaf,tts6r08esk,Affordance Norms_South Alabama,1,34,2022-12-01T03:16:23+00:00,10.89781308,5,updated stim.csv,Version5.csv,Version 5,List 5,figurine,NA,121,5.791666667,973,122,BOI,-,-,Please name all of the ways you could use this object. Keep in mind that one object can have many uses. Separate your responses with a comma.,NA,y,10665,NA,NA,1756,10403,NA,NA,NA,"sell, buy, break, display",1
J00605047_jaf,tts6r08esk,Affordance Norms_South Alabama,1,35,2022-12-01T03:16:36+00:00,13.02317691,5,updated stim.csv,Version5.csv,Version 5,List 5,Picture Frame,NA,130,NA,3002,131,BOI,-,-,Please name all of the ways you could use this object. Keep in mind that one object can have many uses. Separate your responses with a comma.,NA,y,12697,NA,NA,1851,12405,NA,NA,NA,"hang, break, dispay",1
J00605047_jaf,tts6r08esk,Affordance Norms_South Alabama,1,36,2022-12-01T03:16:44+00:00,8.115113974,5,updated stim.csv,Version5.csv,Version 5,List 5,paprika,NA,147,4.428571429,1867,148,BOI,-,-,Please name all of the ways you could use this object. Keep in mind that one object can have many uses. Separate your responses with a comma.,NA,y,7870,NA,NA,1954,5619,NA,NA,NA,cook with,1
J00605047_jaf,tts6r08esk,Affordance Norms_South Alabama,1,37,2022-12-01T03:16:58+00:00,13.82847404,5,updated stim.csv,Version5.csv,Version 5,List 5,keyhole,NA,136,5.44,1413,137,BOI,-,-,Please name all of the ways you could use this object. Keep in mind that one object can have many uses. Separate your responses with a comma.,NA,y,13441,NA,NA,2065,13017,NA,NA,NA,"insert key, look through, pick",1
J00605047_jaf,tts6r08esk,Affordance Norms_South Alabama,1,38,2022-12-01T03:17:02+00:00,4.320333004,5,updated stim.csv,Version5.csv,Version 5,List 5,playsuit,NA,131,5.36,2003,132,BOI,-,-,Please name all of the ways you could use this object. Keep in mind that one object can have many uses. Separate your responses with a comma.,NA,y,4083,NA,NA,2870,3728,NA,NA,NA,wear,1
J00605047_jaf,tts6r08esk,Affordance Norms_South Alabama,1,39,2022-12-01T03:17:11+00:00,9.460713863,5,updated stim.csv,Version5.csv,Version 5,List 5,pomegranate,NA,139,5.391304348,2026,140,BOI,-,-,Please name all of the ways you could use this object. Keep in mind that one object can have many uses. Separate your responses with a comma.,NA,y,9223,NA,NA,1560,8298,NA,NA,NA,"eat, smash, throw, catch",1
J00605047_jaf,tts6r08esk,Affordance Norms_South Alabama,1,40,2022-12-01T03:17:23+00:00,11.70357299,5,updated stim.csv,Version5.csv,Version 5,List 5,hoop,NA,134,5.296296296,1310,135,BOI,-,-,Please name all of the ways you could use this object. Keep in mind that one object can have many uses. Separate your responses with a comma.,NA,y,11235,NA,NA,2362,10744,NA,NA,NA,"wear, break, throw, play with",1
J00643621_teg,cprxctg3lv,Affordance Norms_South Alabama,1,11,2022-11-30T01:04:33+00:00,29.42647195,81,updated stim.csv,Version81.csv,Version 81,List 81,pear,NA,2410,5.72,1895,2411,BOI,-,-,Please name all of the ways you could use this object. Keep in mind that one object can have many uses. Separate your responses with a comma.,NA,y,29159,NA,NA,7365,27812,NA,NA,NA,"You can use it to eat, to make a smoothie, to take a picture with, and to use as a figure to paint.",1
J00643621_teg,cprxctg3lv,Affordance Norms_South Alabama,1,12,2022-11-30T01:04:57+00:00,24.29854393,81,updated stim.csv,Version81.csv,Version 81,List 81,boots,NA,2409,6.434782609,284,2410,BOI,-,-,Please name all of the ways you could use this object. Keep in mind that one object can have many uses. Separate your responses with a comma.,NA,y,24024,NA,NA,2041,22726,NA,NA,NA,"You use boots to walk in, dance in, work in, and entertain with.",1
J00643621_teg,cprxctg3lv,Affordance Norms_South Alabama,1,13,2022-11-30T01:05:23+00:00,25.65759802,81,updated stim.csv,Version81.csv,Version 81,List 81,pants,NA,2402,6.333333333,1861,2403,BOI,-,-,Please name all of the ways you could use this object. Keep in mind that one object can have many uses. Separate your responses with a comma.,NA,y,25365,NA,NA,1283,23799,NA,NA,NA,"You wear them, you can use them to style, to photograph, and to make something else out of pants.",1
J00643621_teg,cprxctg3lv,Affordance Norms_South Alabama,1,14,2022-11-30T01:05:44+00:00,21.39761519,81,updated stim.csv,Version81.csv,Version 81,List 81,soybean,NA,2430,5.2,2458,2431,BOI,-,-,Please name all of the ways you could use this object. Keep in mind that one object can have many uses. Separate your responses with a comma.,NA,y,21109,NA,NA,1486,19760,NA,NA,NA,"You use them to cook with, to eat, and to grow.",1
J00643621_teg,cprxctg3lv,Affordance Norms_South Alabama,1,15,2022-11-30T01:06:24+00:00,40.14191484,81,updated stim.csv,Version81.csv,Version 81,List 81,Mug,NA,2415,6.13900135,1713,2416,BOI,-,-,Please name all of the ways you could use this object. Keep in mind that one object can have many uses. Separate your responses with a comma.,NA,y,39848,NA,NA,1852,39121,NA,NA,NA,"You use these to drink out of, use to put tools in, put various things in, you can use them to paint, or do an arts and craft activity with.",1
J00643621_teg,cprxctg3lv,Affordance Norms_South Alabama,1,16,2022-11-30T01:07:04+00:00,39.64216304,81,updated stim.csv,Version81.csv,Version 81,List 81,guardsman,NA,2406,4.481481481,1187,2407,BOI,-,-,Please name all of the ways you could use this object. Keep in mind that one object can have many uses. Separate your responses with a comma.,NA,y,39345,NA,NA,1489,38206,NA,NA,NA,"You use guardsman for the queen, for a club, for a restaraunt opened at night, you use them for celebrities, and for banks.",0.995
J00643621_teg,cprxctg3lv,Affordance Norms_South Alabama,1,17,2022-11-30T01:08:12+00:00,67.87787604,81,updated stim.csv,Version81.csv,Version 81,List 81,footman,NA,2414,4.782608696,1035,2415,BOI,-,-,Please name all of the ways you could use this object. Keep in mind that one object can have many uses. Separate your responses with a comma.,NA,y,67722,NA,NA,48139,66534,NA,NA,NA,"They could be a host, they were also called for soldiers in the infantry.",1
J00643621_teg,cprxctg3lv,Affordance Norms_South Alabama,1,18,2022-11-30T01:08:18+00:00,5.71795392,81,updated stim.csv,Version81.csv,Version 81,List 81,thesaurus,NA,2419,5.363636364,2679,2420,BOI,-,-,Please name all of the ways you could use this object. Keep in mind that one object can have many uses. Separate your responses with a comma.,NA,y,5550,NA,NA,2595,4687,NA,NA,NA,Dictionary,1
J00643621_teg,cprxctg3lv,Affordance Norms_South Alabama,1,19,2022-11-30T01:08:39+00:00,21.46287894,81,updated stim.csv,Version81.csv,Version 81,List 81,log,NA,2403,5.692307692,1541,2404,BOI,-,-,Please name all of the ways you could use this object. Keep in mind that one object can have many uses. Separate your responses with a comma.,NA,y,21188,NA,NA,3679,19735,NA,NA,NA,"to make a fire, to make a pathway, to build things",1
J00643621_teg,cprxctg3lv,Affordance Norms_South Alabama,1,20,2022-11-30T01:08:55+00:00,16.0662272,81,updated stim.csv,Version81.csv,Version 81,List 81,meat,NA,2411,5.52173913,1633,2412,BOI,-,-,Please name all of the ways you could use this object. Keep in mind that one object can have many uses. Separate your responses with a comma.,NA,y,15903,NA,NA,2299,14591,NA,NA,NA,"to cook with, to eat, to feed your animals, to sell, to buy",1
J00643621_teg,cprxctg3lv,Affordance Norms_South Alabama,1,21,2022-11-30T01:09:19+00:00,23.54305196,81,updated stim.csv,Version81.csv,Version 81,List 81,mouse,NA,2426,5.24,1701,2427,BOI,-,-,Please name all of the ways you could use this object. Keep in mind that one object can have many uses. Separate your responses with a comma.,NA,y,23247,NA,NA,2552,21362,NA,NA,NA,"to have as a pet, to feed your animals, to entertain, computer mouse",1
J00643621_teg,cprxctg3lv,Affordance Norms_South Alabama,1,22,2022-11-30T01:10:25+00:00,66.87861204,81,updated stim.csv,Version81.csv,Version 81,List 81,dividers,NA,2427,4.384615385,806,2428,BOI,-,-,Please name all of the ways you could use this object. Keep in mind that one object can have many uses. Separate your responses with a comma.,NA,y,66716,NA,NA,1752,64086,NA,NA,NA,"to organize school folders, organize any item, to seperate food",1
J00643621_teg,cprxctg3lv,Affordance Norms_South Alabama,1,23,2022-11-30T01:10:38+00:00,12.25420499,81,updated stim.csv,Version81.csv,Version 81,List 81,fork,NA,2416,5.6,1047,2417,BOI,-,-,Please name all of the ways you could use this object. Keep in mind that one object can have many uses. Separate your responses with a comma.,NA,y,12089,NA,NA,1419,10593,NA,NA,NA,"to eat with, to grab hay with",1
J00643621_teg,cprxctg3lv,Affordance Norms_South Alabama,1,24,2022-11-30T01:11:07+00:00,28.86967182,81,updated stim.csv,Version81.csv,Version 81,List 81,beachwear,NA,2425,6.304347826,177,2426,BOI,-,-,Please name all of the ways you could use this object. Keep in mind that one object can have many uses. Separate your responses with a comma.,NA,y,28581,NA,NA,2596,27880,NA,NA,NA,"to wear, to cover, to sell, to buy",1
J00643621_teg,cprxctg3lv,Affordance Norms_South Alabama,1,25,2022-11-30T01:11:22+00:00,15.09576607,81,updated stim.csv,Version81.csv,Version 81,List 81,shawl,NA,2413,5.76,2326,2414,BOI,-,-,Please name all of the ways you could use this object. Keep in mind that one object can have many uses. Separate your responses with a comma.,NA,y,14910,NA,NA,1560,14336,NA,NA,NA,"to cover with, to keep yourself warm, to dress yourself up",1
J00643621_teg,cprxctg3lv,Affordance Norms_South Alabama,1,26,2022-11-30T01:11:36+00:00,14.30992007,81,updated stim.csv,Version81.csv,Version 81,List 81,jeans,NA,2422,6.44,1379,2423,BOI,-,-,Please name all of the ways you could use this object. Keep in mind that one object can have many uses. Separate your responses with a comma.,NA,y,14141,NA,NA,1213,13488,NA,NA,NA,"to wear, to buy or sell, to make something out of them",1
J00643621_teg,cprxctg3lv,Affordance Norms_South Alabama,1,27,2022-11-30T01:12:15+00:00,38.69432092,81,updated stim.csv,Version81.csv,Version 81,List 81,adult,NA,2404,5.409090909,15,2405,BOI,-,-,Please name all of the ways you could use this object. Keep in mind that one object can have many uses. Separate your responses with a comma.,NA,y,38396,NA,NA,-1,-1,NA,NA,NA,,1
J00643621_teg,cprxctg3lv,Affordance Norms_South Alabama,1,28,2022-11-30T01:12:54+00:00,39.15886903,81,updated stim.csv,Version81.csv,Version 81,List 81,blanket,NA,2420,6.56,232,2421,BOI,-,-,Please name all of the ways you could use this object. Keep in mind that one object can have many uses. Separate your responses with a comma.,NA,y,38861,NA,NA,-1,-1,NA,NA,NA,,1
J00643621_teg,cprxctg3lv,Affordance Norms_South Alabama,1,29,2022-11-30T01:13:25+00:00,31.00164294,81,updated stim.csv,Version81.csv,Version 81,List 81,chiropractor,NA,2405,5.5,530,2406,BOI,-,-,Please name all of the ways you could use this object. Keep in mind that one object can have many uses. Separate your responses with a comma.,NA,y,30714,NA,NA,2075,29618,NA,NA,NA,"to help with your back, neck, legs, arms, to help you with arthritus,",1
J00643621_teg,cprxctg3lv,Affordance Norms_South Alabama,1,30,2022-11-30T01:13:44+00:00,19.28488517,81,updated stim.csv,Version81.csv,Version 81,List 81,mouth,NA,2424,6.304347826,1705,2425,BOI,-,-,Please name all of the ways you could use this object. Keep in mind that one object can have many uses. Separate your responses with a comma.,NA,y,19120,NA,NA,2609,17846,NA,NA,NA,"to eat, to drink, to talk, to yell, to whisper, to chew",1
J00643621_teg,cprxctg3lv,Affordance Norms_South Alabama,1,31,2022-11-30T01:14:02+00:00,17.72318983,81,updated stim.csv,Version81.csv,Version 81,List 81,syringes,NA,2408,5.541666667,2613,2409,BOI,-,-,Please name all of the ways you could use this object. Keep in mind that one object can have many uses. Separate your responses with a comma.,NA,y,17558,NA,NA,2697,16132,NA,NA,NA,"to flush out an iv, to give a baby medicine, to juice a turkey",1
J00643621_teg,cprxctg3lv,Affordance Norms_South Alabama,1,32,2022-11-30T01:14:18+00:00,15.83085299,81,updated stim.csv,Version81.csv,Version 81,List 81,weed,NA,2421,5.28,2918,2422,BOI,-,-,Please name all of the ways you could use this object. Keep in mind that one object can have many uses. Separate your responses with a comma.,NA,y,15668,NA,NA,2393,10083,NA,NA,NA,"to trim from your yard, to use for medicine",1
J00643621_teg,cprxctg3lv,Affordance Norms_South Alabama,1,33,2022-11-30T01:14:23+00:00,5.133620024,81,updated stim.csv,Version81.csv,Version 81,List 81,footbridge,NA,2412,4.777777778,1034,2413,BOI,-,-,Please name all of the ways you could use this object. Keep in mind that one object can have many uses. Separate your responses with a comma.,NA,y,4943,NA,NA,-1,-1,NA,NA,NA,,1
J00643621_teg,cprxctg3lv,Affordance Norms_South Alabama,1,34,2022-11-30T01:14:33+00:00,9.749222994,81,updated stim.csv,Version81.csv,Version 81,List 81,snow,NA,2423,5.538461538,2430,2424,BOI,-,-,Please name all of the ways you could use this object. Keep in mind that one object can have many uses. Separate your responses with a comma.,NA,y,9598,NA,NA,1166,8284,NA,NA,NA,"to play in, to shovel up",1
J00643621_teg,cprxctg3lv,Affordance Norms_South Alabama,1,35,2022-11-30T01:14:55+00:00,22.35163903,81,updated stim.csv,Version81.csv,Version 81,List 81,brushes,NA,2429,4.857142857,338,2430,BOI,-,-,Please name all of the ways you could use this object. Keep in mind that one object can have many uses. Separate your responses with a comma.,NA,y,22036,NA,NA,8938,20847,NA,NA,NA,"to do makeup with, to brush your hair, to clean an animal",1
J00643621_teg,cprxctg3lv,Affordance Norms_South Alabama,1,36,2022-11-30T01:15:03+00:00,8.418345928,81,updated stim.csv,Version81.csv,Version 81,List 81,desk,NA,2428,6.260869565,780,2429,BOI,-,-,Please name all of the ways you could use this object. Keep in mind that one object can have many uses. Separate your responses with a comma.,NA,y,8235,NA,NA,1289,6005,NA,NA,NA,"to work at, to eat at, ",1
J00643621_teg,cprxctg3lv,Affordance Norms_South Alabama,1,37,2022-11-30T01:15:12+00:00,8.813458204,81,updated stim.csv,Version81.csv,Version 81,List 81,children,NA,2417,5.52,522,2418,BOI,-,-,Please name all of the ways you could use this object. Keep in mind that one object can have many uses. Separate your responses with a comma.,NA,y,8655,NA,NA,1072,7219,NA,NA,NA,"to play with, to have, to talk to",1
J00643621_teg,cprxctg3lv,Affordance Norms_South Alabama,1,38,2022-11-30T01:15:21+00:00,8.768435001,81,updated stim.csv,Version81.csv,Version 81,List 81,hallway,NA,2401,4.708333333,1220,2402,BOI,-,-,Please name all of the ways you could use this object. Keep in mind that one object can have many uses. Separate your responses with a comma.,NA,y,8595,NA,NA,1229,7397,NA,NA,NA,to walk through to get to another room,1
J00643621_teg,cprxctg3lv,Affordance Norms_South Alabama,1,39,2022-11-30T01:15:27+00:00,5.753282785,81,updated stim.csv,Version81.csv,Version 81,List 81,yachtsman,NA,2407,4.291666667,2988,2408,BOI,-,-,Please name all of the ways you could use this object. Keep in mind that one object can have many uses. Separate your responses with a comma.,NA,y,5555,NA,NA,1470,4405,NA,NA,NA,to work on a boat,1
J00643621_teg,cprxctg3lv,Affordance Norms_South Alabama,1,40,2022-11-30T01:15:36+00:00,9.709627151,81,updated stim.csv,Version81.csv,Version 81,List 81,cruiser,NA,2418,4.304347826,713,2419,BOI,-,-,Please name all of the ways you could use this object. Keep in mind that one object can have many uses. Separate your responses with a comma.,NA,y,9551,NA,NA,1101,7125,NA,NA,NA,"to drive, to ride in",1
J00661685_Mmkk,9qinvug4hi,Affordance Norms_South Alabama,1,11,2022-11-29T03:10:23+00:00,42.54473805,68,updated stim.csv,Version68.csv,Version 68,List 68,umbrella,NA,2019,6.4,2816,2020,BOI,-,-,Please name all of the ways you could use this object. Keep in mind that one object can have many uses. Separate your responses with a comma.,NA,y,41909,NA,NA,1854,35111,NA,NA,NA,"carry, hold up, hide under, open, close, shake off ",1
J00661685_Mmkk,9qinvug4hi,Affordance Norms_South Alabama,1,12,2022-11-29T03:10:42+00:00,18.87193799,68,updated stim.csv,Version68.csv,Version 68,List 68,slipknot,NA,2023,4.84,2416,2024,BOI,-,-,Please name all of the ways you could use this object. Keep in mind that one object can have many uses. Separate your responses with a comma.,NA,y,18064,NA,NA,3556,16215,NA,NA,NA,"hold, create, tie, secure",1
J00661685_Mmkk,9qinvug4hi,Affordance Norms_South Alabama,1,13,2022-11-29T03:11:34+00:00,51.70559788,68,updated stim.csv,Version68.csv,Version 68,List 68,guy,NA,2032,5.84,1202,2033,BOI,-,-,Please name all of the ways you could use this object. Keep in mind that one object can have many uses. Separate your responses with a comma.,NA,y,50839,NA,NA,4510,45847,NA,NA,NA,"date, befriend, hang out with, work with, talk with, dance with, sleep with",1
J00661685_Mmkk,9qinvug4hi,Affordance Norms_South Alabama,1,14,2022-11-29T03:12:28+00:00,53.80089116,68,updated stim.csv,Version68.csv,Version 68,List 68,zucchini,NA,2026,5.923076923,3000,2027,BOI,-,-,Please name all of the ways you could use this object. Keep in mind that one object can have many uses. Separate your responses with a comma.,NA,y,53167,NA,NA,1353,52213,NA,NA,NA,"eat, cut, spiral, saute, serve, microwave, steam, wash, refridgerate, freeze, store",1
J00661685_Mmkk,9qinvug4hi,Affordance Norms_South Alabama,1,15,2022-11-29T03:12:40+00:00,12.24015689,68,updated stim.csv,Version68.csv,Version 68,List 68,winch,NA,2020,5.045454545,2940,2021,BOI,-,-,Please name all of the ways you could use this object. Keep in mind that one object can have many uses. Separate your responses with a comma.,NA,y,11659,NA,NA,9386,11138,NA,NA,NA,i dont know ,1
J00661685_Mmkk,9qinvug4hi,Affordance Norms_South Alabama,1,16,2022-11-29T03:13:10+00:00,30.52507901,68,updated stim.csv,Version68.csv,Version 68,List 68,bellman,NA,2028,4.32,199,2029,BOI,-,-,Please name all of the ways you could use this object. Keep in mind that one object can have many uses. Separate your responses with a comma.,NA,y,29941,NA,NA,3349,28900,NA,NA,NA,"tip, thank, carry bags, help, work, serve",1
J00661685_Mmkk,9qinvug4hi,Affordance Norms_South Alabama,1,17,2022-11-29T03:13:52+00:00,41.88336492,68,updated stim.csv,Version68.csv,Version 68,List 68,toothbrush,NA,2039,6.72,2732,2040,BOI,-,-,Please name all of the ways you could use this object. Keep in mind that one object can have many uses. Separate your responses with a comma.,NA,y,40682,NA,NA,2138,40326,NA,NA,NA,"hold, clean teeth with, clean tongue with, drop, put down, wet, get toothpaste on",1
J00661685_Mmkk,9qinvug4hi,Affordance Norms_South Alabama,1,18,2022-11-29T03:14:20+00:00,27.84369016,68,updated stim.csv,Version68.csv,Version 68,List 68,staircase,NA,2022,5.695652174,2500,2023,BOI,-,-,Please name all of the ways you could use this object. Keep in mind that one object can have many uses. Separate your responses with a comma.,NA,y,27273,NA,NA,1313,25282,NA,NA,NA,"fall down, step up, step down, climb",1
J00661685_Mmkk,9qinvug4hi,Affordance Norms_South Alabama,1,19,2022-11-29T03:15:00+00:00,39.43061399,68,updated stim.csv,Version68.csv,Version 68,List 68,whistle,NA,2014,4.47826087,2932,2015,BOI,-,-,Please name all of the ways you could use this object. Keep in mind that one object can have many uses. Separate your responses with a comma.,NA,y,38846,NA,NA,2712,38457,NA,NA,NA,"call someone, vocalize a melody, whistle with others, to get attention",1
J00661685_Mmkk,9qinvug4hi,Affordance Norms_South Alabama,1,20,2022-11-29T03:15:21+00:00,21.12874484,68,updated stim.csv,Version68.csv,Version 68,List 68,button,NA,2033,6.153846154,381,2034,BOI,-,-,Please name all of the ways you could use this object. Keep in mind that one object can have many uses. Separate your responses with a comma.,NA,y,20387,NA,NA,1583,18504,NA,NA,NA,"push, break, hit, start something, turn something on/off",1
J00661685_Mmkk,9qinvug4hi,Affordance Norms_South Alabama,1,21,2022-11-29T03:15:49+00:00,28.53011703,68,updated stim.csv,Version68.csv,Version 68,List 68,ottoman,NA,2027,5.833333333,1826,2028,BOI,-,-,Please name all of the ways you could use this object. Keep in mind that one object can have many uses. Separate your responses with a comma.,NA,y,27928,NA,NA,2241,27660,NA,NA,NA,"putt feet up, sit on, lay on, build pillow fort with, decorate a room",1
J00661685_Mmkk,9qinvug4hi,Affordance Norms_South Alabama,1,22,2022-11-29T03:16:28+00:00,38.48145413,68,updated stim.csv,Version68.csv,Version 68,List 68,pig,NA,2030,4.56,1955,2031,BOI,-,-,Please name all of the ways you could use this object. Keep in mind that one object can have many uses. Separate your responses with a comma.,NA,y,37890,NA,NA,3086,34830,NA,NA,NA,"feed, pet, love, play with, eat, cook, sell ",1
J00661685_Mmkk,9qinvug4hi,Affordance Norms_South Alabama,1,23,2022-11-29T03:16:53+00:00,25.48233485,68,updated stim.csv,Version68.csv,Version 68,List 68,nursery,NA,2038,4.875,1788,2039,BOI,-,-,Please name all of the ways you could use this object. Keep in mind that one object can have many uses. Separate your responses with a comma.,NA,y,24354,NA,NA,3624,10330,NA,NA,NA,"get a job, take care of children",1
J00661685_Mmkk,9qinvug4hi,Affordance Norms_South Alabama,1,24,2022-11-29T03:17:20+00:00,26.64070797,68,updated stim.csv,Version68.csv,Version 68,List 68,stitching,NA,2031,4.444444444,2539,2032,BOI,-,-,Please name all of the ways you could use this object. Keep in mind that one object can have many uses. Separate your responses with a comma.,NA,y,25797,NA,NA,2268,23948,NA,NA,NA,"fix clothing, stab oneself, ruin clothing, alter fabric",1
J00661685_Mmkk,9qinvug4hi,Affordance Norms_South Alabama,1,25,2022-11-29T03:17:56+00:00,36.2433722,68,updated stim.csv,Version68.csv,Version 68,List 68,wiring,NA,2017,4.428571429,2952,2018,BOI,-,-,Please name all of the ways you could use this object. Keep in mind that one object can have many uses. Separate your responses with a comma.,NA,y,35532,NA,NA,12267,32232,NA,NA,NA,"barricade, protect, hold together, keep in, keep out",1
J00661685_Mmkk,9qinvug4hi,Affordance Norms_South Alabama,1,26,2022-11-29T03:18:26+00:00,29.8796649,68,updated stim.csv,Version68.csv,Version 68,List 68,dorm,NA,2036,4.32,830,2037,BOI,-,-,Please name all of the ways you could use this object. Keep in mind that one object can have many uses. Separate your responses with a comma.,NA,y,28577,NA,NA,2554,20774,NA,NA,NA,"pay for, lay in, cook in, live in, party in, study in, clean",1
J00661685_Mmkk,9qinvug4hi,Affordance Norms_South Alabama,1,27,2022-11-29T03:18:34+00:00,8.39119792,68,updated stim.csv,Version68.csv,Version 68,List 68,stoneware,NA,2029,5.434782609,2546,2030,BOI,-,-,Please name all of the ways you could use this object. Keep in mind that one object can have many uses. Separate your responses with a comma.,NA,y,7454,NA,NA,5648,7218,NA,NA,NA,i dont know,1
J00661685_Mmkk,9qinvug4hi,Affordance Norms_South Alabama,1,28,2022-11-29T03:18:56+00:00,21.84586596,68,updated stim.csv,Version68.csv,Version 68,List 68,supper,NA,2013,5.2,2592,2014,BOI,-,-,Please name all of the ways you could use this object. Keep in mind that one object can have many uses. Separate your responses with a comma.,NA,y,21136,NA,NA,1349,18486,NA,NA,NA,"eat, serve, share, play with, season, cook",1
J00661685_Mmkk,9qinvug4hi,Affordance Norms_South Alabama,1,29,2022-11-29T03:19:16+00:00,19.66019106,68,updated stim.csv,Version68.csv,Version 68,List 68,servant,NA,2037,4.782608696,2313,2038,BOI,-,-,Please name all of the ways you could use this object. Keep in mind that one object can have many uses. Separate your responses with a comma.,NA,y,18838,NA,NA,2292,18369,NA,NA,NA,"pay, give orders, befriend",1
J00661685_Mmkk,9qinvug4hi,Affordance Norms_South Alabama,1,30,2022-11-29T03:20:21+00:00,64.79025197,68,updated stim.csv,Version68.csv,Version 68,List 68,chisel,NA,2012,5.333333333,531,2013,BOI,-,-,Please name all of the ways you could use this object. Keep in mind that one object can have many uses. Separate your responses with a comma.,NA,y,64087,NA,NA,2247,63171,NA,NA,NA,"carve, create art, create architecture, breakstone",1
J00661685_Mmkk,9qinvug4hi,Affordance Norms_South Alabama,1,31,2022-11-29T03:21:21+00:00,60.31454515,68,updated stim.csv,Version68.csv,Version 68,List 68,chickenfeed,NA,2024,4.72,518,2025,BOI,-,-,Please name all of the ways you could use this object. Keep in mind that one object can have many uses. Separate your responses with a comma.,NA,y,59152,NA,NA,50309,58073,NA,NA,NA,"feed chickens, make, throw",0.99
J00661685_Mmkk,9qinvug4hi,Affordance Norms_South Alabama,1,32,2022-11-29T03:21:43+00:00,21.81217098,68,updated stim.csv,Version68.csv,Version 68,List 68,teaspoon,NA,2040,4.76,2653,2041,BOI,-,-,Please name all of the ways you could use this object. Keep in mind that one object can have many uses. Separate your responses with a comma.,NA,y,19538,NA,NA,12109,18970,NA,NA,NA,"cook with, scoop with, bake",1
J00661685_Mmkk,9qinvug4hi,Affordance Norms_South Alabama,1,33,2022-11-29T03:21:58+00:00,14.85530901,68,updated stim.csv,Version68.csv,Version 68,List 68,slacks,NA,2025,6.103448276,2404,2026,BOI,-,-,Please name all of the ways you could use this object. Keep in mind that one object can have many uses. Separate your responses with a comma.,NA,y,13684,NA,NA,4777,13390,NA,NA,NA,"wear, alter, sew, cut, tear, buy",1
J00661685_Mmkk,9qinvug4hi,Affordance Norms_South Alabama,1,34,2022-11-29T03:22:22+00:00,24.89323592,68,updated stim.csv,Version68.csv,Version 68,List 68,violinist,NA,2034,4.47826087,2866,2035,BOI,-,-,Please name all of the ways you could use this object. Keep in mind that one object can have many uses. Separate your responses with a comma.,NA,y,24319,NA,NA,5590,23920,NA,NA,NA,"pay, practice, take lesson from, sing with, listen to, watch",1
J00661685_Mmkk,9qinvug4hi,Affordance Norms_South Alabama,1,35,2022-11-29T03:22:47+00:00,24.83936906,68,updated stim.csv,Version68.csv,Version 68,List 68,textile,NA,2018,4.964285714,2672,2019,BOI,-,-,Please name all of the ways you could use this object. Keep in mind that one object can have many uses. Separate your responses with a comma.,NA,y,24285,NA,NA,15458,22555,NA,NA,NA,"wear, create, sell buy",1
J00661685_Mmkk,9qinvug4hi,Affordance Norms_South Alabama,1,36,2022-11-29T03:22:54+00:00,6.827868938,68,updated stim.csv,Version68.csv,Version 68,List 68,shipman,NA,2016,4.407407407,2344,2017,BOI,-,-,Please name all of the ways you could use this object. Keep in mind that one object can have many uses. Separate your responses with a comma.,NA,y,5572,NA,NA,3831,5428,NA,NA,NA,i dont know,1
J00661685_Mmkk,9qinvug4hi,Affordance Norms_South Alabama,1,37,2022-11-29T03:23:20+00:00,26.29507303,68,updated stim.csv,Version68.csv,Version 68,List 68,questionnaire,NA,2011,4.461538462,2113,2012,BOI,-,-,Please name all of the ways you could use this object. Keep in mind that one object can have many uses. Separate your responses with a comma.,NA,y,25641,NA,NA,1726,25284,NA,NA,NA,"take, make, send, research, discover",1
J00661685_Mmkk,9qinvug4hi,Affordance Norms_South Alabama,1,38,2022-11-29T03:23:40+00:00,19.86796188,68,updated stim.csv,Version68.csv,Version 68,List 68,sketchpad,NA,2015,5.36,2395,2016,BOI,-,-,Please name all of the ways you could use this object. Keep in mind that one object can have many uses. Separate your responses with a comma.,NA,y,19131,NA,NA,1234,18813,NA,NA,NA,"draw, create, scribble on, paint, tear, gift, but, sell, take ",1
J00661685_Mmkk,9qinvug4hi,Affordance Norms_South Alabama,1,39,2022-11-29T03:23:56+00:00,15.27195311,68,updated stim.csv,Version68.csv,Version 68,List 68,businessman,NA,2021,5.25,370,2022,BOI,-,-,Please name all of the ways you could use this object. Keep in mind that one object can have many uses. Separate your responses with a comma.,NA,y,14210,NA,NA,2572,13733,NA,NA,NA,"meet with, shake hands, talk to, buy from, work with",1
J00661685_Mmkk,9qinvug4hi,Affordance Norms_South Alabama,1,40,2022-11-29T03:24:11+00:00,15.76834488,68,updated stim.csv,Version68.csv,Version 68,List 68,primates,NA,2035,4.956521739,2064,2036,BOI,-,-,Please name all of the ways you could use this object. Keep in mind that one object can have many uses. Separate your responses with a comma.,NA,y,15185,NA,NA,2248,14782,NA,NA,NA,"study, watch, listen you, discover, research",1
J00663767_RDH,p56qkvipiv,Affordance Norms_South Alabama,1,11,2022-12-02T05:03:27+00:00,19.36925101,33,updated stim.csv,Version33.csv,Version 33,List 33,cadet,NA,986,4.291666667,394,987,BOI,-,-,Please name all of the ways you could use this object. Keep in mind that one object can have many uses. Separate your responses with a comma.,NA,y,19115,NA,NA,9512,14644,NA,NA,NA,"made, initiated",1
J00663767_RDH,p56qkvipiv,Affordance Norms_South Alabama,1,12,2022-12-02T05:04:15+00:00,48.41706109,33,updated stim.csv,Version33.csv,Version 33,List 33,hairpiece,NA,985,5.956521739,1215,986,BOI,-,-,Please name all of the ways you could use this object. Keep in mind that one object can have many uses. Separate your responses with a comma.,NA,y,48171,NA,NA,1774,47755,NA,NA,NA,"placed, pinned, pulled out, scrunched",1
J00663767_RDH,p56qkvipiv,Affordance Norms_South Alabama,1,13,2022-12-02T05:04:51+00:00,35.37318397,33,updated stim.csv,Version33.csv,Version 33,List 33,appraiser,NA,980,4.428571429,64,981,BOI,-,-,Please name all of the ways you could use this object. Keep in mind that one object can have many uses. Separate your responses with a comma.,NA,y,34856,NA,NA,19078,28658,NA,NA,NA,"estimates, judges, makes calls, judges",1
J00663767_RDH,p56qkvipiv,Affordance Norms_South Alabama,1,14,2022-12-02T05:06:40+00:00,109.055624,33,updated stim.csv,Version33.csv,Version 33,List 33,handshake,NA,981,5.636363636,1243,982,BOI,-,-,Please name all of the ways you could use this object. Keep in mind that one object can have many uses. Separate your responses with a comma.,NA,y,108388,NA,NA,81421,86901,NA,NA,NA,"makes a deal, commits",1
J00663767_RDH,p56qkvipiv,Affordance Norms_South Alabama,1,15,2022-12-02T05:07:29+00:00,48.80352187,33,updated stim.csv,Version33.csv,Version 33,List 33,drawing,NA,966,4.695652174,841,967,BOI,-,-,Please name all of the ways you could use this object. Keep in mind that one object can have many uses. Separate your responses with a comma.,NA,y,48555,NA,NA,34634,47539,NA,NA,NA,"a project, pictures, a number",1
J00663767_RDH,p56qkvipiv,Affordance Norms_South Alabama,1,16,2022-12-02T05:08:11+00:00,42.68277502,33,updated stim.csv,Version33.csv,Version 33,List 33,buoy,NA,990,5.125,364,991,BOI,-,-,Please name all of the ways you could use this object. Keep in mind that one object can have many uses. Separate your responses with a comma.,NA,y,42254,NA,NA,26974,41354,NA,NA,NA,ocean lines,1
J00663767_RDH,p56qkvipiv,Affordance Norms_South Alabama,1,17,2022-12-02T05:08:25+00:00,13.29630399,33,updated stim.csv,Version33.csv,Version 33,List 33,straw,NA,979,6,2560,980,BOI,-,-,Please name all of the ways you could use this object. Keep in mind that one object can have many uses. Separate your responses with a comma.,NA,y,13097,NA,NA,7336,12949,NA,NA,NA,"drinking, eating, tools",1
J00663767_RDH,p56qkvipiv,Affordance Norms_South Alabama,1,18,2022-12-02T05:08:43+00:00,18.08362508,33,updated stim.csv,Version33.csv,Version 33,List 33,bobsleigh,NA,972,5.64,258,973,BOI,-,-,Please name all of the ways you could use this object. Keep in mind that one object can have many uses. Separate your responses with a comma.,NA,y,17906,NA,NA,6003,17031,NA,NA,NA,"sledding, olympics",1
J00663767_RDH,p56qkvipiv,Affordance Norms_South Alabama,1,19,2022-12-02T05:09:34+00:00,50.84362602,33,updated stim.csv,Version33.csv,Version 33,List 33,film,NA,962,4.32,976,963,BOI,-,-,Please name all of the ways you could use this object. Keep in mind that one object can have many uses. Separate your responses with a comma.,NA,y,50358,NA,NA,42703,49774,NA,NA,NA,"to watch, create, record",1
J00663767_RDH,p56qkvipiv,Affordance Norms_South Alabama,1,20,2022-12-02T05:09:46+00:00,12.60406303,33,updated stim.csv,Version33.csv,Version 33,List 33,termite,NA,970,4.32,2666,971,BOI,-,-,Please name all of the ways you could use this object. Keep in mind that one object can have many uses. Separate your responses with a comma.,NA,y,12346,NA,NA,3182,12197,NA,NA,NA,"eat wood, living in my house",1
J00663767_RDH,p56qkvipiv,Affordance Norms_South Alabama,1,21,2022-12-02T05:09:51+00:00,5.345093966,33,updated stim.csv,Version33.csv,Version 33,List 33,bonbon,NA,974,4.807692308,265,975,BOI,-,-,Please name all of the ways you could use this object. Keep in mind that one object can have many uses. Separate your responses with a comma.,NA,y,4817,NA,NA,3965,4279,NA,NA,NA,eat,1
J00663767_RDH,p56qkvipiv,Affordance Norms_South Alabama,1,22,2022-12-02T05:10:03+00:00,11.384763,33,updated stim.csv,Version33.csv,Version 33,List 33,reindeer,NA,976,4.5,2153,977,BOI,-,-,Please name all of the ways you could use this object. Keep in mind that one object can have many uses. Separate your responses with a comma.,NA,y,10563,NA,NA,2556,10351,NA,NA,NA,"sledding, rides with santa",1
