Username,ID,ExperimentName,Session,Trial,Date,TimeDif,"Condition Number","Stimuli File","Order File","Condition Description","Condition Notes",Stimuli*Cue,Stimuli*Answer,Stimuli*Shuffle,"Stimuli*Stimuli Notes",Stimuli*Value,Stimuli*Rand,Procedure*Item,"Procedure*Trial Type","Procedure*Max Time","Procedure*Min Time",Procedure*Text,"Procedure*Procedure Notes",Procedure*Shuffle,Response*RT,Response*Response,Response*Accuracy,Response*RTfirst,Response*RTlast,Response*strictAcc,Response*lenientAcc,Response*focus,Response*JOL,Response*Focus
10160134,v1nsl4z2dz,"Affordance Norms_USM",1,1,2023-03-07T01:41:45+00:00,21.681146144867,84,"updated stim.csv",Version84.csv,"Version 84","List 84",,,,,,,0,Instruct,-,10,"In this section, you will be presented with a series of objects. Please name as many possible uses for this object as you can think of by typing them in the box below each object.",,Instruct1,21332,,,-1,-1,,,,,1
10160134,v1nsl4z2dz,"Affordance Norms_USM",1,2,2023-03-07T01:42:00+00:00,15.507467985153,84,"updated stim.csv",Version84.csv,"Version 84","List 84",,,,,,,0,Instruct,-,10,"Please keep in mind that a single object will have more than one use. For example, a ball can be thrown or can be bounced or even stepped on. When listing multiple uses for one object, please separate each use with a comma (i.e., thrown, bounced, stepped on)",,Instruct2,14532,,,-1,-1,,,,,1
10160134,v1nsl4z2dz,"Affordance Norms_USM",1,3,2023-03-07T01:42:07+00:00,6.6165518760681,84,"updated stim.csv",Version84.csv,"Version 84","List 84",,,,,,,0,Instruct,-,-,"Before starting the experiment, you will complete a short practice sesstion. Press ENTER when you are ready to begin.",,Instruct3,5686,,,-1,-1,,,,,1
10160134,v1nsl4z2dz,"Affordance Norms_USM",1,4,2023-03-07T01:42:45+00:00,38.33987903595,84,"updated stim.csv",Version84.csv,"Version 84","List 84",grain,,3004,5.217391304,1143,0.226863762,3005,BOI,-,-,"Please name all of the ways you could use this object. Keep in mind that one object can have many uses. Separate your responses with a comma.",,n,36525,,,5729,33918,,,,"small amount, pavement",1
10160134,v1nsl4z2dz,"Affordance Norms_USM",1,5,2023-03-07T01:43:33+00:00,48.241285085678,84,"updated stim.csv",Version84.csv,"Version 84","List 84",paperwork,,3001,5.625,1866,0.124284162,3002,BOI,-,-,"Please name all of the ways you could use this object. Keep in mind that one object can have many uses. Separate your responses with a comma.",,n,46862,,,14414,24150,,,,documents,1
10160134,v1nsl4z2dz,"Affordance Norms_USM",1,6,2023-03-07T01:45:02+00:00,88.846087932587,84,"updated stim.csv",Version84.csv,"Version 84","List 84",saucer,,3005,5.777777778,2249,0.304808074,3006,BOI,-,-,"Please name all of the ways you could use this object. Keep in mind that one object can have many uses. Separate your responses with a comma.",,n,86934,,,83871,85157,,,,"a dish",1
10160134,v1nsl4z2dz,"Affordance Norms_USM",1,7,2023-03-07T01:45:58+00:00,56.128083944321,84,"updated stim.csv",Version84.csv,"Version 84","List 84",shortening,,3002,4.92,2358,0.604328482,3003,BOI,-,-,"Please name all of the ways you could use this object. Keep in mind that one object can have many uses. Separate your responses with a comma.",,n,53102,,,2652,46056,,,,"butter, become short",1
10160134,v1nsl4z2dz,"Affordance Norms_USM",1,8,2023-03-07T01:46:08+00:00,9.4019801616669,84,"updated stim.csv",Version84.csv,"Version 84","List 84",spaghetti,,3003,6,2461,0.090379998,3004,BOI,-,-,"Please name all of the ways you could use this object. Keep in mind that one object can have many uses. Separate your responses with a comma.",,n,8106,,,4557,6868,,,,"food dish",1
10160134,v1nsl4z2dz,"Affordance Norms_USM",1,9,2023-03-07T01:46:11+00:00,3.0676629543304,84,"updated stim.csv",Version84.csv,"Version 84","List 84",,,,,,,0,Instruct,-,-,"You have completed this section. Press ENTER to continue",,"Instruct 5",2143,,,-1,-1,,,,,1
10160134,v1nsl4z2dz,"Affordance Norms_USM",1,10,2023-03-07T01:46:15+00:00,4.3170669078827,84,"updated stim.csv",Version84.csv,"Version 84","List 84",,,,,,,0,Instruct,-,-,"You will now start the full experiment. Press ENTER when you are ready to begin.",,,3895,,,-1,-1,,,,,1
10160134,v1nsl4z2dz,"Affordance Norms_USM",1,11,2023-03-07T01:46:31+00:00,16.007249116898,84,"updated stim.csv",Version84.csv,"Version 84","List 84",flycatcher,,2491,5.375,1020,0.717036462,2492,BOI,-,-,"Please name all of the ways you could use this object. Keep in mind that one object can have many uses. Separate your responses with a comma.",,y,15590,,,6871,12390,,,,"object that catches flies",1
10160134,v1nsl4z2dz,"Affordance Norms_USM",1,12,2023-03-07T01:49:14+00:00,163.08327889442,84,"updated stim.csv",Version84.csv,"Version 84","List 84",file,,2502,5.041666667,974,0.376378631,2503,BOI,-,-,"Please name all of the ways you could use this object. Keep in mind that one object can have many uses. Separate your responses with a comma.",,y,161894,,,33427,145562,,,,"document, folder, categorize",1
10160134,v1nsl4z2dz,"Affordance Norms_USM",1,13,2023-03-07T01:53:02+00:00,227.68074512482,84,"updated stim.csv",Version84.csv,"Version 84","List 84",lifeguard,,2520,4.96,1506,0.061995952,2521,BOI,-,-,"Please name all of the ways you could use this object. Keep in mind that one object can have many uses. Separate your responses with a comma.",,y,226660,,,205800,216649,,,,"a swimmer who rescues people",1
10160134,v1nsl4z2dz,"Affordance Norms_USM",1,14,2023-03-07T01:54:21+00:00,79.518715858459,84,"updated stim.csv",Version84.csv,"Version 84","List 84",bait,,2503,4.375,125,0.805576651,2504,BOI,-,-,"Please name all of the ways you could use this object. Keep in mind that one object can have many uses. Separate your responses with a comma.",,y,78053,,,17035,31392,,,,"luring people or objects",1
10160134,v1nsl4z2dz,"Affordance Norms_USM",1,15,2023-03-07T01:54:59+00:00,37.232330083847,84,"updated stim.csv",Version84.csv,"Version 84","List 84",ecologist,,2493,4.458333333,887,0.370586112,2494,BOI,-,-,"Please name all of the ways you could use this object. Keep in mind that one object can have many uses. Separate your responses with a comma.",,y,36077,,,26025,34369,,,,"person who studies ecology",1
10160134,v1nsl4z2dz,"Affordance Norms_USM",1,16,2023-03-07T01:55:48+00:00,48.925789117813,84,"updated stim.csv",Version84.csv,"Version 84","List 84",board,,2518,4.48,253,0.78576646,2519,BOI,-,-,"Please name all of the ways you could use this object. Keep in mind that one object can have many uses. Separate your responses with a comma.",,y,47841,,,23004,46361,,,,"dry erase, chalkboard, piece of wood",1
10160134,v1nsl4z2dz,"Affordance Norms_USM",1,17,2023-03-07T01:57:24+00:00,96.280330896378,84,"updated stim.csv",Version84.csv,"Version 84","List 84",grocery,,2512,5.068965517,1179,0.868982261,2513,BOI,-,-,"Please name all of the ways you could use this object. Keep in mind that one object can have many uses. Separate your responses with a comma.",,y,95209,,,5661,6131,,,,food,1
10160134,v1nsl4z2dz,"Affordance Norms_USM",1,18,2023-03-07T01:59:12+00:00,107.96196103096,84,"updated stim.csv",Version84.csv,"Version 84","List 84",insole,,2510,4.454545455,1358,0.030018576,2511,BOI,-,-,"Please name all of the ways you could use this object. Keep in mind that one object can have many uses. Separate your responses with a comma.",,y,106866,,,101250,105788,,,,"inside the shoe",1
10160134,v1nsl4z2dz,"Affordance Norms_USM",1,19,2023-03-07T01:59:25+00:00,13.026448011398,84,"updated stim.csv",Version84.csv,"Version 84","List 84",earthworm,,2495,4.916666667,883,0.28261322,2496,BOI,-,-,"Please name all of the ways you could use this object. Keep in mind that one object can have many uses. Separate your responses with a comma.",,y,11827,,,5851,10469,,,,"a worm in the ground",1
10160134,v1nsl4z2dz,"Affordance Norms_USM",1,20,2023-03-07T02:01:02+00:00,97.704161882401,84,"updated stim.csv",Version84.csv,"Version 84","List 84",shamrock,,2507,4.5,2321,0.881236324,2508,BOI,-,-,"Please name all of the ways you could use this object. Keep in mind that one object can have many uses. Separate your responses with a comma.",,y,96447,,,82932,83848,,,,clover,1
10160134,v1nsl4z2dz,"Affordance Norms_USM",1,21,2023-03-07T02:03:09+00:00,126.32861495018,84,"updated stim.csv",Version84.csv,"Version 84","List 84",drum,,2497,5.8,854,0.896443276,2498,BOI,-,-,"Please name all of the ways you could use this object. Keep in mind that one object can have many uses. Separate your responses with a comma.",,y,124109,,,118383,122471,,,,"musical instrument",1
10160134,v1nsl4z2dz,"Affordance Norms_USM",1,22,2023-03-07T02:03:49+00:00,39.786139011383,84,"updated stim.csv",Version84.csv,"Version 84","List 84",hatchback,,2513,4.818181818,1260,0.956452001,2514,BOI,-,-,"Please name all of the ways you could use this object. Keep in mind that one object can have many uses. Separate your responses with a comma.",,y,38423,,,33121,36692,,,,"car type",1
10160134,v1nsl4z2dz,"Affordance Norms_USM",1,23,2023-03-07T02:04:11+00:00,22.582123041153,84,"updated stim.csv",Version84.csv,"Version 84","List 84",woodpile,,2508,5,2962,0.539971899,2509,BOI,-,-,"Please name all of the ways you could use this object. Keep in mind that one object can have many uses. Separate your responses with a comma.",,y,21401,,,5441,21394,,,,"pile of wood",1
10160134,v1nsl4z2dz,"Affordance Norms_USM",1,24,2023-03-07T02:05:53+00:00,102.06562209129,84,"updated stim.csv",Version84.csv,"Version 84","List 84",plank,,2516,4.92,1987,0.104474765,2517,BOI,-,-,"Please name all of the ways you could use this object. Keep in mind that one object can have many uses. Separate your responses with a comma.",,y,100814,,,40787,58639,,,,"exercise form, board",1
10160134,v1nsl4z2dz,"Affordance Norms_USM",1,25,2023-03-07T02:07:02+00:00,68.701133966446,84,"updated stim.csv",Version84.csv,"Version 84","List 84",feather,,2517,5.260869565,956,0.408799734,2518,BOI,-,-,"Please name all of the ways you could use this object. Keep in mind that one object can have many uses. Separate your responses with a comma.",,y,67130,,,57598,65724,,,,"outer coat on a bird",1
10160134,v1nsl4z2dz,"Affordance Norms_USM",1,26,2023-03-07T02:13:08+00:00,366.36191701889,84,"updated stim.csv",Version84.csv,"Version 84","List 84",virgin,,2500,4.448275862,2867,0.256632601,2501,BOI,-,-,"Please name all of the ways you could use this object. Keep in mind that one object can have many uses. Separate your responses with a comma.",,y,363108,,,358050,359043,,,,celibate,1
10160134,v1nsl4z2dz,"Affordance Norms_USM",1,27,2023-03-07T02:14:04+00:00,55.984657049179,84,"updated stim.csv",Version84.csv,"Version 84","List 84",men,,2509,5.72,1644,0.146823724,2510,BOI,-,-,"Please name all of the ways you could use this object. Keep in mind that one object can have many uses. Separate your responses with a comma.",,y,54415,,,33019,46694,,,,"male ",1
10160134,v1nsl4z2dz,"Affordance Norms_USM",1,28,2023-03-07T02:15:09+00:00,64.525043964386,84,"updated stim.csv",Version84.csv,"Version 84","List 84",lever,,2492,5.038461538,1498,0.735422312,2493,BOI,-,-,"Please name all of the ways you could use this object. Keep in mind that one object can have many uses. Separate your responses with a comma.",,y,61343,,,59457,59890,,,,"a bar",1
10160134,v1nsl4z2dz,"Affordance Norms_USM",1,29,2023-03-07T02:15:17+00:00,8.0473909378052,84,"updated stim.csv",Version84.csv,"Version 84","List 84",storehouse,,2504,4.5,2551,0.542917048,2505,BOI,-,-,"Please name all of the ways you could use this object. Keep in mind that one object can have many uses. Separate your responses with a comma.",,y,6737,,,1971,5691,,,,"a place to store things",1
10160134,v1nsl4z2dz,"Affordance Norms_USM",1,30,2023-03-07T02:15:36+00:00,19.161026000977,84,"updated stim.csv",Version84.csv,"Version 84","List 84",foliage,,2511,4.6,1025,0.540952756,2512,BOI,-,-,"Please name all of the ways you could use this object. Keep in mind that one object can have many uses. Separate your responses with a comma.",,y,17060,,,14679,15563,,,,leaves,1
10160134,v1nsl4z2dz,"Affordance Norms_USM",1,31,2023-03-07T02:16:22+00:00,45.857017040253,84,"updated stim.csv",Version84.csv,"Version 84","List 84",drapery,,2506,4.68,838,0.014862316,2507,BOI,-,-,"Please name all of the ways you could use this object. Keep in mind that one object can have many uses. Separate your responses with a comma.",,y,44239,,,42222,43127,,,,curtain,1
10160134,v1nsl4z2dz,"Affordance Norms_USM",1,32,2023-03-07T02:17:12+00:00,50.301538944244,84,"updated stim.csv",Version84.csv,"Version 84","List 84",chain,,2499,5.958333333,484,0.692046869,2500,BOI,-,-,"Please name all of the ways you could use this object. Keep in mind that one object can have many uses. Separate your responses with a comma.",,y,48703,,,37547,46873,,,,"bonds, series of things",1
10160134,v1nsl4z2dz,"Affordance Norms_USM",1,33,2023-03-07T02:17:20+00:00,7.4350211620331,84,"updated stim.csv",Version84.csv,"Version 84","List 84",strudel,,2505,5.666666667,2572,0.141914564,2506,BOI,-,-,"Please name all of the ways you could use this object. Keep in mind that one object can have many uses. Separate your responses with a comma.",,y,6569,,,3721,4829,,,,pastry,1
10160134,v1nsl4z2dz,"Affordance Norms_USM",1,34,2023-03-07T02:19:32+00:00,132.29574298859,84,"updated stim.csv",Version84.csv,"Version 84","List 84",lamplighter,,2514,4.263157895,1457,0.501380127,2515,BOI,-,-,"Please name all of the ways you could use this object. Keep in mind that one object can have many uses. Separate your responses with a comma.",,y,130568,,,90648,129291,,,,"a person who lights a lamp",1
10160134,v1nsl4z2dz,"Affordance Norms_USM",1,35,2023-03-07T02:21:18+00:00,106.14592385292,84,"updated stim.csv",Version84.csv,"Version 84","List 84",whirlpool,,2501,4.565217391,2926,0.806493724,2502,BOI,-,-,"Please name all of the ways you could use this object. Keep in mind that one object can have many uses. Separate your responses with a comma.",,y,104592,,,98963,102832,,,,"rotating water",1
10160134,v1nsl4z2dz,"Affordance Norms_USM",1,36,2023-03-07T02:21:32+00:00,14.261659145355,84,"updated stim.csv",Version84.csv,"Version 84","List 84",lamp,,2515,6.083333333,1455,0.851826569,2516,BOI,-,-,"Please name all of the ways you could use this object. Keep in mind that one object can have many uses. Separate your responses with a comma.",,y,13465,,,5283,11215,,,,"an object that shines light",1
10160134,v1nsl4z2dz,"Affordance Norms_USM",1,37,2023-03-07T02:22:33+00:00,60.418412923813,84,"updated stim.csv",Version84.csv,"Version 84","List 84",coffin,,2498,5.52,594,0.959219252,2499,BOI,-,-,"Please name all of the ways you could use this object. Keep in mind that one object can have many uses. Separate your responses with a comma.",,y,58931,,,29589,56283,,,,"hold deceased people",1
10160134,v1nsl4z2dz,"Affordance Norms_USM",1,38,2023-03-07T02:25:44+00:00,191.69754886627,84,"updated stim.csv",Version84.csv,"Version 84","List 84",microwave,,2519,5.28,1656,0.580288811,2520,BOI,-,-,"Please name all of the ways you could use this object. Keep in mind that one object can have many uses. Separate your responses with a comma.",,y,189855,,,180847,188145,,,,"heats food items",1
10160134,v1nsl4z2dz,"Affordance Norms_USM",1,39,2023-03-07T02:26:20+00:00,35.83848118782,84,"updated stim.csv",Version84.csv,"Version 84","List 84",toothpick,,2494,6.375,2734,0.454218489,2495,BOI,-,-,"Please name all of the ways you could use this object. Keep in mind that one object can have many uses. Separate your responses with a comma.",,y,34097,,,24026,32367,,,,"gets food out of your teeth",1
10160134,v1nsl4z2dz,"Affordance Norms_USM",1,40,2023-03-07T02:28:29+00:00,128.37555789948,84,"updated stim.csv",Version84.csv,"Version 84","List 84",spade,,2496,4.4,2460,0.413437675,2497,BOI,-,-,"Please name all of the ways you could use this object. Keep in mind that one object can have many uses. Separate your responses with a comma.",,y,126886,,,91970,123046,,,,"tool, playing card",1
10160134,v1nsl4z2dz,"Affordance Norms_USM",1,41,2023-03-07T02:29:56+00:00,87.318988084793,84,"updated stim.csv",Version84.csv,"Version 84","List 84",,,,,,,0,Instruct,,,"You will now be asked a few questions about your experience today.",,"Instruct 4",85884,,,-1,-1,,,,,1
