Username,ID,ExperimentName,Session,Trial,Date,TimeDif,"Condition Number","Stimuli File","Order File","Condition Description","Condition Notes",Stimuli*Cue,Stimuli*Answer,Stimuli*Shuffle,"Stimuli*Stimuli Notes",Stimuli*Value,Stimuli*Rand,Procedure*Item,"Procedure*Trial Type","Procedure*Max Time","Procedure*Min Time",Procedure*Text,"Procedure*Procedure Notes",Procedure*Shuffle,Response*RT,Response*Response,Response*Accuracy,Response*RTfirst,Response*RTlast,Response*strictAcc,Response*lenientAcc,Response*focus,Response*JOL,Response*Focus
w10139513_JEH,79rhyqr4gl,"Affordance Norms_USM",1,1,2023-02-08T19:53:39+00:00,10.337810993195,59,"updated stim.csv",Version59.csv,"Version 59","List 59",,,,,,,0,Instruct,-,10,"In this section, you will be presented with a series of objects. Please name as many possible uses for this object as you can think of by typing them in the box below each object.",,Instruct1,10130,,,-1,-1,,,,,1
w10139513_JEH,79rhyqr4gl,"Affordance Norms_USM",1,2,2023-02-08T19:53:50+00:00,11.511521816254,59,"updated stim.csv",Version59.csv,"Version 59","List 59",,,,,,,0,Instruct,-,10,"Please keep in mind that a single object will have more than one use. For example, a ball can be thrown or can be bounced or even stepped on. When listing multiple uses for one object, please separate each use with a comma (i.e., thrown, bounced, stepped on)",,Instruct2,11187,,,-1,-1,,,,,1
w10139513_JEH,79rhyqr4gl,"Affordance Norms_USM",1,3,2023-02-08T19:53:54+00:00,3.4908292293549,59,"updated stim.csv",Version59.csv,"Version 59","List 59",,,,,,,0,Instruct,-,-,"Before starting the experiment, you will complete a short practice sesstion. Press ENTER when you are ready to begin.",,Instruct3,3219,,,-1,-1,,,,,1
w10139513_JEH,79rhyqr4gl,"Affordance Norms_USM",1,4,2023-02-08T19:54:23+00:00,29.102017879486,59,"updated stim.csv",Version59.csv,"Version 59","List 59",shortening,,3002,4.92,2358,0.604328482,3003,BOI,-,-,"Please name all of the ways you could use this object. Keep in mind that one object can have many uses. Separate your responses with a comma.",,n,28767,,,9798,27950,,,,"cutting, shrinking, compacting",1
w10139513_JEH,79rhyqr4gl,"Affordance Norms_USM",1,5,2023-02-08T19:54:40+00:00,16.75139093399,59,"updated stim.csv",Version59.csv,"Version 59","List 59",grain,,3004,5.217391304,1143,0.226863762,3005,BOI,-,-,"Please name all of the ways you could use this object. Keep in mind that one object can have many uses. Separate your responses with a comma.",,n,16422,,,3971,15349,,,,"bake, cook, eat",1
w10139513_JEH,79rhyqr4gl,"Affordance Norms_USM",1,6,2023-02-08T19:54:50+00:00,10.505163192749,59,"updated stim.csv",Version59.csv,"Version 59","List 59",saucer,,3005,5.777777778,2249,0.304808074,3006,BOI,-,-,"Please name all of the ways you could use this object. Keep in mind that one object can have many uses. Separate your responses with a comma.",,n,10238,,,1905,9130,,,,"cook, bake, eat, wash",1
w10139513_JEH,79rhyqr4gl,"Affordance Norms_USM",1,7,2023-02-08T19:55:02+00:00,11.484691858292,59,"updated stim.csv",Version59.csv,"Version 59","List 59",spaghetti,,3003,6,2461,0.090379998,3004,BOI,-,-,"Please name all of the ways you could use this object. Keep in mind that one object can have many uses. Separate your responses with a comma.",,n,11182,,,1816,8366,,,,"cook, prepare, eat",1
w10139513_JEH,79rhyqr4gl,"Affordance Norms_USM",1,8,2023-02-08T19:55:15+00:00,13.842734098434,59,"updated stim.csv",Version59.csv,"Version 59","List 59",paperwork,,3001,5.625,1866,0.124284162,3002,BOI,-,-,"Please name all of the ways you could use this object. Keep in mind that one object can have many uses. Separate your responses with a comma.",,n,13451,,,1831,12197,,,,"print, write on, file, organize",1
w10139513_JEH,79rhyqr4gl,"Affordance Norms_USM",1,9,2023-02-08T19:55:17+00:00,1.9026229381561,59,"updated stim.csv",Version59.csv,"Version 59","List 59",,,,,,,0,Instruct,-,-,"You have completed this section. Press ENTER to continue",,"Instruct 5",1527,,,-1,-1,,,,,1
w10139513_JEH,79rhyqr4gl,"Affordance Norms_USM",1,10,2023-02-08T19:55:20+00:00,2.2170050144196,59,"updated stim.csv",Version59.csv,"Version 59","List 59",,,,,,,0,Instruct,-,-,"You will now start the full experiment. Press ENTER when you are ready to begin.",,,1917,,,-1,-1,,,,,1
w10139513_JEH,79rhyqr4gl,"Affordance Norms_USM",1,11,2023-02-08T19:56:06+00:00,46.658952951431,59,"updated stim.csv",Version59.csv,"Version 59","List 59",stirrer,,1745,4.615384615,2537,0.139093933,1746,BOI,-,-,"Please name all of the ways you could use this object. Keep in mind that one object can have many uses. Separate your responses with a comma.",,y,13990,,,6487,11355,,,,"to hold, stir",1
w10139513_JEH,79rhyqr4gl,"Affordance Norms_USM",1,12,2023-02-08T19:56:29+00:00,23.084527015686,59,"updated stim.csv",Version59.csv,"Version 59","List 59",shoehorn,,1770,5.75,2350,0.543116011,1771,BOI,-,-,"Please name all of the ways you could use this object. Keep in mind that one object can have many uses. Separate your responses with a comma.",,y,22694,,,5974,21791,,,,"hold, placing, shoving",1
w10139513_JEH,79rhyqr4gl,"Affordance Norms_USM",1,13,2023-02-08T19:56:36+00:00,6.3012111186981,59,"updated stim.csv",Version59.csv,"Version 59","List 59",beret,,1742,5.695652174,204,0.534744098,1743,BOI,-,-,"Please name all of the ways you could use this object. Keep in mind that one object can have many uses. Separate your responses with a comma.",,y,5950,,,4995,4995,,,,?,1
w10139513_JEH,79rhyqr4gl,"Affordance Norms_USM",1,14,2023-02-08T19:56:47+00:00,11.546484947205,59,"updated stim.csv",Version59.csv,"Version 59","List 59",trolley,,1743,5.416666667,2780,0.015846997,1744,BOI,-,-,"Please name all of the ways you could use this object. Keep in mind that one object can have many uses. Separate your responses with a comma.",,y,11261,,,1818,9952,,,,"ride, drive, get onto, sit on",1
w10139513_JEH,79rhyqr4gl,"Affordance Norms_USM",1,15,2023-02-08T19:56:57+00:00,9.632257938385,59,"updated stim.csv",Version59.csv,"Version 59","List 59",stagecoach,,1769,4.538461538,2498,0.60122922,1770,BOI,-,-,"Please name all of the ways you could use this object. Keep in mind that one object can have many uses. Separate your responses with a comma.",,y,9289,,,1596,7681,,,,"ride, drive, sit on",1
w10139513_JEH,79rhyqr4gl,"Affordance Norms_USM",1,16,2023-02-08T19:57:15+00:00,17.753299951553,59,"updated stim.csv",Version59.csv,"Version 59","List 59",beautician,,1760,4.608695652,183,0.543328676,1761,BOI,-,-,"Please name all of the ways you could use this object. Keep in mind that one object can have many uses. Separate your responses with a comma.",,y,17422,,,1617,7025,,,," beautify",1
w10139513_JEH,79rhyqr4gl,"Affordance Norms_USM",1,17,2023-02-08T19:57:20+00:00,5.0033111572266,59,"updated stim.csv",Version59.csv,"Version 59","List 59",axes,,1764,4.833333333,107,0.618408666,1765,BOI,-,-,"Please name all of the ways you could use this object. Keep in mind that one object can have many uses. Separate your responses with a comma.",,y,4672,,,1275,4108,,,,"throw, cut",1
w10139513_JEH,79rhyqr4gl,"Affordance Norms_USM",1,18,2023-02-08T19:57:27+00:00,7.1263799667358,59,"updated stim.csv",Version59.csv,"Version 59","List 59",bullet,,1741,5.772727273,353,0.384139642,1742,BOI,-,-,"Please name all of the ways you could use this object. Keep in mind that one object can have many uses. Separate your responses with a comma.",,y,6836,,,1334,6296,,,,"shoot, kill, hurt",1
w10139513_JEH,79rhyqr4gl,"Affordance Norms_USM",1,19,2023-02-08T19:57:39+00:00,12.506292819977,59,"updated stim.csv",Version59.csv,"Version 59","List 59",eye,,1747,5.72,929,0.443037439,1748,BOI,-,-,"Please name all of the ways you could use this object. Keep in mind that one object can have many uses. Separate your responses with a comma.",,y,12194,,,1511,10757,,,,"see, closed, read",1
w10139513_JEH,79rhyqr4gl,"Affordance Norms_USM",1,20,2023-02-08T19:57:42+00:00,2.6322400569916,59,"updated stim.csv",Version59.csv,"Version 59","List 59",honeysuckle,,1759,5.375,1305,0.241027144,1760,BOI,-,-,"Please name all of the ways you could use this object. Keep in mind that one object can have many uses. Separate your responses with a comma.",,y,2266,,,1754,2137,,,,eat,1
w10139513_JEH,79rhyqr4gl,"Affordance Norms_USM",1,21,2023-02-08T19:57:48+00:00,6.0620930194855,59,"updated stim.csv",Version59.csv,"Version 59","List 59",slush,,1763,4.541666667,2419,0.001805092,1764,BOI,-,-,"Please name all of the ways you could use this object. Keep in mind that one object can have many uses. Separate your responses with a comma.",,y,5732,,,2016,4196,,,,drink,1
w10139513_JEH,79rhyqr4gl,"Affordance Norms_USM",1,22,2023-02-08T19:58:03+00:00,14.615860939026,59,"updated stim.csv",Version59.csv,"Version 59","List 59",soccer,,1766,4.64,2438,0.415669367,1767,BOI,-,-,"Please name all of the ways you could use this object. Keep in mind that one object can have many uses. Separate your responses with a comma.",,y,14308,,,1503,14160,,,,"play, kick, tricks",1
w10139513_JEH,79rhyqr4gl,"Affordance Norms_USM",1,23,2023-02-08T19:58:06+00:00,3.0553951263428,59,"updated stim.csv",Version59.csv,"Version 59","List 59",midwife,,1757,5,1659,0.497275333,1758,BOI,-,-,"Please name all of the ways you could use this object. Keep in mind that one object can have many uses. Separate your responses with a comma.",,y,2814,,,1745,2504,,,,birth,1
w10139513_JEH,79rhyqr4gl,"Affordance Norms_USM",1,24,2023-02-08T19:58:12+00:00,6.6150949001312,59,"updated stim.csv",Version59.csv,"Version 59","List 59",statuette,,1750,4.739130435,2514,0.930875652,1751,BOI,-,-,"Please name all of the ways you could use this object. Keep in mind that one object can have many uses. Separate your responses with a comma.",,y,6355,,,5502,5502,,,,?,1
w10139513_JEH,79rhyqr4gl,"Affordance Norms_USM",1,25,2023-02-08T19:58:20+00:00,8.1983261108398,59,"updated stim.csv",Version59.csv,"Version 59","List 59",runner,,1768,4.608695652,2207,0.70961419,1769,BOI,-,-,"Please name all of the ways you could use this object. Keep in mind that one object can have many uses. Separate your responses with a comma.",,y,7799,,,1612,7634,,,,"run, in good shape",1
w10139513_JEH,79rhyqr4gl,"Affordance Norms_USM",1,26,2023-02-08T19:58:39+00:00,18.119583845139,59,"updated stim.csv",Version59.csv,"Version 59","List 59",surgeon,,1748,5,2595,0.062436921,1749,BOI,-,-,"Please name all of the ways you could use this object. Keep in mind that one object can have many uses. Separate your responses with a comma.",,y,17820,,,4699,16757,,,,"doctor, dillegent ",1
w10139513_JEH,79rhyqr4gl,"Affordance Norms_USM",1,27,2023-02-08T20:09:54+00:00,675.93641400337,59,"updated stim.csv",Version59.csv,"Version 59","List 59",outhouse,,1755,4.64,1829,0.122401729,1756,BOI,-,-,"Please name all of the ways you could use this object. Keep in mind that one object can have many uses. Separate your responses with a comma.",,y,674850,,,660249,666580,,,,bathroom,0.837
w10139513_JEH,79rhyqr4gl,"Affordance Norms_USM",1,28,2023-02-08T20:10:02+00:00,7.3486762046814,59,"updated stim.csv",Version59.csv,"Version 59","List 59",whip,,1754,5,2925,0.659916917,1755,BOI,-,-,"Please name all of the ways you could use this object. Keep in mind that one object can have many uses. Separate your responses with a comma.",,y,7017,,,2310,4314,,,,"hit, hurt",1
w10139513_JEH,79rhyqr4gl,"Affordance Norms_USM",1,29,2023-02-08T20:11:14+00:00,71.82036781311,59,"updated stim.csv",Version59.csv,"Version 59","List 59",tile,,1762,4.76,2697,0.15917771,1763,BOI,-,-,"Please name all of the ways you could use this object. Keep in mind that one object can have many uses. Separate your responses with a comma.",,y,70765,,,2423,9685,,,,"flooring ",1
w10139513_JEH,79rhyqr4gl,"Affordance Norms_USM",1,30,2023-02-08T20:11:25+00:00,11.56450510025,59,"updated stim.csv",Version59.csv,"Version 59","List 59",musician,,1744,4.47826087,1724,0.807811062,1745,BOI,-,-,"Please name all of the ways you could use this object. Keep in mind that one object can have many uses. Separate your responses with a comma.",,y,11291,,,1725,10913,,,,"singer, songwriter, music",1
w10139513_JEH,79rhyqr4gl,"Affordance Norms_USM",1,31,2023-02-08T20:11:33+00:00,8.1958320140839,59,"updated stim.csv",Version59.csv,"Version 59","List 59",belongings,,1753,5.173913043,201,0.384209393,1754,BOI,-,-,"Please name all of the ways you could use this object. Keep in mind that one object can have many uses. Separate your responses with a comma.",,y,7916,,,5580,7863,,,,"personal stuff",1
w10139513_JEH,79rhyqr4gl,"Affordance Norms_USM",1,32,2023-02-08T20:11:41+00:00,7.7366769313812,59,"updated stim.csv",Version59.csv,"Version 59","List 59",attire,,1765,5.086956522,95,0.100168074,1766,BOI,-,-,"Please name all of the ways you could use this object. Keep in mind that one object can have many uses. Separate your responses with a comma.",,y,7473,,,2290,6770,,,,"clothes, outfits ",1
w10139513_JEH,79rhyqr4gl,"Affordance Norms_USM",1,33,2023-02-08T20:11:59+00:00,18.260609149933,59,"updated stim.csv",Version59.csv,"Version 59","List 59",tenant,,1756,4.8,2662,0.79293781,1757,BOI,-,-,"Please name all of the ways you could use this object. Keep in mind that one object can have many uses. Separate your responses with a comma.",,y,17927,,,2230,17553,,,,collector,1
w10139513_JEH,79rhyqr4gl,"Affordance Norms_USM",1,34,2023-02-08T20:13:06+00:00,66.370746850967,59,"updated stim.csv",Version59.csv,"Version 59","List 59",triceps,,1758,5.52,2774,0.029767692,1759,BOI,-,-,"Please name all of the ways you could use this object. Keep in mind that one object can have many uses. Separate your responses with a comma.",,y,65395,,,53412,61271,,,,"arms, lifting, pushing ",1
w10139513_JEH,79rhyqr4gl,"Affordance Norms_USM",1,35,2023-02-08T20:13:10+00:00,4.3491950035095,59,"updated stim.csv",Version59.csv,"Version 59","List 59",softball,,1761,5.75,2444,0.483229766,1762,BOI,-,-,"Please name all of the ways you could use this object. Keep in mind that one object can have many uses. Separate your responses with a comma.",,y,4064,,,1451,3390,,,,"throw, hit",1
w10139513_JEH,79rhyqr4gl,"Affordance Norms_USM",1,36,2023-02-08T20:13:13+00:00,3.2848279476166,59,"updated stim.csv",Version59.csv,"Version 59","List 59",baggage,,1749,5.965517241,122,0.141549146,1750,BOI,-,-,"Please name all of the ways you could use this object. Keep in mind that one object can have many uses. Separate your responses with a comma.",,y,2827,,,1890,2535,,,,carry,1
w10139513_JEH,79rhyqr4gl,"Affordance Norms_USM",1,37,2023-02-08T20:13:29+00:00,15.638821125031,59,"updated stim.csv",Version59.csv,"Version 59","List 59",knitting,,1751,4.304347826,1436,0.568372099,1752,BOI,-,-,"Please name all of the ways you could use this object. Keep in mind that one object can have many uses. Separate your responses with a comma.",,y,15321,,,13445,15089,,,,"threading ",1
w10139513_JEH,79rhyqr4gl,"Affordance Norms_USM",1,38,2023-02-08T20:13:34+00:00,4.7319450378418,59,"updated stim.csv",Version59.csv,"Version 59","List 59",electrocardiogram,,1752,4.347826087,898,0.132707639,1753,BOI,-,-,"Please name all of the ways you could use this object. Keep in mind that one object can have many uses. Separate your responses with a comma.",,y,4482,,,3300,3301,,,,?,1
w10139513_JEH,79rhyqr4gl,"Affordance Norms_USM",1,39,2023-02-08T20:13:38+00:00,4.3559679985046,59,"updated stim.csv",Version59.csv,"Version 59","List 59",holder,,1767,4.28,1296,0.95017996,1768,BOI,-,-,"Please name all of the ways you could use this object. Keep in mind that one object can have many uses. Separate your responses with a comma.",,y,4026,,,3100,3778,,,,carry,1
w10139513_JEH,79rhyqr4gl,"Affordance Norms_USM",1,40,2023-02-08T20:13:48+00:00,10.042454957962,59,"updated stim.csv",Version59.csv,"Version 59","List 59",diploma,,1746,5.96,798,0.946243713,1747,BOI,-,-,"Please name all of the ways you could use this object. Keep in mind that one object can have many uses. Separate your responses with a comma.",,y,9761,,,8506,9555,,,,receive,1
w10139513_JEH,79rhyqr4gl,"Affordance Norms_USM",1,41,2023-02-08T20:13:51+00:00,2.8995580673218,59,"updated stim.csv",Version59.csv,"Version 59","List 59",,,,,,,0,Instruct,,,"You will now be asked a few questions about your experience today.",,"Instruct 4",2650,,,-1,-1,,,,,1
