Username,ID,ExperimentName,Session,Trial,Date,TimeDif,"Condition Number","Stimuli File","Order File","Condition Description","Condition Notes",Stimuli*Cue,Stimuli*Answer,Stimuli*Shuffle,"Stimuli*Stimuli Notes",Stimuli*Value,Stimuli*Rand,Procedure*Item,"Procedure*Trial Type","Procedure*Max Time","Procedure*Min Time",Procedure*Text,"Procedure*Procedure Notes",Procedure*Shuffle,Response*RT,Response*Response,Response*Accuracy,Response*RTfirst,Response*RTlast,Response*strictAcc,Response*lenientAcc,Response*focus,Response*JOL,Response*Focus
W10161566_TEN,zvbrcvbeh4,"Affordance Norms_USM",1,1,2023-03-06T03:36:49+00:00,11.226143836975,81,"updated stim.csv",Version81.csv,"Version 81","List 81",,,,,,,0,Instruct,-,10,"In this section, you will be presented with a series of objects. Please name as many possible uses for this object as you can think of by typing them in the box below each object.",,Instruct1,11147,,,-1,-1,,,,,1
W10161566_TEN,zvbrcvbeh4,"Affordance Norms_USM",1,2,2023-03-06T03:37:00+00:00,11.528477191925,81,"updated stim.csv",Version81.csv,"Version 81","List 81",,,,,,,0,Instruct,-,10,"Please keep in mind that a single object will have more than one use. For example, a ball can be thrown or can be bounced or even stepped on. When listing multiple uses for one object, please separate each use with a comma (i.e., thrown, bounced, stepped on)",,Instruct2,11414,,,-1,-1,,,,,1
W10161566_TEN,zvbrcvbeh4,"Affordance Norms_USM",1,3,2023-03-06T03:37:06+00:00,5.4780628681183,81,"updated stim.csv",Version81.csv,"Version 81","List 81",,,,,,,0,Instruct,-,-,"Before starting the experiment, you will complete a short practice sesstion. Press ENTER when you are ready to begin.",,Instruct3,5355,,,-1,-1,,,,,1
W10161566_TEN,zvbrcvbeh4,"Affordance Norms_USM",1,4,2023-03-06T03:37:22+00:00,15.972691059113,81,"updated stim.csv",Version81.csv,"Version 81","List 81",grain,,3004,5.217391304,1143,0.226863762,3005,BOI,-,-,"Please name all of the ways you could use this object. Keep in mind that one object can have many uses. Separate your responses with a comma.",,n,15857,,,12871,13146,,,,eat,1
W10161566_TEN,zvbrcvbeh4,"Affordance Norms_USM",1,5,2023-03-06T03:37:39+00:00,17.245934009552,81,"updated stim.csv",Version81.csv,"Version 81","List 81",paperwork,,3001,5.625,1866,0.124284162,3002,BOI,-,-,"Please name all of the ways you could use this object. Keep in mind that one object can have many uses. Separate your responses with a comma.",,n,17131,,,2968,15856,,,,"file, read, turn in, write",1
W10161566_TEN,zvbrcvbeh4,"Affordance Norms_USM",1,6,2023-03-06T03:37:47+00:00,8.5583128929138,81,"updated stim.csv",Version81.csv,"Version 81","List 81",shortening,,3002,4.92,2358,0.604328482,3003,BOI,-,-,"Please name all of the ways you could use this object. Keep in mind that one object can have many uses. Separate your responses with a comma.",,n,8444,,,6245,6629,,,,bake,1
W10161566_TEN,zvbrcvbeh4,"Affordance Norms_USM",1,7,2023-03-06T03:38:08+00:00,20.613614082336,81,"updated stim.csv",Version81.csv,"Version 81","List 81",saucer,,3005,5.777777778,2249,0.304808074,3006,BOI,-,-,"Please name all of the ways you could use this object. Keep in mind that one object can have many uses. Separate your responses with a comma.",,n,20499,,,18773,19448,,,,hold,0.806
W10161566_TEN,zvbrcvbeh4,"Affordance Norms_USM",1,8,2023-03-06T03:38:19+00:00,10.781251907349,81,"updated stim.csv",Version81.csv,"Version 81","List 81",spaghetti,,3003,6,2461,0.090379998,3004,BOI,-,-,"Please name all of the ways you could use this object. Keep in mind that one object can have many uses. Separate your responses with a comma.",,n,10670,,,1530,6498,,,,"eat, cook",1
W10161566_TEN,zvbrcvbeh4,"Affordance Norms_USM",1,9,2023-03-06T03:38:20+00:00,1.4941861629486,81,"updated stim.csv",Version81.csv,"Version 81","List 81",,,,,,,0,Instruct,-,-,"You have completed this section. Press ENTER to continue",,"Instruct 5",1387,,,-1,-1,,,,,1
W10161566_TEN,zvbrcvbeh4,"Affordance Norms_USM",1,10,2023-03-06T03:38:22+00:00,1.8182649612427,81,"updated stim.csv",Version81.csv,"Version 81","List 81",,,,,,,0,Instruct,-,-,"You will now start the full experiment. Press ENTER when you are ready to begin.",,,1714,,,-1,-1,,,,,1
W10161566_TEN,zvbrcvbeh4,"Affordance Norms_USM",1,11,2023-03-06T03:38:37+00:00,14.317816019058,81,"updated stim.csv",Version81.csv,"Version 81","List 81",syringes,,2408,5.541666667,2613,0.301019559,2409,BOI,-,-,"Please name all of the ways you could use this object. Keep in mind that one object can have many uses. Separate your responses with a comma.",,y,13687,,,8819,12603,,,,"fill, use",1
W10161566_TEN,zvbrcvbeh4,"Affordance Norms_USM",1,12,2023-03-06T03:38:58+00:00,21.004174947739,81,"updated stim.csv",Version81.csv,"Version 81","List 81",adult,,2404,5.409090909,15,0.392224703,2405,BOI,-,-,"Please name all of the ways you could use this object. Keep in mind that one object can have many uses. Separate your responses with a comma.",,y,20886,,,10056,17144,,,,"talk, hug, kiss",1
W10161566_TEN,zvbrcvbeh4,"Affordance Norms_USM",1,13,2023-03-06T03:39:04+00:00,6.9442300796509,81,"updated stim.csv",Version81.csv,"Version 81","List 81",weed,,2421,5.28,2918,0.919076736,2422,BOI,-,-,"Please name all of the ways you could use this object. Keep in mind that one object can have many uses. Separate your responses with a comma.",,y,6832,,,1370,5738,,,,"smoke, eat",1
W10161566_TEN,zvbrcvbeh4,"Affordance Norms_USM",1,14,2023-03-06T03:39:13+00:00,8.7386388778687,81,"updated stim.csv",Version81.csv,"Version 81","List 81",meat,,2411,5.52173913,1633,0.124349073,2412,BOI,-,-,"Please name all of the ways you could use this object. Keep in mind that one object can have many uses. Separate your responses with a comma.",,y,8623,,,1816,7620,,,,"cook, eat, tenderize",1
W10161566_TEN,zvbrcvbeh4,"Affordance Norms_USM",1,15,2023-03-06T03:39:19+00:00,5.5276720523834,81,"updated stim.csv",Version81.csv,"Version 81","List 81",thesaurus,,2419,5.363636364,2679,0.750420114,2420,BOI,-,-,"Please name all of the ways you could use this object. Keep in mind that one object can have many uses. Separate your responses with a comma.",,y,5416,,,1463,4307,,,,"read, study",1
W10161566_TEN,zvbrcvbeh4,"Affordance Norms_USM",1,16,2023-03-06T03:39:31+00:00,12.477062940598,81,"updated stim.csv",Version81.csv,"Version 81","List 81",log,,2403,5.692307692,1541,0.650337737,2404,BOI,-,-,"Please name all of the ways you could use this object. Keep in mind that one object can have many uses. Separate your responses with a comma.",,y,12362,,,2838,11297,,,,"cut, catch fire",1
W10161566_TEN,zvbrcvbeh4,"Affordance Norms_USM",1,17,2023-03-06T03:39:40+00:00,9.0482950210571,81,"updated stim.csv",Version81.csv,"Version 81","List 81",fork,,2416,5.6,1047,0.704782944,2417,BOI,-,-,"Please name all of the ways you could use this object. Keep in mind that one object can have many uses. Separate your responses with a comma.",,y,8932,,,5840,7627,,,,"use to eat",1
W10161566_TEN,zvbrcvbeh4,"Affordance Norms_USM",1,18,2023-03-06T03:39:54+00:00,13.482464075089,81,"updated stim.csv",Version81.csv,"Version 81","List 81",desk,,2428,6.260869565,780,0.175575772,2429,BOI,-,-,"Please name all of the ways you could use this object. Keep in mind that one object can have many uses. Separate your responses with a comma.",,y,13376,,,5716,12359,,,,"touch, move, build",1
W10161566_TEN,zvbrcvbeh4,"Affordance Norms_USM",1,19,2023-03-06T03:40:03+00:00,9.5912759304047,81,"updated stim.csv",Version81.csv,"Version 81","List 81",beachwear,,2425,6.304347826,177,0.306278297,2426,BOI,-,-,"Please name all of the ways you could use this object. Keep in mind that one object can have many uses. Separate your responses with a comma.",,y,9479,,,4171,7887,,,,"wear, buy, sew",1
W10161566_TEN,zvbrcvbeh4,"Affordance Norms_USM",1,20,2023-03-06T03:40:14+00:00,10.806895017624,81,"updated stim.csv",Version81.csv,"Version 81","List 81",hallway,,2401,4.708333333,1220,0.034623451,2402,BOI,-,-,"Please name all of the ways you could use this object. Keep in mind that one object can have many uses. Separate your responses with a comma.",,y,10691,,,1507,10079,,,,"walk down, decorate",1
W10161566_TEN,zvbrcvbeh4,"Affordance Norms_USM",1,21,2023-03-06T03:40:21+00:00,6.5159449577332,81,"updated stim.csv",Version81.csv,"Version 81","List 81",footbridge,,2412,4.777777778,1034,0.3516224,2413,BOI,-,-,"Please name all of the ways you could use this object. Keep in mind that one object can have many uses. Separate your responses with a comma.",,y,6402,,,3586,5010,,,,"walk on",1
W10161566_TEN,zvbrcvbeh4,"Affordance Norms_USM",1,22,2023-03-06T03:40:33+00:00,12.090958118439,81,"updated stim.csv",Version81.csv,"Version 81","List 81",mouth,,2424,6.304347826,1705,0.312460657,2425,BOI,-,-,"Please name all of the ways you could use this object. Keep in mind that one object can have many uses. Separate your responses with a comma.",,y,11974,,,1573,10728,,,,"touch, open, close, fill",1
W10161566_TEN,zvbrcvbeh4,"Affordance Norms_USM",1,23,2023-03-06T03:40:45+00:00,12.67182302475,81,"updated stim.csv",Version81.csv,"Version 81","List 81",guardsman,,2406,4.481481481,1187,0.103524379,2407,BOI,-,-,"Please name all of the ways you could use this object. Keep in mind that one object can have many uses. Separate your responses with a comma.",,y,12554,,,2596,11396,,,,"talk to, touch",1
W10161566_TEN,zvbrcvbeh4,"Affordance Norms_USM",1,24,2023-03-06T03:40:59+00:00,13.927269935608,81,"updated stim.csv",Version81.csv,"Version 81","List 81",pants,,2402,6.333333333,1861,0.461762612,2403,BOI,-,-,"Please name all of the ways you could use this object. Keep in mind that one object can have many uses. Separate your responses with a comma.",,y,13817,,,1306,12758,,,,"wear, buy, fold, sew, touch",1
W10161566_TEN,zvbrcvbeh4,"Affordance Norms_USM",1,25,2023-03-06T03:41:18+00:00,18.661799907684,81,"updated stim.csv",Version81.csv,"Version 81","List 81",blanket,,2420,6.56,232,0.58177062,2421,BOI,-,-,"Please name all of the ways you could use this object. Keep in mind that one object can have many uses. Separate your responses with a comma.",,y,18520,,,4507,17339,,,,"fold, sew, clean, cover up with",1
W10161566_TEN,zvbrcvbeh4,"Affordance Norms_USM",1,26,2023-03-06T03:41:33+00:00,14.884176969528,81,"updated stim.csv",Version81.csv,"Version 81","List 81",shawl,,2413,5.76,2326,0.160575706,2414,BOI,-,-,"Please name all of the ways you could use this object. Keep in mind that one object can have many uses. Separate your responses with a comma.",,y,14770,,,2664,13672,,,,"wear, sew, fold, clean ",1
W10161566_TEN,zvbrcvbeh4,"Affordance Norms_USM",1,27,2023-03-06T03:41:48+00:00,14.731502056122,81,"updated stim.csv",Version81.csv,"Version 81","List 81",pear,,2410,5.72,1895,0.068502572,2411,BOI,-,-,"Please name all of the ways you could use this object. Keep in mind that one object can have many uses. Separate your responses with a comma.",,y,14612,,,1272,12504,,,,"eat, pick, cut, slice",1
W10161566_TEN,zvbrcvbeh4,"Affordance Norms_USM",1,28,2023-03-06T03:42:01+00:00,13.171010971069,81,"updated stim.csv",Version81.csv,"Version 81","List 81",jeans,,2422,6.44,1379,0.440126125,2423,BOI,-,-,"Please name all of the ways you could use this object. Keep in mind that one object can have many uses. Separate your responses with a comma.",,y,13020,,,2122,11262,,,,"wear, buy, fold, clean",1
W10161566_TEN,zvbrcvbeh4,"Affordance Norms_USM",1,29,2023-03-06T03:42:13+00:00,11.808767080307,81,"updated stim.csv",Version81.csv,"Version 81","List 81",mouse,,2426,5.24,1701,0.088183346,2427,BOI,-,-,"Please name all of the ways you could use this object. Keep in mind that one object can have many uses. Separate your responses with a comma.",,y,11696,,,3517,10853,,,,"touch, move",1
W10161566_TEN,zvbrcvbeh4,"Affordance Norms_USM",1,30,2023-03-06T03:42:24+00:00,11.545758962631,81,"updated stim.csv",Version81.csv,"Version 81","List 81",Mug,,2415,6.13900135,1713,0.461820366,2416,BOI,-,-,"Please name all of the ways you could use this object. Keep in mind that one object can have many uses. Separate your responses with a comma.",,y,11423,,,2081,9865,,,,"fill, clean, break, drink from",1
W10161566_TEN,zvbrcvbeh4,"Affordance Norms_USM",1,31,2023-03-06T03:42:34+00:00,9.9510600566864,81,"updated stim.csv",Version81.csv,"Version 81","List 81",children,,2417,5.52,522,0.395641564,2418,BOI,-,-,"Please name all of the ways you could use this object. Keep in mind that one object can have many uses. Separate your responses with a comma.",,y,9832,,,1545,8689,,,,"hug, hold, talk to",1
W10161566_TEN,zvbrcvbeh4,"Affordance Norms_USM",1,32,2023-03-06T03:42:46+00:00,11.687116861343,81,"updated stim.csv",Version81.csv,"Version 81","List 81",yachtsman,,2407,4.291666667,2988,0.399755711,2408,BOI,-,-,"Please name all of the ways you could use this object. Keep in mind that one object can have many uses. Separate your responses with a comma.",,y,11578,,,4073,10401,,,,"talk to, hug, touch",1
W10161566_TEN,zvbrcvbeh4,"Affordance Norms_USM",1,33,2023-03-06T03:42:54+00:00,8.4253749847412,81,"updated stim.csv",Version81.csv,"Version 81","List 81",boots,,2409,6.434782609,284,0.89220166,2410,BOI,-,-,"Please name all of the ways you could use this object. Keep in mind that one object can have many uses. Separate your responses with a comma.",,y,8314,,,2016,6179,,,,"buy, clean, wear",1
W10161566_TEN,zvbrcvbeh4,"Affordance Norms_USM",1,34,2023-03-06T03:43:06+00:00,11.38493514061,81,"updated stim.csv",Version81.csv,"Version 81","List 81",soybean,,2430,5.2,2458,0.784297086,2431,BOI,-,-,"Please name all of the ways you could use this object. Keep in mind that one object can have many uses. Separate your responses with a comma.",,y,11278,,,1742,6317,,,,"eat, buy",1
W10161566_TEN,zvbrcvbeh4,"Affordance Norms_USM",1,35,2023-03-06T03:43:21+00:00,15.012152910233,81,"updated stim.csv",Version81.csv,"Version 81","List 81",snow,,2423,5.538461538,2430,0.338309303,2424,BOI,-,-,"Please name all of the ways you could use this object. Keep in mind that one object can have many uses. Separate your responses with a comma.",,y,14900,,,2256,13568,,,,"touch, play with, build, walk on",1
W10161566_TEN,zvbrcvbeh4,"Affordance Norms_USM",1,36,2023-03-06T03:43:32+00:00,11.16336107254,81,"updated stim.csv",Version81.csv,"Version 81","List 81",cruiser,,2418,4.304347826,713,0.763245435,2419,BOI,-,-,"Please name all of the ways you could use this object. Keep in mind that one object can have many uses. Separate your responses with a comma.",,y,11050,,,6198,9646,,,,"drive, clean",1
W10161566_TEN,zvbrcvbeh4,"Affordance Norms_USM",1,37,2023-03-06T03:43:45+00:00,13.140961885452,81,"updated stim.csv",Version81.csv,"Version 81","List 81",chiropractor,,2405,5.5,530,0.633975711,2406,BOI,-,-,"Please name all of the ways you could use this object. Keep in mind that one object can have many uses. Separate your responses with a comma.",,y,13024,,,4001,11270,,,,"see, talk to, touch",1
W10161566_TEN,zvbrcvbeh4,"Affordance Norms_USM",1,38,2023-03-06T03:43:59+00:00,13.945411205292,81,"updated stim.csv",Version81.csv,"Version 81","List 81",dividers,,2427,4.384615385,806,0.255487869,2428,BOI,-,-,"Please name all of the ways you could use this object. Keep in mind that one object can have many uses. Separate your responses with a comma.",,y,13819,,,8063,11887,,,,"move, buy, use",1
W10161566_TEN,zvbrcvbeh4,"Affordance Norms_USM",1,39,2023-03-06T03:44:09+00:00,10.202482938766,81,"updated stim.csv",Version81.csv,"Version 81","List 81",brushes,,2429,4.857142857,338,0.758301682,2430,BOI,-,-,"Please name all of the ways you could use this object. Keep in mind that one object can have many uses. Separate your responses with a comma.",,y,10087,,,2486,9010,,,,"clean, use, paint with",1
W10161566_TEN,zvbrcvbeh4,"Affordance Norms_USM",1,40,2023-03-06T03:46:14+00:00,124.99997997284,81,"updated stim.csv",Version81.csv,"Version 81","List 81",footman,,2414,4.782608696,1035,0.229509466,2415,BOI,-,-,"Please name all of the ways you could use this object. Keep in mind that one object can have many uses. Separate your responses with a comma.",,y,13602,,,9694,11929,,,,"touch, talk",1
W10161566_TEN,zvbrcvbeh4,"Affordance Norms_USM",1,41,2023-03-06T03:46:16+00:00,1.9892928600311,81,"updated stim.csv",Version81.csv,"Version 81","List 81",,,,,,,0,Instruct,,,"You will now be asked a few questions about your experience today.",,"Instruct 4",1872,,,-1,-1,,,,,1
