Username,ID,ExperimentName,Session,Trial,Date,TimeDif,"Condition Number","Stimuli File","Order File","Condition Description","Condition Notes",Stimuli*Cue,Stimuli*Answer,Stimuli*Shuffle,"Stimuli*Stimuli Notes",Stimuli*Value,Stimuli*Rand,Procedure*Item,"Procedure*Trial Type","Procedure*Max Time","Procedure*Min Time",Procedure*Text,"Procedure*Procedure Notes",Procedure*Shuffle,Response*RT,Response*Response,Response*Accuracy,Response*RTfirst,Response*RTlast,Response*strictAcc,Response*lenientAcc,Response*focus,Response*JOL,Response*Focus
583c7c44164cd30001c345d6,ct9x8vglhv,"Affordance Norms_Prolific",1,1,2023-01-05T20:28:50+00:00,12.797604799271,89,"updated stim.csv",Version89.csv,"Version 89","List 89",,,,,,,0,Instruct,-,10,"In this section, you will be presented with a series of objects. Please name as many possible uses for this object as you can think of by typing them in the box below each object.",,Instruct1,12159,,,-1,-1,,,,,1
583c7c44164cd30001c345d6,ct9x8vglhv,"Affordance Norms_Prolific",1,2,2023-01-05T20:29:05+00:00,14.900243997574,89,"updated stim.csv",Version89.csv,"Version 89","List 89",,,,,,,0,Instruct,-,10,"Please keep in mind that a single object will have more than one use. For example, a ball can be thrown or can be bounced or even stepped on. When listing multiple uses for one object, please separate each use with a comma (i.e., thrown, bounced, stepped on)",,Instruct2,14077,,,-1,-1,,,,,1
583c7c44164cd30001c345d6,ct9x8vglhv,"Affordance Norms_Prolific",1,3,2023-01-05T20:29:10+00:00,5.5792729854584,89,"updated stim.csv",Version89.csv,"Version 89","List 89",,,,,,,0,Instruct,-,-,"Before starting the experiment, you will complete a short practice sesstion. Press ENTER when you are ready to begin.",,Instruct3,4602,,,-1,-1,,,,,1
583c7c44164cd30001c345d6,ct9x8vglhv,"Affordance Norms_Prolific",1,4,2023-01-05T20:29:40+00:00,29.830564022064,89,"updated stim.csv",Version89.csv,"Version 89","List 89",saucer,,3005,5.777777778,2249,0.304808074,3006,BOI,-,-,"Please name all of the ways you could use this object. Keep in mind that one object can have many uses. Separate your responses with a comma.",,n,28944,,,3139,25225,,,,"eating, storing, throwing, containing",1
583c7c44164cd30001c345d6,ct9x8vglhv,"Affordance Norms_Prolific",1,5,2023-01-05T20:30:04+00:00,24.299998998642,89,"updated stim.csv",Version89.csv,"Version 89","List 89",shortening,,3002,4.92,2358,0.604328482,3003,BOI,-,-,"Please name all of the ways you could use this object. Keep in mind that one object can have many uses. Separate your responses with a comma.",,n,18553,,,6675,9095,,,,baking,1
583c7c44164cd30001c345d6,ct9x8vglhv,"Affordance Norms_Prolific",1,6,2023-01-05T20:30:48+00:00,43.390739202499,89,"updated stim.csv",Version89.csv,"Version 89","List 89",grain,,3004,5.217391304,1143,0.226863762,3005,BOI,-,-,"Please name all of the ways you could use this object. Keep in mind that one object can have many uses. Separate your responses with a comma.",,n,31527,,,12601,28125,,,,"eating, music, currency",1
583c7c44164cd30001c345d6,ct9x8vglhv,"Affordance Norms_Prolific",1,7,2023-01-05T20:32:51+00:00,123.60603880882,89,"updated stim.csv",Version89.csv,"Version 89","List 89",spaghetti,,3003,6,2461,0.090379998,3004,BOI,-,-,"Please name all of the ways you could use this object. Keep in mind that one object can have many uses. Separate your responses with a comma.",,n,13752,,,2144,12019,,,,"eating, art, drumsticks",1
583c7c44164cd30001c345d6,ct9x8vglhv,"Affordance Norms_Prolific",1,8,2023-01-05T20:33:11+00:00,19.599203109741,89,"updated stim.csv",Version89.csv,"Version 89","List 89",paperwork,,3001,5.625,1866,0.124284162,3002,BOI,-,-,"Please name all of the ways you could use this object. Keep in mind that one object can have many uses. Separate your responses with a comma.",,n,18948,,,3491,17030,,,,"paper weight, drawing",1
583c7c44164cd30001c345d6,ct9x8vglhv,"Affordance Norms_Prolific",1,9,2023-01-05T20:33:15+00:00,3.6118059158325,89,"updated stim.csv",Version89.csv,"Version 89","List 89",,,,,,,0,Instruct,-,-,"You have completed this section. Press ENTER to continue",,"Instruct 5",2715,,,-1,-1,,,,,1
583c7c44164cd30001c345d6,ct9x8vglhv,"Affordance Norms_Prolific",1,10,2023-01-05T20:33:19+00:00,4.0243091583252,89,"updated stim.csv",Version89.csv,"Version 89","List 89",,,,,,,0,Instruct,-,-,"You will now start the full experiment. Press ENTER when you are ready to begin.",,,3506,,,-1,-1,,,,,1
583c7c44164cd30001c345d6,ct9x8vglhv,"Affordance Norms_Prolific",1,11,2023-01-05T20:33:46+00:00,27.406612873077,89,"updated stim.csv",Version89.csv,"Version 89","List 89",bathtub,,2650,6.565217391,170,0.48897818,2651,BOI,-,-,"Please name all of the ways you could use this object. Keep in mind that one object can have many uses. Separate your responses with a comma.",,y,26770,,,2562,25111,,,,"washing self, washing clothes, planter box",1
583c7c44164cd30001c345d6,ct9x8vglhv,"Affordance Norms_Prolific",1,12,2023-01-05T20:34:19+00:00,33.248883962631,89,"updated stim.csv",Version89.csv,"Version 89","List 89",crackers,,2667,5.913043478,677,0.103099472,2668,BOI,-,-,"Please name all of the ways you could use this object. Keep in mind that one object can have many uses. Separate your responses with a comma.",,y,23782,,,1898,21468,,,,"food, art, noise maker",1
583c7c44164cd30001c345d6,ct9x8vglhv,"Affordance Norms_Prolific",1,13,2023-01-05T20:34:47+00:00,27.329832077026,89,"updated stim.csv",Version89.csv,"Version 89","List 89",husband,,2662,6.041666667,1338,0.500019135,2663,BOI,-,-,"Please name all of the ways you could use this object. Keep in mind that one object can have many uses. Separate your responses with a comma.",,y,26683,,,5365,25060,,,,"partner, father, helper",1
583c7c44164cd30001c345d6,ct9x8vglhv,"Affordance Norms_Prolific",1,14,2023-01-05T20:35:21+00:00,34.178155899048,89,"updated stim.csv",Version89.csv,"Version 89","List 89",rail,,2658,5.517241379,2127,0.025104214,2659,BOI,-,-,"Please name all of the ways you could use this object. Keep in mind that one object can have many uses. Separate your responses with a comma.",,y,33387,,,5769,32008,,,,"guide, help getting down stairs",1
583c7c44164cd30001c345d6,ct9x8vglhv,"Affordance Norms_Prolific",1,15,2023-01-05T20:35:56+00:00,35.326821088791,89,"updated stim.csv",Version89.csv,"Version 89","List 89",waitress,,2649,4.826086957,2884,0.178678826,2650,BOI,-,-,"Please name all of the ways you could use this object. Keep in mind that one object can have many uses. Separate your responses with a comma.",,y,27857,,,9497,26482,,,,"deliver food, accept payment, cleaning",1
583c7c44164cd30001c345d6,ct9x8vglhv,"Affordance Norms_Prolific",1,16,2023-01-05T20:36:27+00:00,30.454619884491,89,"updated stim.csv",Version89.csv,"Version 89","List 89",mum,,2646,4.416666667,1719,0.704204495,2647,BOI,-,-,"Please name all of the ways you could use this object. Keep in mind that one object can have many uses. Separate your responses with a comma.",,y,23194,,,6244,21494,,,,"friend, helper",1
583c7c44164cd30001c345d6,ct9x8vglhv,"Affordance Norms_Prolific",1,17,2023-01-05T20:36:50+00:00,23.143335103989,89,"updated stim.csv",Version89.csv,"Version 89","List 89",congresswoman,,2648,4.32,627,0.309120151,2649,BOI,-,-,"Please name all of the ways you could use this object. Keep in mind that one object can have many uses. Separate your responses with a comma.",,y,22542,,,5044,20753,,,,"passing bills, spokesperson",1
583c7c44164cd30001c345d6,ct9x8vglhv,"Affordance Norms_Prolific",1,18,2023-01-05T20:37:12+00:00,22.53250002861,89,"updated stim.csv",Version89.csv,"Version 89","List 89",barkeep,,2670,4.260869565,148,0.310357294,2671,BOI,-,-,"Please name all of the ways you could use this object. Keep in mind that one object can have many uses. Separate your responses with a comma.",,y,20714,,,4442,18162,,,,"deliver drinks, accept payment",1
583c7c44164cd30001c345d6,ct9x8vglhv,"Affordance Norms_Prolific",1,19,2023-01-05T20:37:42+00:00,30.121887922287,89,"updated stim.csv",Version89.csv,"Version 89","List 89",picnicker,,2668,4.458333333,1951,0.609841409,2669,BOI,-,-,"Please name all of the ways you could use this object. Keep in mind that one object can have many uses. Separate your responses with a comma.",,y,24101,,,19165,21244,,,,food?,1
583c7c44164cd30001c345d6,ct9x8vglhv,"Affordance Norms_Prolific",1,20,2023-01-05T20:38:03+00:00,20.664456129074,89,"updated stim.csv",Version89.csv,"Version 89","List 89",cupboard,,2661,5.782608696,727,0.324024312,2662,BOI,-,-,"Please name all of the ways you could use this object. Keep in mind that one object can have many uses. Separate your responses with a comma.",,y,19152,,,5902,17234,,,,"storage, hiding",0.966
583c7c44164cd30001c345d6,ct9x8vglhv,"Affordance Norms_Prolific",1,21,2023-01-05T20:38:16+00:00,12.699185848236,89,"updated stim.csv",Version89.csv,"Version 89","List 89",rocker,,2656,5.04,2184,0.968839811,2657,BOI,-,-,"Please name all of the ways you could use this object. Keep in mind that one object can have many uses. Separate your responses with a comma.",,y,11970,,,7220,10399,,,,musician,1
583c7c44164cd30001c345d6,ct9x8vglhv,"Affordance Norms_Prolific",1,22,2023-01-05T20:38:33+00:00,17.754439115524,89,"updated stim.csv",Version89.csv,"Version 89","List 89",catwalk,,2665,4.652173913,464,0.140628779,2666,BOI,-,-,"Please name all of the ways you could use this object. Keep in mind that one object can have many uses. Separate your responses with a comma.",,y,17056,,,4870,7899,,,,bridge,1
583c7c44164cd30001c345d6,ct9x8vglhv,"Affordance Norms_Prolific",1,23,2023-01-05T20:38:46+00:00,12.159862995148,89,"updated stim.csv",Version89.csv,"Version 89","List 89",banister,,2651,5.130434783,140,0.506891939,2652,BOI,-,-,"Please name all of the ways you could use this object. Keep in mind that one object can have many uses. Separate your responses with a comma.",,y,11564,,,4591,8350,,,,"railing, guide",1
583c7c44164cd30001c345d6,ct9x8vglhv,"Affordance Norms_Prolific",1,24,2023-01-05T20:39:16+00:00,30.141535043716,89,"updated stim.csv",Version89.csv,"Version 89","List 89",hat,,2652,6.44,1258,0.995555698,2653,BOI,-,-,"Please name all of the ways you could use this object. Keep in mind that one object can have many uses. Separate your responses with a comma.",,y,29548,,,4061,27987,,,,"coverage from rain, keep head warm, storage",1
583c7c44164cd30001c345d6,ct9x8vglhv,"Affordance Norms_Prolific",1,25,2023-01-05T20:39:45+00:00,28.842116832733,89,"updated stim.csv",Version89.csv,"Version 89","List 89",trash,,2663,5.136363636,2764,0.824491911,2664,BOI,-,-,"Please name all of the ways you could use this object. Keep in mind that one object can have many uses. Separate your responses with a comma.",,y,26861,,,3790,25553,,,,"storage, waste bin, hiding something",1
583c7c44164cd30001c345d6,ct9x8vglhv,"Affordance Norms_Prolific",1,26,2023-01-05T20:40:00+00:00,15.020106077194,89,"updated stim.csv",Version89.csv,"Version 89","List 89",brooch,,2664,5.130434783,331,0.778970626,2665,BOI,-,-,"Please name all of the ways you could use this object. Keep in mind that one object can have many uses. Separate your responses with a comma.",,y,14458,,,8413,13258,,,,"art, jewllery",1
583c7c44164cd30001c345d6,ct9x8vglhv,"Affordance Norms_Prolific",1,27,2023-01-05T20:40:45+00:00,45.249577999115,89,"updated stim.csv",Version89.csv,"Version 89","List 89",jar,,2655,6.208333333,1373,0.13576901,2656,BOI,-,-,"Please name all of the ways you could use this object. Keep in mind that one object can have many uses. Separate your responses with a comma.",,y,12939,,,2108,11170,,,,"noise maker, storage",1
583c7c44164cd30001c345d6,ct9x8vglhv,"Affordance Norms_Prolific",1,28,2023-01-05T20:41:03+00:00,18.457653999329,89,"updated stim.csv",Version89.csv,"Version 89","List 89",icepick,,2657,5.416666667,1347,0.619650655,2658,BOI,-,-,"Please name all of the ways you could use this object. Keep in mind that one object can have many uses. Separate your responses with a comma.",,y,17849,,,2501,14976,,,,"weapon, chiseling ice",1
583c7c44164cd30001c345d6,ct9x8vglhv,"Affordance Norms_Prolific",1,29,2023-01-05T20:41:26+00:00,22.983528137207,89,"updated stim.csv",Version89.csv,"Version 89","List 89",guestroom,,2642,4.538461538,1190,0.361886166,2643,BOI,-,-,"Please name all of the ways you could use this object. Keep in mind that one object can have many uses. Separate your responses with a comma.",,y,19850,,,6805,18446,,,,"bed, hiding spot",1
583c7c44164cd30001c345d6,ct9x8vglhv,"Affordance Norms_Prolific",1,30,2023-01-05T20:41:54+00:00,27.35452580452,89,"updated stim.csv",Version89.csv,"Version 89","List 89",band,,2643,4.384615385,137,0.320058041,2644,BOI,-,-,"Please name all of the ways you could use this object. Keep in mind that one object can have many uses. Separate your responses with a comma.",,y,23750,,,6534,22253,,,,"musician , music, holding things",1
583c7c44164cd30001c345d6,ct9x8vglhv,"Affordance Norms_Prolific",1,31,2023-01-05T20:42:09+00:00,15.58522605896,89,"updated stim.csv",Version89.csv,"Version 89","List 89",entree,,2645,5.28,912,0.254776783,2646,BOI,-,-,"Please name all of the ways you could use this object. Keep in mind that one object can have many uses. Separate your responses with a comma.",,y,9546,,,5434,6497,,,,food,1
583c7c44164cd30001c345d6,ct9x8vglhv,"Affordance Norms_Prolific",1,32,2023-01-05T20:42:23+00:00,13.773265123367,89,"updated stim.csv",Version89.csv,"Version 89","List 89",dwarf,,2666,4.333333333,871,0.117156022,2667,BOI,-,-,"Please name all of the ways you could use this object. Keep in mind that one object can have many uses. Separate your responses with a comma.",,y,12466,,,2500,10376,,,,"short, friend, helper",0.984
583c7c44164cd30001c345d6,ct9x8vglhv,"Affordance Norms_Prolific",1,33,2023-01-05T20:42:39+00:00,16.062691926956,89,"updated stim.csv",Version89.csv,"Version 89","List 89",radio,,2647,5.291666667,2122,0.897583079,2648,BOI,-,-,"Please name all of the ways you could use this object. Keep in mind that one object can have many uses. Separate your responses with a comma.",,y,15427,,,2793,13828,,,,"entertainment, music, news, ads",1
583c7c44164cd30001c345d6,ct9x8vglhv,"Affordance Norms_Prolific",1,34,2023-01-05T20:42:48+00:00,8.4424469470978,89,"updated stim.csv",Version89.csv,"Version 89","List 89",garb,,2653,4.541666667,1074,0.214589886,2654,BOI,-,-,"Please name all of the ways you could use this object. Keep in mind that one object can have many uses. Separate your responses with a comma.",,y,7874,,,4344,6295,,,,clothing,1
583c7c44164cd30001c345d6,ct9x8vglhv,"Affordance Norms_Prolific",1,35,2023-01-05T20:42:59+00:00,11.25177192688,89,"updated stim.csv",Version89.csv,"Version 89","List 89",lick,,2644,4.652173913,1502,0.157624694,2645,BOI,-,-,"Please name all of the ways you could use this object. Keep in mind that one object can have many uses. Separate your responses with a comma.",,y,10627,,,3363,9217,,,,"feeling, wet",1
583c7c44164cd30001c345d6,ct9x8vglhv,"Affordance Norms_Prolific",1,36,2023-01-05T20:43:08+00:00,9.1637380123138,89,"updated stim.csv",Version89.csv,"Version 89","List 89",hamburger,,2660,6.148148148,1222,0.48776635,2661,BOI,-,-,"Please name all of the ways you could use this object. Keep in mind that one object can have many uses. Separate your responses with a comma.",,y,8342,,,1949,3051,,,,food,1
583c7c44164cd30001c345d6,ct9x8vglhv,"Affordance Norms_Prolific",1,37,2023-01-05T20:43:22+00:00,14.268311023712,89,"updated stim.csv",Version89.csv,"Version 89","List 89",croquette,,2669,4.681818182,702,0.945016361,2670,BOI,-,-,"Please name all of the ways you could use this object. Keep in mind that one object can have many uses. Separate your responses with a comma.",,y,13673,,,2817,3945,,,,food,1
583c7c44164cd30001c345d6,ct9x8vglhv,"Affordance Norms_Prolific",1,38,2023-01-05T20:43:40+00:00,17.833817958832,89,"updated stim.csv",Version89.csv,"Version 89","List 89",needles,,2659,5.416666667,1747,0.410145567,2660,BOI,-,-,"Please name all of the ways you could use this object. Keep in mind that one object can have many uses. Separate your responses with a comma.",,y,17050,,,4935,13594,,,,"medicine, drugs",1
583c7c44164cd30001c345d6,ct9x8vglhv,"Affordance Norms_Prolific",1,39,2023-01-05T20:44:03+00:00,22.57538819313,89,"updated stim.csv",Version89.csv,"Version 89","List 89",lace,,2641,4.869565217,1445,0.627616705,2642,BOI,-,-,"Please name all of the ways you could use this object. Keep in mind that one object can have many uses. Separate your responses with a comma.",,y,21954,,,7538,18565,,,,"tie something",1
583c7c44164cd30001c345d6,ct9x8vglhv,"Affordance Norms_Prolific",1,40,2023-01-05T20:44:26+00:00,23.116259813309,89,"updated stim.csv",Version89.csv,"Version 89","List 89",plaintiff,,2654,4.375,1985,0.803622684,2655,BOI,-,-,"Please name all of the ways you could use this object. Keep in mind that one object can have many uses. Separate your responses with a comma.",,y,22535,,,19528,20789,,,,court,1
583c7c44164cd30001c345d6,ct9x8vglhv,"Affordance Norms_Prolific",1,41,2023-01-05T20:44:29+00:00,2.9408822059631,89,"updated stim.csv",Version89.csv,"Version 89","List 89",,,,,,,0,Instruct,,,"You will now be asked a few questions about your experience today.",,"Instruct 4",2410,,,-1,-1,,,,,1
