Username,ID,ExperimentName,Session,Trial,Date,TimeDif,"Condition Number","Stimuli File","Order File","Condition Description","Condition Notes",Stimuli*Cue,Stimuli*Answer,Stimuli*Shuffle,"Stimuli*Stimuli Notes",Stimuli*Value,Stimuli*Rand,Procedure*Item,"Procedure*Trial Type","Procedure*Max Time","Procedure*Min Time",Procedure*Text,"Procedure*Procedure Notes",Procedure*Shuffle,Response*RT,Response*Response,Response*Accuracy,Response*RTfirst,Response*RTlast,Response*strictAcc,Response*lenientAcc,Response*focus,Response*JOL,Response*Focus
5bb20c4ce05c350001ef337e,0mkw678k1a,"Affordance Norms_Prolific",1,1,2023-01-05T20:35:55+00:00,10.588453054428,19,"updated stim.csv",Version19.csv,"Version 19","List 19",,,,,,,0,Instruct,-,10,"In this section, you will be presented with a series of objects. Please name as many possible uses for this object as you can think of by typing them in the box below each object.",,Instruct1,10252,,,-1,-1,,,,,1
5bb20c4ce05c350001ef337e,0mkw678k1a,"Affordance Norms_Prolific",1,2,2023-01-05T20:36:17+00:00,21.310333013535,19,"updated stim.csv",Version19.csv,"Version 19","List 19",,,,,,,0,Instruct,-,10,"Please keep in mind that a single object will have more than one use. For example, a ball can be thrown or can be bounced or even stepped on. When listing multiple uses for one object, please separate each use with a comma (i.e., thrown, bounced, stepped on)",,Instruct2,20783,,,-1,-1,,,,,1
5bb20c4ce05c350001ef337e,0mkw678k1a,"Affordance Norms_Prolific",1,3,2023-01-05T20:36:25+00:00,8.5999310016632,19,"updated stim.csv",Version19.csv,"Version 19","List 19",,,,,,,0,Instruct,-,-,"Before starting the experiment, you will complete a short practice sesstion. Press ENTER when you are ready to begin.",,Instruct3,7985,,,-1,-1,,,,,1
5bb20c4ce05c350001ef337e,0mkw678k1a,"Affordance Norms_Prolific",1,4,2023-01-05T20:37:47+00:00,81.958808898926,19,"updated stim.csv",Version19.csv,"Version 19","List 19",grain,,3004,5.217391304,1143,0.226863762,3005,BOI,-,-,"Please name all of the ways you could use this object. Keep in mind that one object can have many uses. Separate your responses with a comma.",,n,81330,,,12360,75529,,,,"to eat, stuffing items, ",1
5bb20c4ce05c350001ef337e,0mkw678k1a,"Affordance Norms_Prolific",1,5,2023-01-05T20:38:31+00:00,43.553815126419,19,"updated stim.csv",Version19.csv,"Version 19","List 19",saucer,,3005,5.777777778,2249,0.304808074,3006,BOI,-,-,"Please name all of the ways you could use this object. Keep in mind that one object can have many uses. Separate your responses with a comma.",,n,42962,,,5060,40079,,,,"drink from, use as a hat, carry things on,",1
5bb20c4ce05c350001ef337e,0mkw678k1a,"Affordance Norms_Prolific",1,6,2023-01-05T20:39:27+00:00,56.135661840439,19,"updated stim.csv",Version19.csv,"Version 19","List 19",spaghetti,,3003,6,2461,0.090379998,3004,BOI,-,-,"Please name all of the ways you could use this object. Keep in mind that one object can have many uses. Separate your responses with a comma.",,n,55579,,,3790,53611,,,,"eat, throw at a wall, make shapes, count it,",1
5bb20c4ce05c350001ef337e,0mkw678k1a,"Affordance Norms_Prolific",1,7,2023-01-05T20:40:53+00:00,86.302412986755,19,"updated stim.csv",Version19.csv,"Version 19","List 19",paperwork,,3001,5.625,1866,0.124284162,3002,BOI,-,-,"Please name all of the ways you could use this object. Keep in mind that one object can have many uses. Separate your responses with a comma.",,n,85683,,,40742,84209,,,,"use as table leg equalizer, write on, kindling,",1
5bb20c4ce05c350001ef337e,0mkw678k1a,"Affordance Norms_Prolific",1,8,2023-01-05T20:41:59+00:00,65.48206615448,19,"updated stim.csv",Version19.csv,"Version 19","List 19",shortening,,3002,4.92,2358,0.604328482,3003,BOI,-,-,"Please name all of the ways you could use this object. Keep in mind that one object can have many uses. Separate your responses with a comma.",,n,64866,,,25965,60320,,,,"to make less, food, use as starch,",1
5bb20c4ce05c350001ef337e,0mkw678k1a,"Affordance Norms_Prolific",1,9,2023-01-05T20:42:06+00:00,6.940004825592,19,"updated stim.csv",Version19.csv,"Version 19","List 19",,,,,,,0,Instruct,-,-,"You have completed this section. Press ENTER to continue",,"Instruct 5",6502,,,-1,-1,,,,,1
5bb20c4ce05c350001ef337e,0mkw678k1a,"Affordance Norms_Prolific",1,10,2023-01-05T20:42:11+00:00,5.4431622028351,19,"updated stim.csv",Version19.csv,"Version 19","List 19",,,,,,,0,Instruct,-,-,"You will now start the full experiment. Press ENTER when you are ready to begin.",,,4965,,,-1,-1,,,,,1
5bb20c4ce05c350001ef337e,0mkw678k1a,"Affordance Norms_Prolific",1,11,2023-01-05T20:42:32+00:00,20.942750930786,19,"updated stim.csv",Version19.csv,"Version 19","List 19",saltwater,,545,5.192307692,2229,0.240965939,546,BOI,-,-,"Please name all of the ways you could use this object. Keep in mind that one object can have many uses. Separate your responses with a comma.",,y,20257,,,5553,16770,,,,"mouth rinse, swim in,",1
5bb20c4ce05c350001ef337e,0mkw678k1a,"Affordance Norms_Prolific",1,12,2023-01-05T20:42:56+00:00,24.432550907135,19,"updated stim.csv",Version19.csv,"Version 19","List 19",kitchen,,566,5.625,1425,0.900817788,567,BOI,-,-,"Please name all of the ways you could use this object. Keep in mind that one object can have many uses. Separate your responses with a comma.",,y,23878,,,1983,19487,,,,"cook in, design, eat in,",1
5bb20c4ce05c350001ef337e,0mkw678k1a,"Affordance Norms_Prolific",1,13,2023-01-05T20:43:19+00:00,22.985042095184,19,"updated stim.csv",Version19.csv,"Version 19","List 19",enamel,,552,4.652173913,905,0.497490187,553,BOI,-,-,"Please name all of the ways you could use this object. Keep in mind that one object can have many uses. Separate your responses with a comma.",,y,22531,,,3910,20884,,,,"for teeth, for cook wear,",1
5bb20c4ce05c350001ef337e,0mkw678k1a,"Affordance Norms_Prolific",1,14,2023-01-05T20:44:05+00:00,45.339027881622,19,"updated stim.csv",Version19.csv,"Version 19","List 19",raft,,564,5.36,2125,0.368001778,565,BOI,-,-,"Please name all of the ways you could use this object. Keep in mind that one object can have many uses. Separate your responses with a comma.",,y,44613,,,5653,26256,,,,"to float on, to build,",1
5bb20c4ce05c350001ef337e,0mkw678k1a,"Affordance Norms_Prolific",1,15,2023-01-05T20:44:26+00:00,21.677018165588,19,"updated stim.csv",Version19.csv,"Version 19","List 19",silkworm,,570,5.208333333,2382,0.564942119,571,BOI,-,-,"Please name all of the ways you could use this object. Keep in mind that one object can have many uses. Separate your responses with a comma.",,y,21170,,,5726,18991,,,,"pet, make cloth,",1
5bb20c4ce05c350001ef337e,0mkw678k1a,"Affordance Norms_Prolific",1,16,2023-01-05T20:44:41+00:00,14.666622877121,19,"updated stim.csv",Version19.csv,"Version 19","List 19",vulva,,561,5.16,2876,0.286824315,562,BOI,-,-,"Please name all of the ways you could use this object. Keep in mind that one object can have many uses. Separate your responses with a comma.",,y,13964,,,6888,9821,,,,"pump,",1
5bb20c4ce05c350001ef337e,0mkw678k1a,"Affordance Norms_Prolific",1,17,2023-01-05T20:45:06+00:00,24.963524103165,19,"updated stim.csv",Version19.csv,"Version 19","List 19",plaster,,542,4.4,1993,0.665997379,543,BOI,-,-,"Please name all of the ways you could use this object. Keep in mind that one object can have many uses. Separate your responses with a comma.",,y,24380,,,2963,21850,,,,"cover wound, cover walls,cover ceilings,",1
5bb20c4ce05c350001ef337e,0mkw678k1a,"Affordance Norms_Prolific",1,18,2023-01-05T20:45:36+00:00,30.031718969345,19,"updated stim.csv",Version19.csv,"Version 19","List 19",tray,,547,5.166666667,2768,0.711278044,548,BOI,-,-,"Please name all of the ways you could use this object. Keep in mind that one object can have many uses. Separate your responses with a comma.",,y,29398,,,3077,20797,,,,"carry things on, ",1
5bb20c4ce05c350001ef337e,0mkw678k1a,"Affordance Norms_Prolific",1,19,2023-01-05T20:45:55+00:00,18.471416950226,19,"updated stim.csv",Version19.csv,"Version 19","List 19",tear,,556,4.44,2650,0.64593677,557,BOI,-,-,"Please name all of the ways you could use this object. Keep in mind that one object can have many uses. Separate your responses with a comma.",,y,17948,,,7212,16026,,,,"to cry, to rip,",1
5bb20c4ce05c350001ef337e,0mkw678k1a,"Affordance Norms_Prolific",1,20,2023-01-05T20:46:37+00:00,42.104752063751,19,"updated stim.csv",Version19.csv,"Version 19","List 19",goggles,,543,6.125,1131,0.800491874,544,BOI,-,-,"Please name all of the ways you could use this object. Keep in mind that one object can have many uses. Separate your responses with a comma.",,y,41461,,,3872,34145,,,,"for swimming, for handy work, ",1
5bb20c4ce05c350001ef337e,0mkw678k1a,"Affordance Norms_Prolific",1,21,2023-01-05T20:47:04+00:00,27.346965074539,19,"updated stim.csv",Version19.csv,"Version 19","List 19",goose,,553,5.260869565,1138,0.494045205,554,BOI,-,-,"Please name all of the ways you could use this object. Keep in mind that one object can have many uses. Separate your responses with a comma.",,y,26876,,,3046,25348,,,,"to eat, as guard animals,",1
5bb20c4ce05c350001ef337e,0mkw678k1a,"Affordance Norms_Prolific",1,22,2023-01-05T20:47:28+00:00,24.330940961838,19,"updated stim.csv",Version19.csv,"Version 19","List 19",steak,,554,5.75,2515,0.944862222,555,BOI,-,-,"Please name all of the ways you could use this object. Keep in mind that one object can have many uses. Separate your responses with a comma.",,y,23703,,,3574,20711,,,,"to eat, to place on black eye,",1
5bb20c4ce05c350001ef337e,0mkw678k1a,"Affordance Norms_Prolific",1,23,2023-01-05T20:48:38+00:00,69.549489021301,19,"updated stim.csv",Version19.csv,"Version 19","List 19",lubrication,,549,4.333333333,1555,0.460781999,550,BOI,-,-,"Please name all of the ways you could use this object. Keep in mind that one object can have many uses. Separate your responses with a comma.",,y,68920,,,3187,66892,,,,"to grease car parts, to make smooth, to slide,",1
5bb20c4ce05c350001ef337e,0mkw678k1a,"Affordance Norms_Prolific",1,24,2023-01-05T20:49:02+00:00,23.705858945847,19,"updated stim.csv",Version19.csv,"Version 19","List 19",cage,,562,5.291666667,398,0.458861103,563,BOI,-,-,"Please name all of the ways you could use this object. Keep in mind that one object can have many uses. Separate your responses with a comma.",,y,23058,,,4724,19387,,,,"to put birds, to fight in,",1
5bb20c4ce05c350001ef337e,0mkw678k1a,"Affordance Norms_Prolific",1,25,2023-01-05T20:49:41+00:00,39.360877990723,19,"updated stim.csv",Version19.csv,"Version 19","List 19",toe,,565,5.954545455,2715,0.055815318,566,BOI,-,-,"Please name all of the ways you could use this object. Keep in mind that one object can have many uses. Separate your responses with a comma.",,y,38798,,,3516,36174,,,,"to balance on, to wear toe ring, to wiggle,",1
5bb20c4ce05c350001ef337e,0mkw678k1a,"Affordance Norms_Prolific",1,26,2023-01-05T20:50:08+00:00,27.515263080597,19,"updated stim.csv",Version19.csv,"Version 19","List 19",derriere,,548,5.5,778,0.071649372,549,BOI,-,-,"Please name all of the ways you could use this object. Keep in mind that one object can have many uses. Separate your responses with a comma.",,y,26839,,,5088,25106,,,,"to sit on, to show off,",1
5bb20c4ce05c350001ef337e,0mkw678k1a,"Affordance Norms_Prolific",1,27,2023-01-05T20:50:45+00:00,36.91051697731,19,"updated stim.csv",Version19.csv,"Version 19","List 19",barley,,546,4.541666667,149,0.391499549,547,BOI,-,-,"Please name all of the ways you could use this object. Keep in mind that one object can have many uses. Separate your responses with a comma.",,y,36445,,,4201,33807,,,,"to eat,to feed to animals, to make lemon barley drink,",1
5bb20c4ce05c350001ef337e,0mkw678k1a,"Affordance Norms_Prolific",1,28,2023-01-05T20:51:18+00:00,32.728350877762,19,"updated stim.csv",Version19.csv,"Version 19","List 19",treadmill,,568,6,2769,0.114264323,569,BOI,-,-,"Please name all of the ways you could use this object. Keep in mind that one object can have many uses. Separate your responses with a comma.",,y,32054,,,3037,25464,,,,"to walk on, to run on to keep fit,",1
5bb20c4ce05c350001ef337e,0mkw678k1a,"Affordance Norms_Prolific",1,29,2023-01-05T20:51:53+00:00,35.138153076172,19,"updated stim.csv",Version19.csv,"Version 19","List 19",splinter,,563,4.652173913,2478,0.624463816,564,BOI,-,-,"Please name all of the ways you could use this object. Keep in mind that one object can have many uses. Separate your responses with a comma.",,y,34664,,,30746,32677,,,,unsure,1
5bb20c4ce05c350001ef337e,0mkw678k1a,"Affordance Norms_Prolific",1,30,2023-01-05T20:52:10+00:00,17.200716972351,19,"updated stim.csv",Version19.csv,"Version 19","List 19",switchblade,,557,5.869565217,2609,0.252814962,558,BOI,-,-,"Please name all of the ways you could use this object. Keep in mind that one object can have many uses. Separate your responses with a comma.",,y,16490,,,6213,15217,,,,"to play with,",1
5bb20c4ce05c350001ef337e,0mkw678k1a,"Affordance Norms_Prolific",1,31,2023-01-05T20:52:51+00:00,40.167737960815,19,"updated stim.csv",Version19.csv,"Version 19","List 19",woodcutter,,560,4.44,2960,0.152234376,561,BOI,-,-,"Please name all of the ways you could use this object. Keep in mind that one object can have many uses. Separate your responses with a comma.",,y,39699,,,5887,36977,,,,"to cut logs for the fire, to make furniture,",1
5bb20c4ce05c350001ef337e,0mkw678k1a,"Affordance Norms_Prolific",1,32,2023-01-05T20:53:07+00:00,15.939136981964,19,"updated stim.csv",Version19.csv,"Version 19","List 19",kerchief,,541,5.666666667,1406,0.493496181,542,BOI,-,-,"Please name all of the ways you could use this object. Keep in mind that one object can have many uses. Separate your responses with a comma.",,y,15311,,,3909,12928,,,,"to blow your nose,",1
5bb20c4ce05c350001ef337e,0mkw678k1a,"Affordance Norms_Prolific",1,33,2023-01-05T20:53:54+00:00,47.960034132004,19,"updated stim.csv",Version19.csv,"Version 19","List 19",letterbox,,559,4.56,1496,0.230726376,560,BOI,-,-,"Please name all of the ways you could use this object. Keep in mind that one object can have many uses. Separate your responses with a comma.",,y,47435,,,3076,45870,,,,"to post letters, to receive letters, to post parcels, to receive parcels,",1
5bb20c4ce05c350001ef337e,0mkw678k1a,"Affordance Norms_Prolific",1,34,2023-01-05T20:55:08+00:00,73.513825893402,19,"updated stim.csv",Version19.csv,"Version 19","List 19",bagpipes,,550,5,124,0.570726592,551,BOI,-,-,"Please name all of the ways you could use this object. Keep in mind that one object can have many uses. Separate your responses with a comma.",,y,72713,,,4951,34462,,,,"used for music, to train musicians, ",1
5bb20c4ce05c350001ef337e,0mkw678k1a,"Affordance Norms_Prolific",1,35,2023-01-05T20:55:50+00:00,42.292964935303,19,"updated stim.csv",Version19.csv,"Version 19","List 19",yardstick,,569,5.956521739,2990,0.862814499,570,BOI,-,-,"Please name all of the ways you could use this object. Keep in mind that one object can have many uses. Separate your responses with a comma.",,y,41770,,,2532,35735,,,,"to measure fabric, to measure height,",1
5bb20c4ce05c350001ef337e,0mkw678k1a,"Affordance Norms_Prolific",1,36,2023-01-05T20:56:12+00:00,21.696222066879,19,"updated stim.csv",Version19.csv,"Version 19","List 19",godparent,,551,5.260869565,1129,0.144202147,552,BOI,-,-,"Please name all of the ways you could use this object. Keep in mind that one object can have many uses. Separate your responses with a comma.",,y,21037,,,3192,18997,,,,"to protect, to help, to support,",1
5bb20c4ce05c350001ef337e,0mkw678k1a,"Affordance Norms_Prolific",1,37,2023-01-05T20:56:45+00:00,32.887404918671,19,"updated stim.csv",Version19.csv,"Version 19","List 19",couch,,544,6.260869565,661,0.619410451,545,BOI,-,-,"Please name all of the ways you could use this object. Keep in mind that one object can have many uses. Separate your responses with a comma.",,y,32368,,,2376,30712,,,,"to sit on, to sleep on, to relax on,",1
5bb20c4ce05c350001ef337e,0mkw678k1a,"Affordance Norms_Prolific",1,38,2023-01-05T20:57:28+00:00,42.633893013,19,"updated stim.csv",Version19.csv,"Version 19","List 19",lantern,,558,5.653846154,1463,0.56962793,559,BOI,-,-,"Please name all of the ways you could use this object. Keep in mind that one object can have many uses. Separate your responses with a comma.",,y,41929,,,2960,39173,,,,"to light a dark area, to look decorative in a home, to put a candle in,",1
5bb20c4ce05c350001ef337e,0mkw678k1a,"Affordance Norms_Prolific",1,39,2023-01-05T20:58:03+00:00,35.483617067337,19,"updated stim.csv",Version19.csv,"Version 19","List 19",backpack,,555,5.72,116,0.596868112,556,BOI,-,-,"Please name all of the ways you could use this object. Keep in mind that one object can have many uses. Separate your responses with a comma.",,y,34954,,,3249,33323,,,,"to carry items in, to sit on, to stand on,",1
5bb20c4ce05c350001ef337e,0mkw678k1a,"Affordance Norms_Prolific",1,40,2023-01-05T20:58:17+00:00,13.574109077454,19,"updated stim.csv",Version19.csv,"Version 19","List 19",cookie,,567,6.5,633,0.354504033,568,BOI,-,-,"Please name all of the ways you could use this object. Keep in mind that one object can have many uses. Separate your responses with a comma.",,y,12854,,,2837,6531,,,,"to eat,",1
5bb20c4ce05c350001ef337e,0mkw678k1a,"Affordance Norms_Prolific",1,41,2023-01-05T20:58:21+00:00,3.9448969364166,19,"updated stim.csv",Version19.csv,"Version 19","List 19",,,,,,,0,Instruct,,,"You will now be asked a few questions about your experience today.",,"Instruct 4",3483,,,-1,-1,,,,,1
