"Username","ID","ExperimentName","Session","Trial","Date","TimeDif","Condition.Number","Stimuli.File","Order.File","Condition.Description","Condition.Notes","Stimuli.Cue","Stimuli.Answer","Stimuli.Shuffle","Stimuli.Stimuli.Notes","Stimuli.Value","Stimuli.Rand","Procedure.Item","Procedure.Trial.Type","Procedure.Max.Time","Procedure.Min.Time","Procedure.Text","Procedure.Procedure.Notes","Procedure.Shuffle","Response.RT","Response.Response","Response.Accuracy","Response.RTfirst","Response.RTlast","Response.strictAcc","Response.lenientAcc","Response.focus","Response.JOL","Response.Focus"
"584ef02b78380e000175f013","3urptxywna","Affordance Norms_Prolific",1,11,"2023-07-27T18:07:57+00:00",24.396661996841,2,"updated stim.csv","Version2.csv","Version 2","List 2","blister",NA,55,4.956521739,48,0.731549393,56,"BOI","-","-","Please name all of the ways you could use this object. Keep in mind that one object can have many uses. Separate your responses with a comma.",NA,"y",23673,NA,NA,1709,11214,NA,NA,NA,"pop",1
"584ef02b78380e000175f013","3urptxywna","Affordance Norms_Prolific",1,12,"2023-07-27T18:08:31+00:00",33.795542955399,2,"updated stim.csv","Version2.csv","Version 2","List 2","rook",NA,39,4.818181818,150,0.478634366,40,"BOI","-","-","Please name all of the ways you could use this object. Keep in mind that one object can have many uses. Separate your responses with a comma.",NA,"y",33076,NA,NA,16690,17659,NA,NA,NA,"take",0.928
"584ef02b78380e000175f013","3urptxywna","Affordance Norms_Prolific",1,13,"2023-07-27T18:08:53+00:00",22.502954006195,2,"updated stim.csv","Version2.csv","Version 2","List 2","kazoo",NA,59,4.72,89,0.034188339,60,"BOI","-","-","Please name all of the ways you could use this object. Keep in mind that one object can have many uses. Separate your responses with a comma.",NA,"y",21705,NA,NA,11861,19683,NA,NA,NA,"play, place, listen to",1
"584ef02b78380e000175f013","3urptxywna","Affordance Norms_Prolific",1,14,"2023-07-27T18:09:06+00:00",12.939653873444,2,"updated stim.csv","Version2.csv","Version 2","List 2","knickers",NA,34,5.583333333,2998,0.504476823,35,"BOI","-","-","Please name all of the ways you could use this object. Keep in mind that one object can have many uses. Separate your responses with a comma.",NA,"y",12196,NA,NA,2577,10442,NA,NA,NA,"wear, sell, take off, put on",1
"584ef02b78380e000175f013","3urptxywna","Affordance Norms_Prolific",1,15,"2023-07-27T18:09:24+00:00",17.622497081757,2,"updated stim.csv","Version2.csv","Version 2","List 2","orphan",NA,54,4.96,1201,0.163221051,55,"BOI","-","-","Please name all of the ways you could use this object. Keep in mind that one object can have many uses. Separate your responses with a comma.",NA,"y",16770,NA,NA,3443,13215,NA,NA,NA,"adopt, foster, look after, be",1
"584ef02b78380e000175f013","3urptxywna","Affordance Norms_Prolific",1,16,"2023-07-27T18:09:45+00:00",21.287948131561,2,"updated stim.csv","Version2.csv","Version 2","List 2","croquet",NA,60,5.407407407,2133,0.78433646,61,"BOI","-","-","Please name all of the ways you could use this object. Keep in mind that one object can have many uses. Separate your responses with a comma.",NA,"y",20449,NA,NA,2381,15698,NA,NA,NA,"play, watch",0.967
"584ef02b78380e000175f013","3urptxywna","Affordance Norms_Prolific",1,17,"2023-07-27T18:10:24+00:00",39.423196792603,2,"updated stim.csv","Version2.csv","Version 2","List 2","insole",NA,56,4.7,2778,0.883826576,57,"BOI","-","-","Please name all of the ways you could use this object. Keep in mind that one object can have many uses. Separate your responses with a comma.",NA,"y",38703,NA,NA,7679,10176,NA,NA,NA,"wear, put in",1
"584ef02b78380e000175f013","3urptxywna","Affordance Norms_Prolific",1,18,"2023-07-27T18:10:50+00:00",25.398274183273,2,"updated stim.csv","Version2.csv","Version 2","List 2","earwax",NA,46,5.19047619,1128,0.679960661,47,"BOI","-","-","Please name all of the ways you could use this object. Keep in mind that one object can have many uses. Separate your responses with a comma.",NA,"y",24672,NA,NA,13103,21555,NA,NA,NA,"dissolve, remove, push in",0.983
"584ef02b78380e000175f013","3urptxywna","Affordance Norms_Prolific",1,19,"2023-07-27T18:11:05+00:00",15.049830913544,2,"updated stim.csv","Version2.csv","Version 2","List 2","buckwheat",NA,31,4.392857143,668,0.714936931,32,"BOI","-","-","Please name all of the ways you could use this object. Keep in mind that one object can have many uses. Separate your responses with a comma.",NA,"y",13498,NA,NA,7722,11706,NA,NA,NA,"harvest, eat, sell",0.966
"584ef02b78380e000175f013","3urptxywna","Affordance Norms_Prolific",1,20,"2023-07-27T18:11:24+00:00",19.543665885925,2,"updated stim.csv","Version2.csv","Version 2","List 2","stockbroker",NA,41,6.555555556,281,0.153320127,42,"BOI","-","-","Please name all of the ways you could use this object. Keep in mind that one object can have many uses. Separate your responses with a comma.",NA,"y",18831,NA,NA,3206,17727,NA,NA,NA,"be, go to, buy from",1
"584ef02b78380e000175f013","3urptxywna","Affordance Norms_Prolific",1,21,"2023-07-27T18:11:42+00:00",17.665183067322,2,"updated stim.csv","Version2.csv","Version 2","List 2","mint",NA,37,4.84,1121,0.199203882,38,"BOI","-","-","Please name all of the ways you could use this object. Keep in mind that one object can have many uses. Separate your responses with a comma.",NA,"y",16955,NA,NA,3148,16199,NA,NA,NA,"eat, flavour",1
"584ef02b78380e000175f013","3urptxywna","Affordance Norms_Prolific",1,22,"2023-07-27T18:12:05+00:00",22.616724967957,2,"updated stim.csv","Version2.csv","Version 2","List 2","swing",NA,45,5.230769231,1323,0.512471955,46,"BOI","-","-","Please name all of the ways you could use this object. Keep in mind that one object can have many uses. Separate your responses with a comma.",NA,"y",21879,NA,NA,3322,17326,NA,NA,NA,"swing on",1
"584ef02b78380e000175f013","3urptxywna","Affordance Norms_Prolific",1,23,"2023-07-27T18:12:43+00:00",38.113136053085,2,"updated stim.csv","Version2.csv","Version 2","List 2","seashore",NA,40,5.148148148,2799,0.680797852,41,"BOI","-","-","Please name all of the ways you could use this object. Keep in mind that one object can have many uses. Separate your responses with a comma.",NA,"y",37411,NA,NA,5105,35801,NA,NA,NA,"go to, swim in",0.989
"584ef02b78380e000175f013","3urptxywna","Affordance Norms_Prolific",1,24,"2023-07-27T18:12:55+00:00",12.433305978775,2,"updated stim.csv","Version2.csv","Version 2","List 2","antiseptics",NA,58,6.074074074,2822,0.498329355,59,"BOI","-","-","Please name all of the ways you could use this object. Keep in mind that one object can have many uses. Separate your responses with a comma.",NA,"y",11667,NA,NA,7050,10840,NA,NA,NA,"apply, take, use",1
"584ef02b78380e000175f013","3urptxywna","Affordance Norms_Prolific",1,25,"2023-07-27T18:13:17+00:00",22.090974092484,2,"updated stim.csv","Version2.csv","Version 2","List 2","hitchhiker",NA,48,4.52,817,0.223119321,49,"BOI","-","-","Please name all of the ways you could use this object. Keep in mind that one object can have many uses. Separate your responses with a comma.",NA,"y",21355,NA,NA,3548,18426,NA,NA,NA,"be, kill",1
"584ef02b78380e000175f013","3urptxywna","Affordance Norms_Prolific",1,26,"2023-07-27T18:13:30+00:00",12.264364957809,2,"updated stim.csv","Version2.csv","Version 2","List 2","crap",NA,53,4.48,245,0.100535723,54,"BOI","-","-","Please name all of the ways you could use this object. Keep in mind that one object can have many uses. Separate your responses with a comma.",NA,"y",11529,NA,NA,3874,10594,NA,NA,NA,"do, eat, be",1
"584ef02b78380e000175f013","3urptxywna","Affordance Norms_Prolific",1,27,"2023-07-27T18:13:53+00:00",23.582808971405,2,"updated stim.csv","Version2.csv","Version 2","List 2","clothespin",NA,50,4.739130435,670,0.633267106,51,"BOI","-","-","Please name all of the ways you could use this object. Keep in mind that one object can have many uses. Separate your responses with a comma.",NA,"y",22850,NA,NA,14619,16879,NA,NA,NA,"use",0.949
"584ef02b78380e000175f013","3urptxywna","Affordance Norms_Prolific",1,28,"2023-07-27T18:14:00+00:00",6.7148411273956,2,"updated stim.csv","Version2.csv","Version 2","List 2","poker",NA,44,4.826086957,535,0.955772762,45,"BOI","-","-","Please name all of the ways you could use this object. Keep in mind that one object can have many uses. Separate your responses with a comma.",NA,"y",6013,NA,NA,1480,4243,NA,NA,NA,"play, watch",1
"584ef02b78380e000175f013","3urptxywna","Affordance Norms_Prolific",1,29,"2023-07-27T18:14:09+00:00",8.9852998256683,2,"updated stim.csv","Version2.csv","Version 2","List 2","fern",NA,42,6.32,2642,0.384323611,43,"BOI","-","-","Please name all of the ways you could use this object. Keep in mind that one object can have many uses. Separate your responses with a comma.",NA,"y",8278,NA,NA,3417,4630,NA,NA,NA,"plant",1
"584ef02b78380e000175f013","3urptxywna","Affordance Norms_Prolific",1,30,"2023-07-27T18:14:58+00:00",49.384181976318,2,"updated stim.csv","Version2.csv","Version 2","List 2","granite",NA,52,4.916666667,1137,0.75699281,53,"BOI","-","-","Please name all of the ways you could use this object. Keep in mind that one object can have many uses. Separate your responses with a comma.",NA,"y",48677,NA,NA,18762,47053,NA,NA,NA,"quarry",1
"584ef02b78380e000175f013","3urptxywna","Affordance Norms_Prolific",1,31,"2023-07-27T18:15:11+00:00",13.269505023956,2,"updated stim.csv","Version2.csv","Version 2","List 2","penknife",NA,38,5.24,2402,0.06527123,39,"BOI","-","-","Please name all of the ways you could use this object. Keep in mind that one object can have many uses. Separate your responses with a comma.",NA,"y",12538,NA,NA,4757,11618,NA,NA,NA,"use, open, sell",1
"584ef02b78380e000175f013","3urptxywna","Affordance Norms_Prolific",1,32,"2023-07-27T18:15:31+00:00",19.998564004898,2,"updated stim.csv","Version2.csv","Version 2","List 2","coverall",NA,32,4.347826087,1757,0.595175497,33,"BOI","-","-","Please name all of the ways you could use this object. Keep in mind that one object can have many uses. Separate your responses with a comma.",NA,"y",19271,NA,NA,8802,18499,NA,NA,NA,"wear, buy, take off, put on",0.951
"584ef02b78380e000175f013","3urptxywna","Affordance Norms_Prolific",1,33,"2023-07-27T18:15:56+00:00",24.696922063828,2,"updated stim.csv","Version2.csv","Version 2","List 2","me",NA,36,5.583333333,2245,0.682973727,37,"BOI","-","-","Please name all of the ways you could use this object. Keep in mind that one object can have many uses. Separate your responses with a comma.",NA,"y",23989,NA,NA,14368,15317,NA,NA,NA,"try",1
"584ef02b78380e000175f013","3urptxywna","Affordance Norms_Prolific",1,34,"2023-07-27T18:16:15+00:00",19.122059106827,2,"updated stim.csv","Version2.csv","Version 2","List 2","erection",NA,51,4.642857143,2058,0.516126599,52,"BOI","-","-","Please name all of the ways you could use this object. Keep in mind that one object can have many uses. Separate your responses with a comma.",NA,"y",18318,NA,NA,3187,17406,NA,NA,NA,"nurse, pop, have, feel",1
"584ef02b78380e000175f013","3urptxywna","Affordance Norms_Prolific",1,35,"2023-07-27T18:16:29+00:00",14.143620967865,2,"updated stim.csv","Version2.csv","Version 2","List 2","pedicurist",NA,43,6.08,2750,0.595966616,44,"BOI","-","-","Please name all of the ways you could use this object. Keep in mind that one object can have many uses. Separate your responses with a comma.",NA,"y",13403,NA,NA,2815,11409,NA,NA,NA,"work as, be, see",1
"584ef02b78380e000175f013","3urptxywna","Affordance Norms_Prolific",1,36,"2023-07-27T18:16:53+00:00",23.139185905457,2,"updated stim.csv","Version2.csv","Version 2","List 2","debris",NA,33,6.083333333,1497,0.692615167,34,"BOI","-","-","Please name all of the ways you could use this object. Keep in mind that one object can have many uses. Separate your responses with a comma.",NA,"y",22413,NA,NA,1898,21595,NA,NA,NA,"remove, throw away, see",1
"584ef02b78380e000175f013","3urptxywna","Affordance Norms_Prolific",1,37,"2023-07-27T18:17:10+00:00",17.583404064178,2,"updated stim.csv","Version2.csv","Version 2","List 2","uncle",NA,57,4.695652174,2762,0.942630662,58,"BOI","-","-","Please name all of the ways you could use this object. Keep in mind that one object can have many uses. Separate your responses with a comma.",NA,"y",16866,NA,NA,1485,14039,NA,NA,NA,"become, be",1
"584ef02b78380e000175f013","3urptxywna","Affordance Norms_Prolific",1,38,"2023-07-27T18:17:55+00:00",44.879991054535,2,"updated stim.csv","Version2.csv","Version 2","List 2","footbridge",NA,47,5,1653,0.813855277,48,"BOI","-","-","Please name all of the ways you could use this object. Keep in mind that one object can have many uses. Separate your responses with a comma.",NA,"y",44163,NA,NA,5193,42739,NA,NA,NA,"walk over, build",0.957
"584ef02b78380e000175f013","3urptxywna","Affordance Norms_Prolific",1,39,"2023-07-27T18:18:52+00:00",56.848598003387,2,"updated stim.csv","Version2.csv","Version 2","List 2","marketeer",NA,35,5.464285714,287,0.648959205,36,"BOI","-","-","Please name all of the ways you could use this object. Keep in mind that one object can have many uses. Separate your responses with a comma.",NA,"y",56108,NA,NA,49628,53649,NA,NA,NA,"be, become",0.748
"584ef02b78380e000175f013","3urptxywna","Affordance Norms_Prolific",1,40,"2023-07-27T18:18:59+00:00",7.125422000885,2,"updated stim.csv","Version2.csv","Version 2","List 2","pulley",NA,49,6.347826087,2994,0.675214554,50,"BOI","-","-","Please name all of the ways you could use this object. Keep in mind that one object can have many uses. Separate your responses with a comma.",NA,"y",6396,NA,NA,2563,3723,NA,NA,NA,"use",1
"599c1da9a954a50001ef1cb7","gdhr2z4tqq","Affordance Norms_Prolific",1,11,"2023-07-27T18:23:57+00:00",13.377899885178,1,"updated stim.csv","Version1.csv","Version 1","List 1","kiln",NA,7,6.230769231,308,0.981109369,8,"BOI","-","-","Please name all of the ways you could use this object. Keep in mind that one object can have many uses. Separate your responses with a comma.",NA,"y",13063,NA,NA,2471,12103,NA,NA,NA,"baking, warming, heating, pottery",1
"599c1da9a954a50001ef1cb7","gdhr2z4tqq","Affordance Norms_Prolific",1,12,"2023-07-27T18:24:04+00:00",6.0802011489868,1,"updated stim.csv","Version1.csv","Version 1","List 1","tapioca",NA,18,4.666666667,1815,0.413937663,19,"BOI","-","-","Please name all of the ways you could use this object. Keep in mind that one object can have many uses. Separate your responses with a comma.",NA,"y",5474,NA,NA,1466,4401,NA,NA,NA,"eat, throw",1
"599c1da9a954a50001ef1cb7","gdhr2z4tqq","Affordance Norms_Prolific",1,13,"2023-07-27T18:24:08+00:00",4.3028728961945,1,"updated stim.csv","Version1.csv","Version 1","List 1","hookah",NA,2,6.416666667,2301,0.945985105,3,"BOI","-","-","Please name all of the ways you could use this object. Keep in mind that one object can have many uses. Separate your responses with a comma.",NA,"y",3891,NA,NA,1763,2547,NA,NA,NA,"smoke",1
"599c1da9a954a50001ef1cb7","gdhr2z4tqq","Affordance Norms_Prolific",1,14,"2023-07-27T18:24:13+00:00",5.1269459724426,1,"updated stim.csv","Version1.csv","Version 1","List 1","aunt",NA,21,4.4,243,0.879020377,22,"BOI","-","-","Please name all of the ways you could use this object. Keep in mind that one object can have many uses. Separate your responses with a comma.",NA,"y",4753,NA,NA,3106,3656,NA,NA,NA,"cant",1
"599c1da9a954a50001ef1cb7","gdhr2z4tqq","Affordance Norms_Prolific",1,15,"2023-07-27T18:24:25+00:00",11.585505008698,1,"updated stim.csv","Version1.csv","Version 1","List 1","crossbar",NA,8,5.454545455,1935,0.125396232,9,"BOI","-","-","Please name all of the ways you could use this object. Keep in mind that one object can have many uses. Separate your responses with a comma.",NA,"y",10649,NA,NA,2697,9297,NA,NA,NA,"pull ups, hit with ball",1
"599c1da9a954a50001ef1cb7","gdhr2z4tqq","Affordance Norms_Prolific",1,16,"2023-07-27T18:24:30+00:00",5.1266150474548,1,"updated stim.csv","Version1.csv","Version 1","List 1","spool",NA,30,5.64,2491,0.148115672,31,"BOI","-","-","Please name all of the ways you could use this object. Keep in mind that one object can have many uses. Separate your responses with a comma.",NA,"y",4830,NA,NA,2766,3973,NA,NA,NA,"twine",1
"599c1da9a954a50001ef1cb7","gdhr2z4tqq","Affordance Norms_Prolific",1,17,"2023-07-27T18:24:34+00:00",4.7984299659729,1,"updated stim.csv","Version1.csv","Version 1","List 1","decor",NA,24,5.347826087,469,0.48837589,25,"BOI","-","-","Please name all of the ways you could use this object. Keep in mind that one object can have many uses. Separate your responses with a comma.",NA,"y",4508,NA,NA,2684,3428,NA,NA,NA,"paint",1
"599c1da9a954a50001ef1cb7","gdhr2z4tqq","Affordance Norms_Prolific",1,18,"2023-07-27T18:24:39+00:00",4.4908330440521,1,"updated stim.csv","Version1.csv","Version 1","List 1","sod",NA,6,4.375,1389,0.172930083,7,"BOI","-","-","Please name all of the ways you could use this object. Keep in mind that one object can have many uses. Separate your responses with a comma.",NA,"y",4196,NA,NA,2469,3260,NA,NA,NA,"turf",1
"599c1da9a954a50001ef1cb7","gdhr2z4tqq","Affordance Norms_Prolific",1,19,"2023-07-27T18:24:43+00:00",3.6230039596558,1,"updated stim.csv","Version1.csv","Version 1","List 1","boy",NA,10,6.25,323,0.73335018,11,"BOI","-","-","Please name all of the ways you could use this object. Keep in mind that one object can have many uses. Separate your responses with a comma.",NA,"y",3324,NA,NA,1732,2307,NA,NA,NA,"cant",1
"599c1da9a954a50001ef1cb7","gdhr2z4tqq","Affordance Norms_Prolific",1,20,"2023-07-27T18:24:47+00:00",4.4102139472961,1,"updated stim.csv","Version1.csv","Version 1","List 1","kumquat",NA,1,4.538461538,764,0.261476603,2,"BOI","-","-","Please name all of the ways you could use this object. Keep in mind that one object can have many uses. Separate your responses with a comma.",NA,"y",4116,NA,NA,1308,3524,NA,NA,NA,"eat",1
"599c1da9a954a50001ef1cb7","gdhr2z4tqq","Affordance Norms_Prolific",1,21,"2023-07-27T18:24:53+00:00",6.3459360599518,1,"updated stim.csv","Version1.csv","Version 1","List 1","cashmere",NA,23,4.84,1448,0.448711971,24,"BOI","-","-","Please name all of the ways you could use this object. Keep in mind that one object can have many uses. Separate your responses with a comma.",NA,"y",6046,NA,NA,1517,5035,NA,NA,NA,"wear, knit",1
"599c1da9a954a50001ef1cb7","gdhr2z4tqq","Affordance Norms_Prolific",1,22,"2023-07-27T18:25:01+00:00",7.8400030136108,1,"updated stim.csv","Version1.csv","Version 1","List 1","gourd",NA,20,5.458333333,2953,0.249710528,21,"BOI","-","-","Please name all of the ways you could use this object. Keep in mind that one object can have many uses. Separate your responses with a comma.",NA,"y",7336,NA,NA,2040,6240,NA,NA,NA,"carry liquids",1
"599c1da9a954a50001ef1cb7","gdhr2z4tqq","Affordance Norms_Prolific",1,23,"2023-07-27T18:25:05+00:00",3.9637560844421,1,"updated stim.csv","Version1.csv","Version 1","List 1","capacitor",NA,3,5.76,1666,0.330502966,4,"BOI","-","-","Please name all of the ways you could use this object. Keep in mind that one object can have many uses. Separate your responses with a comma.",NA,"y",3666,NA,NA,1659,2922,NA,NA,NA,"charge",1
"599c1da9a954a50001ef1cb7","gdhr2z4tqq","Affordance Norms_Prolific",1,24,"2023-07-27T18:25:10+00:00",4.8113150596619,1,"updated stim.csv","Version1.csv","Version 1","List 1","waistcoat",NA,19,5.227272727,1241,0.629851612,20,"BOI","-","-","Please name all of the ways you could use this object. Keep in mind that one object can have many uses. Separate your responses with a comma.",NA,"y",4428,NA,NA,1268,3484,NA,NA,NA,"wear",1
"599c1da9a954a50001ef1cb7","gdhr2z4tqq","Affordance Norms_Prolific",1,25,"2023-07-27T18:25:17+00:00",6.73703789711,1,"updated stim.csv","Version1.csv","Version 1","List 1","fauna",NA,25,4.333333333,252,0.347548191,26,"BOI","-","-","Please name all of the ways you could use this object. Keep in mind that one object can have many uses. Separate your responses with a comma.",NA,"y",6138,NA,NA,3057,5369,NA,NA,NA,"plant,eat",1
"599c1da9a954a50001ef1cb7","gdhr2z4tqq","Affordance Norms_Prolific",1,26,"2023-07-27T18:25:23+00:00",6.2531518936157,1,"updated stim.csv","Version1.csv","Version 1","List 1","tar",NA,11,5.92,2708,0.629763414,12,"BOI","-","-","Please name all of the ways you could use this object. Keep in mind that one object can have many uses. Separate your responses with a comma.",NA,"y",5753,NA,NA,3170,4472,NA,NA,NA,"road, ",1
"599c1da9a954a50001ef1cb7","gdhr2z4tqq","Affordance Norms_Prolific",1,27,"2023-07-27T18:25:29+00:00",6.1533560752869,1,"updated stim.csv","Version1.csv","Version 1","List 1","juror",NA,17,5.481481481,1600,0.476399064,18,"BOI","-","-","Please name all of the ways you could use this object. Keep in mind that one object can have many uses. Separate your responses with a comma.",NA,"y",5647,NA,NA,4095,5271,NA,NA,NA,"court",1
"599c1da9a954a50001ef1cb7","gdhr2z4tqq","Affordance Norms_Prolific",1,28,"2023-07-27T18:25:35+00:00",5.4831020832062,1,"updated stim.csv","Version1.csv","Version 1","List 1","medal",NA,13,4.444444444,1011,0.860315666,14,"BOI","-","-","Please name all of the ways you could use this object. Keep in mind that one object can have many uses. Separate your responses with a comma.",NA,"y",4874,NA,NA,1169,4337,NA,NA,NA,"wear,sell,award",1
"599c1da9a954a50001ef1cb7","gdhr2z4tqq","Affordance Norms_Prolific",1,29,"2023-07-27T18:25:38+00:00",3.9170818328857,1,"updated stim.csv","Version1.csv","Version 1","List 1","munitions",NA,9,4.875,2448,0.423270691,10,"BOI","-","-","Please name all of the ways you could use this object. Keep in mind that one object can have many uses. Separate your responses with a comma.",NA,"y",3620,NA,NA,2020,2828,NA,NA,NA,"fire",1
"599c1da9a954a50001ef1cb7","gdhr2z4tqq","Affordance Norms_Prolific",1,30,"2023-07-27T18:25:44+00:00",5.3288850784302,1,"updated stim.csv","Version1.csv","Version 1","List 1","gasket",NA,4,5.416666667,1464,0.391267155,5,"BOI","-","-","Please name all of the ways you could use this object. Keep in mind that one object can have many uses. Separate your responses with a comma.",NA,"y",5034,NA,NA,3602,4658,NA,NA,NA,"apply",1
"599c1da9a954a50001ef1cb7","gdhr2z4tqq","Affordance Norms_Prolific",1,31,"2023-07-27T18:25:49+00:00",5.5205221176147,1,"updated stim.csv","Version1.csv","Version 1","List 1","receptacle",NA,5,5.833333333,1647,0.48521541,6,"BOI","-","-","Please name all of the ways you could use this object. Keep in mind that one object can have many uses. Separate your responses with a comma.",NA,"y",4864,NA,NA,2200,4512,NA,NA,NA,"fill,empty",1
"599c1da9a954a50001ef1cb7","gdhr2z4tqq","Affordance Norms_Prolific",1,32,"2023-07-27T18:25:52+00:00",3.1587100028992,1,"updated stim.csv","Version1.csv","Version 1","List 1","asshole",NA,29,5.88,1967,0.018459114,30,"BOI","-","-","Please name all of the ways you could use this object. Keep in mind that one object can have many uses. Separate your responses with a comma.",NA,"y",2865,NA,NA,2106,2584,NA,NA,NA,"poop",1
"599c1da9a954a50001ef1cb7","gdhr2z4tqq","Affordance Norms_Prolific",1,33,"2023-07-27T18:25:55+00:00",2.6405439376831,1,"updated stim.csv","Version1.csv","Version 1","List 1","musket",NA,14,4.958333333,2722,0.368202979,15,"BOI","-","-","Please name all of the ways you could use this object. Keep in mind that one object can have many uses. Separate your responses with a comma.",NA,"y",2345,NA,NA,1257,2065,NA,NA,NA,"fire",1
"599c1da9a954a50001ef1cb7","gdhr2z4tqq","Affordance Norms_Prolific",1,34,"2023-07-27T18:25:58+00:00",3.0292179584503,1,"updated stim.csv","Version1.csv","Version 1","List 1","upholstery",NA,28,5.142857143,2618,0.332046282,29,"BOI","-","-","Please name all of the ways you could use this object. Keep in mind that one object can have many uses. Separate your responses with a comma.",NA,"y",2733,NA,NA,1341,2325,NA,NA,NA,"sit",1
"599c1da9a954a50001ef1cb7","gdhr2z4tqq","Affordance Norms_Prolific",1,35,"2023-07-27T18:26:02+00:00",4.0755579471588,1,"updated stim.csv","Version1.csv","Version 1","List 1","straightedge",NA,15,4.666666667,1168,0.129741388,16,"BOI","-","-","Please name all of the ways you could use this object. Keep in mind that one object can have many uses. Separate your responses with a comma.",NA,"y",3778,NA,NA,2514,3529,NA,NA,NA,"break",1
"599c1da9a954a50001ef1cb7","gdhr2z4tqq","Affordance Norms_Prolific",1,36,"2023-07-27T18:26:05+00:00",3.1413271427155,1,"updated stim.csv","Version1.csv","Version 1","List 1","stirrup",NA,27,5.434782609,1877,0.096670334,28,"BOI","-","-","Please name all of the ways you could use this object. Keep in mind that one object can have many uses. Separate your responses with a comma.",NA,"y",2839,NA,NA,1639,2390,NA,NA,NA,"ride",1
"599c1da9a954a50001ef1cb7","gdhr2z4tqq","Affordance Norms_Prolific",1,37,"2023-07-27T18:26:10+00:00",4.2160089015961,1,"updated stim.csv","Version1.csv","Version 1","List 1","hailstone",NA,16,5.565217391,1319,0.287274537,17,"BOI","-","-","Please name all of the ways you could use this object. Keep in mind that one object can have many uses. Separate your responses with a comma.",NA,"y",3750,NA,NA,2230,3534,NA,NA,NA,"dodge",1
"599c1da9a954a50001ef1cb7","gdhr2z4tqq","Affordance Norms_Prolific",1,38,"2023-07-27T18:26:23+00:00",13.378647089005,1,"updated stim.csv","Version1.csv","Version 1","List 1","jaguar",NA,12,5.777777778,2235,0.168486135,13,"BOI","-","-","Please name all of the ways you could use this object. Keep in mind that one object can have many uses. Separate your responses with a comma.",NA,"y",13088,NA,NA,1743,6127,NA,NA,NA,"pet, drive",1
"599c1da9a954a50001ef1cb7","gdhr2z4tqq","Affordance Norms_Prolific",1,39,"2023-07-27T18:26:32+00:00",8.6798679828644,1,"updated stim.csv","Version1.csv","Version 1","List 1","packet",NA,26,4.727272727,2510,0.797812576,27,"BOI","-","-","Please name all of the ways you could use this object. Keep in mind that one object can have many uses. Separate your responses with a comma.",NA,"y",8172,NA,NA,4500,7868,NA,NA,NA,"open, store",1
"599c1da9a954a50001ef1cb7","gdhr2z4tqq","Affordance Norms_Prolific",1,40,"2023-07-27T18:26:40+00:00",8.2076869010925,1,"updated stim.csv","Version1.csv","Version 1","List 1","dipstick",NA,22,4.826086957,1618,0.113902737,23,"BOI","-","-","Please name all of the ways you could use this object. Keep in mind that one object can have many uses. Separate your responses with a comma.",NA,"y",3305,NA,NA,1928,3024,NA,NA,NA,"check",1
"5a4d6973f4c9dc0001649fc7","kraa0i56cz","Affordance Norms_Prolific",1,11,"2023-07-27T18:12:12+00:00",17.154469013214,2,"updated stim.csv","Version2.csv","Version 2","List 2","earwax",NA,46,5.19047619,1128,0.679960661,47,"BOI","-","-","Please name all of the ways you could use this object. Keep in mind that one object can have many uses. Separate your responses with a comma.",NA,"y",16715,NA,NA,7529,12470,NA,NA,NA,"mold, ",1
"5a4d6973f4c9dc0001649fc7","kraa0i56cz","Affordance Norms_Prolific",1,12,"2023-07-27T18:12:21+00:00",9.485759973526,2,"updated stim.csv","Version2.csv","Version 2","List 2","footbridge",NA,47,5,1653,0.813855277,48,"BOI","-","-","Please name all of the ways you could use this object. Keep in mind that one object can have many uses. Separate your responses with a comma.",NA,"y",9133,NA,NA,1346,7540,NA,NA,NA,"walk, make, burn",1
"5a4d6973f4c9dc0001649fc7","kraa0i56cz","Affordance Norms_Prolific",1,13,"2023-07-27T18:12:40+00:00",19.390400886536,2,"updated stim.csv","Version2.csv","Version 2","List 2","stockbroker",NA,41,6.555555556,281,0.153320127,42,"BOI","-","-","Please name all of the ways you could use this object. Keep in mind that one object can have many uses. Separate your responses with a comma.",NA,"y",19013,NA,NA,6459,10110,NA,NA,NA,"hire, pay, ",1
"5a4d6973f4c9dc0001649fc7","kraa0i56cz","Affordance Norms_Prolific",1,14,"2023-07-27T18:12:50+00:00",9.5402369499207,2,"updated stim.csv","Version2.csv","Version 2","List 2","crap",NA,53,4.48,245,0.100535723,54,"BOI","-","-","Please name all of the ways you could use this object. Keep in mind that one object can have many uses. Separate your responses with a comma.",NA,"y",9097,NA,NA,4272,7038,NA,NA,NA,"flush,",1
"5a4d6973f4c9dc0001649fc7","kraa0i56cz","Affordance Norms_Prolific",1,15,"2023-07-27T18:13:01+00:00",10.487421035767,2,"updated stim.csv","Version2.csv","Version 2","List 2","orphan",NA,54,4.96,1201,0.163221051,55,"BOI","-","-","Please name all of the ways you could use this object. Keep in mind that one object can have many uses. Separate your responses with a comma.",NA,"y",9973,NA,NA,2043,8580,NA,NA,NA,"look after, raise",1
"5a4d6973f4c9dc0001649fc7","kraa0i56cz","Affordance Norms_Prolific",1,16,"2023-07-27T18:13:22+00:00",21.926752090454,2,"updated stim.csv","Version2.csv","Version 2","List 2","debris",NA,33,6.083333333,1497,0.692615167,34,"BOI","-","-","Please name all of the ways you could use this object. Keep in mind that one object can have many uses. Separate your responses with a comma.",NA,"y",21534,NA,NA,3541,19503,NA,NA,NA,"tidy, foundations for buildings",1
"5a4d6973f4c9dc0001649fc7","kraa0i56cz","Affordance Norms_Prolific",1,17,"2023-07-27T18:13:44+00:00",21.779713869095,2,"updated stim.csv","Version2.csv","Version 2","List 2","hitchhiker",NA,48,4.52,817,0.223119321,49,"BOI","-","-","Please name all of the ways you could use this object. Keep in mind that one object can have many uses. Separate your responses with a comma.",NA,"y",21009,NA,NA,9076,19441,NA,NA,NA,"talk to them, use as company",1
"5a4d6973f4c9dc0001649fc7","kraa0i56cz","Affordance Norms_Prolific",1,18,"2023-07-27T18:13:53+00:00",9.0802421569824,2,"updated stim.csv","Version2.csv","Version 2","List 2","knickers",NA,34,5.583333333,2998,0.504476823,35,"BOI","-","-","Please name all of the ways you could use this object. Keep in mind that one object can have many uses. Separate your responses with a comma.",NA,"y",8586,NA,NA,1396,4129,NA,NA,NA,"wear, wash",1
"5a4d6973f4c9dc0001649fc7","kraa0i56cz","Affordance Norms_Prolific",1,19,"2023-07-27T18:14:02+00:00",8.3311409950256,2,"updated stim.csv","Version2.csv","Version 2","List 2","pulley",NA,49,6.347826087,2994,0.675214554,50,"BOI","-","-","Please name all of the ways you could use this object. Keep in mind that one object can have many uses. Separate your responses with a comma.",NA,"y",7964,NA,NA,2965,5956,NA,NA,NA,"pull, ",1
"5a4d6973f4c9dc0001649fc7","kraa0i56cz","Affordance Norms_Prolific",1,20,"2023-07-27T18:14:30+00:00",28.576977968216,2,"updated stim.csv","Version2.csv","Version 2","List 2","me",NA,36,5.583333333,2245,0.682973727,37,"BOI","-","-","Please name all of the ways you could use this object. Keep in mind that one object can have many uses. Separate your responses with a comma.",NA,"y",28108,NA,NA,4282,25271,NA,NA,NA,"teach, ",1
"5a4d6973f4c9dc0001649fc7","kraa0i56cz","Affordance Norms_Prolific",1,21,"2023-07-27T18:14:39+00:00",8.6878740787506,2,"updated stim.csv","Version2.csv","Version 2","List 2","poker",NA,44,4.826086957,535,0.955772762,45,"BOI","-","-","Please name all of the ways you could use this object. Keep in mind that one object can have many uses. Separate your responses with a comma.",NA,"y",8319,NA,NA,4067,7070,NA,NA,NA,"play, show",1
"5a4d6973f4c9dc0001649fc7","kraa0i56cz","Affordance Norms_Prolific",1,22,"2023-07-27T18:14:47+00:00",8.4836139678955,2,"updated stim.csv","Version2.csv","Version 2","List 2","mint",NA,37,4.84,1121,0.199203882,38,"BOI","-","-","Please name all of the ways you could use this object. Keep in mind that one object can have many uses. Separate your responses with a comma.",NA,"y",6239,NA,NA,1343,4244,NA,NA,NA,"eat, cash",1
"5a4d6973f4c9dc0001649fc7","kraa0i56cz","Affordance Norms_Prolific",1,23,"2023-07-27T18:15:00+00:00",12.899823904037,2,"updated stim.csv","Version2.csv","Version 2","List 2","uncle",NA,57,4.695652174,2762,0.942630662,58,"BOI","-","-","Please name all of the ways you could use this object. Keep in mind that one object can have many uses. Separate your responses with a comma.",NA,"y",12378,NA,NA,9424,11000,NA,NA,NA,"talk to",1
"5a4d6973f4c9dc0001649fc7","kraa0i56cz","Affordance Norms_Prolific",1,24,"2023-07-27T18:15:10+00:00",9.856635093689,2,"updated stim.csv","Version2.csv","Version 2","List 2","rook",NA,39,4.818181818,150,0.478634366,40,"BOI","-","-","Please name all of the ways you could use this object. Keep in mind that one object can have many uses. Separate your responses with a comma.",NA,"y",9492,NA,NA,6251,8232,NA,NA,NA,"play chess",1
"5a4d6973f4c9dc0001649fc7","kraa0i56cz","Affordance Norms_Prolific",1,25,"2023-07-27T18:15:21+00:00",11.210845947266,2,"updated stim.csv","Version2.csv","Version 2","List 2","fern",NA,42,6.32,2642,0.384323611,43,"BOI","-","-","Please name all of the ways you could use this object. Keep in mind that one object can have many uses. Separate your responses with a comma.",NA,"y",10713,NA,NA,2220,8998,NA,NA,NA,"eat, smell",1
"5a4d6973f4c9dc0001649fc7","kraa0i56cz","Affordance Norms_Prolific",1,26,"2023-07-27T18:15:25+00:00",3.5188210010529,2,"updated stim.csv","Version2.csv","Version 2","List 2","buckwheat",NA,31,4.392857143,668,0.714936931,32,"BOI","-","-","Please name all of the ways you could use this object. Keep in mind that one object can have many uses. Separate your responses with a comma.",NA,"y",3134,NA,NA,1361,1860,NA,NA,NA,"eat",1
"5a4d6973f4c9dc0001649fc7","kraa0i56cz","Affordance Norms_Prolific",1,27,"2023-07-27T18:15:36+00:00",11.228513002396,2,"updated stim.csv","Version2.csv","Version 2","List 2","coverall",NA,32,4.347826087,1757,0.595175497,33,"BOI","-","-","Please name all of the ways you could use this object. Keep in mind that one object can have many uses. Separate your responses with a comma.",NA,"y",10609,NA,NA,4332,9320,NA,NA,NA,"use to keep you clean",1
"5a4d6973f4c9dc0001649fc7","kraa0i56cz","Affordance Norms_Prolific",1,28,"2023-07-27T18:15:46+00:00",10.163721084595,2,"updated stim.csv","Version2.csv","Version 2","List 2","granite",NA,52,4.916666667,1137,0.75699281,53,"BOI","-","-","Please name all of the ways you could use this object. Keep in mind that one object can have many uses. Separate your responses with a comma.",NA,"y",9799,NA,NA,5597,8597,NA,NA,NA,"draw, build",1
"5a4d6973f4c9dc0001649fc7","kraa0i56cz","Affordance Norms_Prolific",1,29,"2023-07-27T18:15:53+00:00",6.8130159378052,2,"updated stim.csv","Version2.csv","Version 2","List 2","clothespin",NA,50,4.739130435,670,0.633267106,51,"BOI","-","-","Please name all of the ways you could use this object. Keep in mind that one object can have many uses. Separate your responses with a comma.",NA,"y",6444,NA,NA,2594,5032,NA,NA,NA,"air clothes",1
"5a4d6973f4c9dc0001649fc7","kraa0i56cz","Affordance Norms_Prolific",1,30,"2023-07-27T18:15:57+00:00",3.5408749580383,2,"updated stim.csv","Version2.csv","Version 2","List 2","croquet",NA,60,5.407407407,2133,0.78433646,61,"BOI","-","-","Please name all of the ways you could use this object. Keep in mind that one object can have many uses. Separate your responses with a comma.",NA,"y",3087,NA,NA,1321,1915,NA,NA,NA,"play",1
"5a4d6973f4c9dc0001649fc7","kraa0i56cz","Affordance Norms_Prolific",1,31,"2023-07-27T18:16:01+00:00",4.4403541088104,2,"updated stim.csv","Version2.csv","Version 2","List 2","penknife",NA,38,5.24,2402,0.06527123,39,"BOI","-","-","Please name all of the ways you could use this object. Keep in mind that one object can have many uses. Separate your responses with a comma.",NA,"y",3998,NA,NA,2111,2817,NA,NA,NA,"cut",1
"5a4d6973f4c9dc0001649fc7","kraa0i56cz","Affordance Norms_Prolific",1,32,"2023-07-27T18:16:10+00:00",9.2120778560638,2,"updated stim.csv","Version2.csv","Version 2","List 2","pedicurist",NA,43,6.08,2750,0.595966616,44,"BOI","-","-","Please name all of the ways you could use this object. Keep in mind that one object can have many uses. Separate your responses with a comma.",NA,"y",7580,NA,NA,2592,6052,NA,NA,NA,"look after feet",1
"5a4d6973f4c9dc0001649fc7","kraa0i56cz","Affordance Norms_Prolific",1,33,"2023-07-27T18:16:12+00:00",1.4665460586548,2,"updated stim.csv","Version2.csv","Version 2","List 2","antiseptics",NA,58,6.074074074,2822,0.498329355,59,"BOI","-","-","Please name all of the ways you could use this object. Keep in mind that one object can have many uses. Separate your responses with a comma.",NA,"y",998,NA,NA,-1,-1,NA,NA,NA,"",1
"5a4d6973f4c9dc0001649fc7","kraa0i56cz","Affordance Norms_Prolific",1,34,"2023-07-27T18:16:20+00:00",8.0475289821625,2,"updated stim.csv","Version2.csv","Version 2","List 2","seashore",NA,40,5.148148148,2799,0.680797852,41,"BOI","-","-","Please name all of the ways you could use this object. Keep in mind that one object can have many uses. Separate your responses with a comma.",NA,"y",7659,NA,NA,3880,6329,NA,NA,NA,"walk along",1
"5a4d6973f4c9dc0001649fc7","kraa0i56cz","Affordance Norms_Prolific",1,35,"2023-07-27T18:16:23+00:00",3.5483129024506,2,"updated stim.csv","Version2.csv","Version 2","List 2","swing",NA,45,5.230769231,1323,0.512471955,46,"BOI","-","-","Please name all of the ways you could use this object. Keep in mind that one object can have many uses. Separate your responses with a comma.",NA,"y",3063,NA,NA,1311,1854,NA,NA,NA,"play",1
"5a4d6973f4c9dc0001649fc7","kraa0i56cz","Affordance Norms_Prolific",1,36,"2023-07-27T18:16:32+00:00",8.6205999851227,2,"updated stim.csv","Version2.csv","Version 2","List 2","kazoo",NA,59,4.72,89,0.034188339,60,"BOI","-","-","Please name all of the ways you could use this object. Keep in mind that one object can have many uses. Separate your responses with a comma.",NA,"y",8113,NA,NA,2334,6810,NA,NA,NA,"play instrument",1
"5a4d6973f4c9dc0001649fc7","kraa0i56cz","Affordance Norms_Prolific",1,37,"2023-07-27T18:16:37+00:00",4.6016230583191,2,"updated stim.csv","Version2.csv","Version 2","List 2","marketeer",NA,35,5.464285714,287,0.648959205,36,"BOI","-","-","Please name all of the ways you could use this object. Keep in mind that one object can have many uses. Separate your responses with a comma.",NA,"y",4095,NA,NA,-1,-1,NA,NA,NA,"",1
"5a4d6973f4c9dc0001649fc7","kraa0i56cz","Affordance Norms_Prolific",1,38,"2023-07-27T18:16:45+00:00",8.4951610565186,2,"updated stim.csv","Version2.csv","Version 2","List 2","erection",NA,51,4.642857143,2058,0.516126599,52,"BOI","-","-","Please name all of the ways you could use this object. Keep in mind that one object can have many uses. Separate your responses with a comma.",NA,"y",7971,NA,NA,2470,6536,NA,NA,NA,"utilise!",1
"5a4d6973f4c9dc0001649fc7","kraa0i56cz","Affordance Norms_Prolific",1,39,"2023-07-27T18:16:59+00:00",13.636111021042,2,"updated stim.csv","Version2.csv","Version 2","List 2","insole",NA,56,4.7,2778,0.883826576,57,"BOI","-","-","Please name all of the ways you could use this object. Keep in mind that one object can have many uses. Separate your responses with a comma.",NA,"y",13247,NA,NA,4354,11273,NA,NA,NA,"for a comfier fit of shoes",1
"5a4d6973f4c9dc0001649fc7","kraa0i56cz","Affordance Norms_Prolific",1,40,"2023-07-27T18:17:19+00:00",20.345327854156,2,"updated stim.csv","Version2.csv","Version 2","List 2","blister",NA,55,4.956521739,48,0.731549393,56,"BOI","-","-","Please name all of the ways you could use this object. Keep in mind that one object can have many uses. Separate your responses with a comma.",NA,"y",19979,NA,NA,4346,19527,NA,NA,NA,"to keep a burn from infection",1
"5e13859753e8469d270982c0","ioxi3tzsl2","Affordance Norms_Prolific",1,11,"2023-07-27T18:38:01+00:00",43.983637094498,2,"updated stim.csv","Version2.csv","Version 2","List 2","poker",NA,44,4.826086957,535,0.955772762,45,"BOI","-","-","Please name all of the ways you could use this object. Keep in mind that one object can have many uses. Separate your responses with a comma.",NA,"y",43564,NA,NA,3808,41780,NA,NA,NA,"hit someone,stoke a fire,tent pole,acting prop",1
"5e13859753e8469d270982c0","ioxi3tzsl2","Affordance Norms_Prolific",1,12,"2023-07-27T18:38:47+00:00",45.781196832657,2,"updated stim.csv","Version2.csv","Version 2","List 2","blister",NA,55,4.956521739,48,0.731549393,56,"BOI","-","-","Please name all of the ways you could use this object. Keep in mind that one object can have many uses. Separate your responses with a comma.",NA,"y",45450,NA,NA,7650,44163,NA,NA,NA,"talking point,repulse someone,excuse for time off work",1
"5e13859753e8469d270982c0","ioxi3tzsl2","Affordance Norms_Prolific",1,13,"2023-07-27T18:39:10+00:00",23.184100151062,2,"updated stim.csv","Version2.csv","Version 2","List 2","crap",NA,53,4.48,245,0.100535723,54,"BOI","-","-","Please name all of the ways you could use this object. Keep in mind that one object can have many uses. Separate your responses with a comma.",NA,"y",22808,NA,NA,8986,21784,NA,NA,NA,"to disgust someone,fertiliser",1
"5e13859753e8469d270982c0","ioxi3tzsl2","Affordance Norms_Prolific",1,14,"2023-07-27T18:40:07+00:00",56.731038808823,2,"updated stim.csv","Version2.csv","Version 2","List 2","insole",NA,56,4.7,2778,0.883826576,57,"BOI","-","-","Please name all of the ways you could use this object. Keep in mind that one object can have many uses. Separate your responses with a comma.",NA,"y",56281,NA,NA,18442,54952,NA,NA,NA,"shoe insert,to slap someone with",1
"5e13859753e8469d270982c0","ioxi3tzsl2","Affordance Norms_Prolific",1,15,"2023-07-27T18:40:47+00:00",40.240396022797,2,"updated stim.csv","Version2.csv","Version 2","List 2","buckwheat",NA,31,4.392857143,668,0.714936931,32,"BOI","-","-","Please name all of the ways you could use this object. Keep in mind that one object can have many uses. Separate your responses with a comma.",NA,"y",39901,NA,NA,6737,38603,NA,NA,NA,"to grow, confetti at a wedding, to trade",1
"5e13859753e8469d270982c0","ioxi3tzsl2","Affordance Norms_Prolific",1,16,"2023-07-27T18:41:39+00:00",51.655053138733,2,"updated stim.csv","Version2.csv","Version 2","List 2","mint",NA,37,4.84,1121,0.199203882,38,"BOI","-","-","Please name all of the ways you could use this object. Keep in mind that one object can have many uses. Separate your responses with a comma.",NA,"y",48306,NA,NA,5783,23906,NA,NA,NA,"suck, chew,freshen breath, as a missile",1
"5e13859753e8469d270982c0","ioxi3tzsl2","Affordance Norms_Prolific",1,17,"2023-07-27T18:42:20+00:00",41.081310033798,2,"updated stim.csv","Version2.csv","Version 2","List 2","rook",NA,39,4.818181818,150,0.478634366,40,"BOI","-","-","Please name all of the ways you could use this object. Keep in mind that one object can have many uses. Separate your responses with a comma.",NA,"y",40575,NA,NA,30652,33761,NA,NA,NA,"pet, ",0.876
"5e13859753e8469d270982c0","ioxi3tzsl2","Affordance Norms_Prolific",1,18,"2023-07-27T18:43:26+00:00",66.101195812225,2,"updated stim.csv","Version2.csv","Version 2","List 2","uncle",NA,57,4.695652174,2762,0.942630662,58,"BOI","-","-","Please name all of the ways you could use this object. Keep in mind that one object can have many uses. Separate your responses with a comma.",NA,"y",65301,NA,NA,7560,63889,NA,NA,NA,"bargaining chip in family dispute, cash machine",1
"5e13859753e8469d270982c0","ioxi3tzsl2","Affordance Norms_Prolific",1,19,"2023-07-27T18:43:46+00:00",20.011041164398,2,"updated stim.csv","Version2.csv","Version 2","List 2","earwax",NA,46,5.19047619,1128,0.679960661,47,"BOI","-","-","Please name all of the ways you could use this object. Keep in mind that one object can have many uses. Separate your responses with a comma.",NA,"y",19629,NA,NA,8886,17380,NA,NA,NA,"disgust people, makeshify glue",1
"5e13859753e8469d270982c0","ioxi3tzsl2","Affordance Norms_Prolific",1,20,"2023-07-27T18:44:08+00:00",22.180563926697,2,"updated stim.csv","Version2.csv","Version 2","List 2","stockbroker",NA,41,6.555555556,281,0.153320127,42,"BOI","-","-","Please name all of the ways you could use this object. Keep in mind that one object can have many uses. Separate your responses with a comma.",NA,"y",21823,NA,NA,6187,20268,NA,NA,NA,"financial advice, lift if your car breaks down",1
"5e13859753e8469d270982c0","ioxi3tzsl2","Affordance Norms_Prolific",1,21,"2023-07-27T18:44:49+00:00",41.214101076126,2,"updated stim.csv","Version2.csv","Version 2","List 2","coverall",NA,32,4.347826087,1757,0.595175497,33,"BOI","-","-","Please name all of the ways you could use this object. Keep in mind that one object can have many uses. Separate your responses with a comma.",NA,"y",40830,NA,NA,12760,39291,NA,NA,NA,"wear, rags, costume at a party,disguise",1
"5e13859753e8469d270982c0","ioxi3tzsl2","Affordance Norms_Prolific",1,22,"2023-07-27T18:51:42+00:00",412.71445584297,2,"updated stim.csv","Version2.csv","Version 2","List 2","footbridge",NA,47,5,1653,0.813855277,48,"BOI","-","-","Please name all of the ways you could use this object. Keep in mind that one object can have many uses. Separate your responses with a comma.",NA,"y",411584,NA,NA,372988,410035,NA,NA,NA,"walk over, raise a toll, set fire to, blow up, as a border",0.78
"5e13859753e8469d270982c0","ioxi3tzsl2","Affordance Norms_Prolific",1,23,"2023-07-27T18:52:10+00:00",27.964131116867,2,"updated stim.csv","Version2.csv","Version 2","List 2","erection",NA,51,4.642857143,2058,0.516126599,52,"BOI","-","-","Please name all of the ways you could use this object. Keep in mind that one object can have many uses. Separate your responses with a comma.",NA,"y",27592,NA,NA,11282,26022,NA,NA,NA,"landmark, shelter, focal point",1
"5e13859753e8469d270982c0","ioxi3tzsl2","Affordance Norms_Prolific",1,24,"2023-07-27T18:52:51+00:00",41.377213954926,2,"updated stim.csv","Version2.csv","Version 2","List 2","knickers",NA,34,5.583333333,2998,0.504476823,35,"BOI","-","-","Please name all of the ways you could use this object. Keep in mind that one object can have many uses. Separate your responses with a comma.",NA,"y",40897,NA,NA,5031,39188,NA,NA,NA,"wear, use as a hat, a flag, catapult",1
"5e13859753e8469d270982c0","ioxi3tzsl2","Affordance Norms_Prolific",1,25,"2023-07-27T18:53:28+00:00",36.189098119736,2,"updated stim.csv","Version2.csv","Version 2","List 2","antiseptics",NA,58,6.074074074,2822,0.498329355,59,"BOI","-","-","Please name all of the ways you could use this object. Keep in mind that one object can have many uses. Separate your responses with a comma.",NA,"y",35837,NA,NA,2698,34086,NA,NA,NA,"to disinfect, poison, drown ants, a moat",1
"5e13859753e8469d270982c0","ioxi3tzsl2","Affordance Norms_Prolific",1,26,"2023-07-27T18:54:27+00:00",59.9076359272,2,"updated stim.csv","Version2.csv","Version 2","List 2","kazoo",NA,59,4.72,89,0.034188339,60,"BOI","-","-","Please name all of the ways you could use this object. Keep in mind that one object can have many uses. Separate your responses with a comma.",NA,"y",59560,NA,NA,2095,58129,NA,NA,NA,"instrument, blowdart projector, mouthpiece for someoen who's stopped breathing",1
"5e13859753e8469d270982c0","ioxi3tzsl2","Affordance Norms_Prolific",1,27,"2023-07-27T18:55:37+00:00",69.667304039001,2,"updated stim.csv","Version2.csv","Version 2","List 2","penknife",NA,38,5.24,2402,0.06527123,39,"BOI","-","-","Please name all of the ways you could use this object. Keep in mind that one object can have many uses. Separate your responses with a comma.",NA,"y",68744,NA,NA,3209,63130,NA,NA,NA,"cutting things, eating with, weapon",1
"5e13859753e8469d270982c0","ioxi3tzsl2","Affordance Norms_Prolific",1,28,"2023-07-27T18:56:22+00:00",44.904775857925,2,"updated stim.csv","Version2.csv","Version 2","List 2","pedicurist",NA,43,6.08,2750,0.595966616,44,"BOI","-","-","Please name all of the ways you could use this object. Keep in mind that one object can have many uses. Separate your responses with a comma.",NA,"y",44425,NA,NA,4703,43085,NA,NA,NA,"looking after my feet, as a chauffeur, a bodyguard, human shield",1
"5e13859753e8469d270982c0","ioxi3tzsl2","Affordance Norms_Prolific",1,29,"2023-07-27T18:57:23+00:00",60.518643140793,2,"updated stim.csv","Version2.csv","Version 2","List 2","clothespin",NA,50,4.739130435,670,0.633267106,51,"BOI","-","-","Please name all of the ways you could use this object. Keep in mind that one object can have many uses. Separate your responses with a comma.",NA,"y",59829,NA,NA,20072,48374,NA,NA,NA,"weapon, secure clothing, substitute nail, ",1
"5e13859753e8469d270982c0","ioxi3tzsl2","Affordance Norms_Prolific",1,30,"2023-07-27T18:58:04+00:00",41.488607883453,2,"updated stim.csv","Version2.csv","Version 2","List 2","croquet",NA,60,5.407407407,2133,0.78433646,61,"BOI","-","-","Please name all of the ways you could use this object. Keep in mind that one object can have many uses. Separate your responses with a comma.",NA,"y",41104,NA,NA,35206,39138,NA,NA,NA,"to bore people with",0.791
"5e13859753e8469d270982c0","ioxi3tzsl2","Affordance Norms_Prolific",1,31,"2023-07-27T18:58:39+00:00",34.969735145569,2,"updated stim.csv","Version2.csv","Version 2","List 2","fern",NA,42,6.32,2642,0.384323611,43,"BOI","-","-","Please name all of the ways you could use this object. Keep in mind that one object can have many uses. Separate your responses with a comma.",NA,"y",34588,NA,NA,5759,33160,NA,NA,NA,"carbon sink, decoration, screening, to tickle someone with",1
"5e13859753e8469d270982c0","ioxi3tzsl2","Affordance Norms_Prolific",1,32,"2023-07-27T19:00:04+00:00",85.079252004623,2,"updated stim.csv","Version2.csv","Version 2","List 2","seashore",NA,40,5.148148148,2799,0.680797852,41,"BOI","-","-","Please name all of the ways you could use this object. Keep in mind that one object can have many uses. Separate your responses with a comma.",NA,"y",84452,NA,NA,5716,82489,NA,NA,NA,"a backdrop to sell seashells, fishing spot, photo backdrop",1
"5e13859753e8469d270982c0","ioxi3tzsl2","Affordance Norms_Prolific",1,33,"2023-07-27T19:00:24+00:00",20.298640966415,2,"updated stim.csv","Version2.csv","Version 2","List 2","marketeer",NA,35,5.464285714,287,0.648959205,36,"BOI","-","-","Please name all of the ways you could use this object. Keep in mind that one object can have many uses. Separate your responses with a comma.",NA,"y",19847,NA,NA,3098,16169,NA,NA,NA,"to scare people from my house with",1
"5e13859753e8469d270982c0","ioxi3tzsl2","Affordance Norms_Prolific",1,34,"2023-07-27T19:01:57+00:00",92.349784851074,2,"updated stim.csv","Version2.csv","Version 2","List 2","granite",NA,52,4.916666667,1137,0.75699281,53,"BOI","-","-","Please name all of the ways you could use this object. Keep in mind that one object can have many uses. Separate your responses with a comma.",NA,"y",24947,NA,NA,2336,22674,NA,NA,NA,"building things, dropping on enemies, hiding behind",1
"5e13859753e8469d270982c0","ioxi3tzsl2","Affordance Norms_Prolific",1,35,"2023-07-27T19:02:48+00:00",51.755479097366,2,"updated stim.csv","Version2.csv","Version 2","List 2","hitchhiker",NA,48,4.52,817,0.223119321,49,"BOI","-","-","Please name all of the ways you could use this object. Keep in mind that one object can have many uses. Separate your responses with a comma.",NA,"y",51396,NA,NA,5684,37368,NA,NA,NA,"giving a lift to, ballast, ",1
"5e13859753e8469d270982c0","ioxi3tzsl2","Affordance Norms_Prolific",1,36,"2023-07-27T19:04:25+00:00",96.493023872375,2,"updated stim.csv","Version2.csv","Version 2","List 2","me",NA,36,5.583333333,2245,0.682973727,37,"BOI","-","-","Please name all of the ways you could use this object. Keep in mind that one object can have many uses. Separate your responses with a comma.",NA,"y",95787,NA,NA,36937,94288,NA,NA,NA,"to write surveys, to talk to, to ask for change if I've run out of cash, for looking for the dog if it runs away again",1
"5e13859753e8469d270982c0","ioxi3tzsl2","Affordance Norms_Prolific",1,37,"2023-07-27T19:04:58+00:00",33.411586999893,2,"updated stim.csv","Version2.csv","Version 2","List 2","swing",NA,45,5.230769231,1323,0.512471955,46,"BOI","-","-","Please name all of the ways you could use this object. Keep in mind that one object can have many uses. Separate your responses with a comma.",NA,"y",32892,NA,NA,5554,31516,NA,NA,NA,"to swing on, swing at attackers, entertain kids",1
"5e13859753e8469d270982c0","ioxi3tzsl2","Affordance Norms_Prolific",1,38,"2023-07-27T19:05:18+00:00",19.236801147461,2,"updated stim.csv","Version2.csv","Version 2","List 2","pulley",NA,49,6.347826087,2994,0.675214554,50,"BOI","-","-","Please name all of the ways you could use this object. Keep in mind that one object can have many uses. Separate your responses with a comma.",NA,"y",18866,NA,NA,2091,17275,NA,NA,NA,"lifting stuff, dropping on people",1
"5e13859753e8469d270982c0","ioxi3tzsl2","Affordance Norms_Prolific",1,39,"2023-07-27T19:06:19+00:00",61.544909000397,2,"updated stim.csv","Version2.csv","Version 2","List 2","debris",NA,33,6.083333333,1497,0.692615167,34,"BOI","-","-","Please name all of the ways you could use this object. Keep in mind that one object can have many uses. Separate your responses with a comma.",NA,"y",60741,NA,NA,29043,59019,NA,NA,NA,"decoration, to deter burglars, stop someone chasing me",1
"5e13859753e8469d270982c0","ioxi3tzsl2","Affordance Norms_Prolific",1,40,"2023-07-27T19:07:24+00:00",64.544294834137,2,"updated stim.csv","Version2.csv","Version 2","List 2","orphan",NA,54,4.96,1201,0.163221051,55,"BOI","-","-","Please name all of the ways you could use this object. Keep in mind that one object can have many uses. Separate your responses with a comma.",NA,"y",63661,NA,NA,27152,62040,NA,NA,NA,"trick people into giving me money, to give to deserving wannabe parents",1
"5e5e7e81381c27000b1e9cba","uo2gt18r5b","Affordance Norms_Prolific",1,11,"2023-07-27T18:35:45+00:00",10.988919973373,1,"updated stim.csv","Version1.csv","Version 1","List 1","straightedge",NA,15,4.666666667,1168,0.129741388,16,"BOI","-","-","Please name all of the ways you could use this object. Keep in mind that one object can have many uses. Separate your responses with a comma.",NA,"y",10390,NA,NA,2899,10143,NA,NA,NA,"ruler, sideboard, book",1
"5e5e7e81381c27000b1e9cba","uo2gt18r5b","Affordance Norms_Prolific",1,12,"2023-07-27T18:36:05+00:00",19.89978313446,1,"updated stim.csv","Version1.csv","Version 1","List 1","upholstery",NA,28,5.142857143,2618,0.332046282,29,"BOI","-","-","Please name all of the ways you could use this object. Keep in mind that one object can have many uses. Separate your responses with a comma.",NA,"y",19094,NA,NA,1608,14868,NA,NA,NA,"furnature, curtains, ",1
"5e5e7e81381c27000b1e9cba","uo2gt18r5b","Affordance Norms_Prolific",1,13,"2023-07-27T18:36:15+00:00",10.413908004761,1,"updated stim.csv","Version1.csv","Version 1","List 1","juror",NA,17,5.481481481,1600,0.476399064,18,"BOI","-","-","Please name all of the ways you could use this object. Keep in mind that one object can have many uses. Separate your responses with a comma.",NA,"y",9753,NA,NA,4304,9523,NA,NA,NA,"law, justice",1
"5e5e7e81381c27000b1e9cba","uo2gt18r5b","Affordance Norms_Prolific",1,14,"2023-07-27T18:36:22+00:00",6.6414759159088,1,"updated stim.csv","Version1.csv","Version 1","List 1","musket",NA,14,4.958333333,2722,0.368202979,15,"BOI","-","-","Please name all of the ways you could use this object. Keep in mind that one object can have many uses. Separate your responses with a comma.",NA,"y",5871,NA,NA,1291,5728,NA,NA,NA,"gun, old, fire, bullet",1
"5e5e7e81381c27000b1e9cba","uo2gt18r5b","Affordance Norms_Prolific",1,15,"2023-07-27T18:36:33+00:00",11.458163022995,1,"updated stim.csv","Version1.csv","Version 1","List 1","crossbar",NA,8,5.454545455,1935,0.125396232,9,"BOI","-","-","Please name all of the ways you could use this object. Keep in mind that one object can have many uses. Separate your responses with a comma.",NA,"y",10820,NA,NA,6106,10279,NA,NA,NA,"stablise, block",1
"5e5e7e81381c27000b1e9cba","uo2gt18r5b","Affordance Norms_Prolific",1,16,"2023-07-27T18:36:40+00:00",6.8082790374756,1,"updated stim.csv","Version1.csv","Version 1","List 1","tapioca",NA,18,4.666666667,1815,0.413937663,19,"BOI","-","-","Please name all of the ways you could use this object. Keep in mind that one object can have many uses. Separate your responses with a comma.",NA,"y",5663,NA,NA,1396,5413,NA,NA,NA,"eat, drink",1
"5e5e7e81381c27000b1e9cba","uo2gt18r5b","Affordance Norms_Prolific",1,17,"2023-07-27T18:36:48+00:00",7.4698498249054,1,"updated stim.csv","Version1.csv","Version 1","List 1","munitions",NA,9,4.875,2448,0.423270691,10,"BOI","-","-","Please name all of the ways you could use this object. Keep in mind that one object can have many uses. Separate your responses with a comma.",NA,"y",7076,NA,NA,3314,6785,NA,NA,NA,"arm, equip",1
"5e5e7e81381c27000b1e9cba","uo2gt18r5b","Affordance Norms_Prolific",1,18,"2023-07-27T18:37:41+00:00",52.898694992065,1,"updated stim.csv","Version1.csv","Version 1","List 1","capacitor",NA,3,5.76,1666,0.330502966,4,"BOI","-","-","Please name all of the ways you could use this object. Keep in mind that one object can have many uses. Separate your responses with a comma.",NA,"y",52107,NA,NA,50626,51671,NA,NA,NA,"holder",1
"5e5e7e81381c27000b1e9cba","uo2gt18r5b","Affordance Norms_Prolific",1,19,"2023-07-27T18:37:45+00:00",4.8226211071014,1,"updated stim.csv","Version1.csv","Version 1","List 1","kumquat",NA,1,4.538461538,764,0.261476603,2,"BOI","-","-","Please name all of the ways you could use this object. Keep in mind that one object can have many uses. Separate your responses with a comma.",NA,"y",4445,NA,NA,4169,4169,NA,NA,NA,".",1
"5e5e7e81381c27000b1e9cba","uo2gt18r5b","Affordance Norms_Prolific",1,20,"2023-07-27T18:37:53+00:00",7.5823581218719,1,"updated stim.csv","Version1.csv","Version 1","List 1","decor",NA,24,5.347826087,469,0.48837589,25,"BOI","-","-","Please name all of the ways you could use this object. Keep in mind that one object can have many uses. Separate your responses with a comma.",NA,"y",6877,NA,NA,1707,6710,NA,NA,NA,"paint, wallpaper, accessories",1
"5e5e7e81381c27000b1e9cba","uo2gt18r5b","Affordance Norms_Prolific",1,21,"2023-07-27T18:37:55+00:00",1.801353931427,1,"updated stim.csv","Version1.csv","Version 1","List 1","gourd",NA,20,5.458333333,2953,0.249710528,21,"BOI","-","-","Please name all of the ways you could use this object. Keep in mind that one object can have many uses. Separate your responses with a comma.",NA,"y",1422,NA,NA,1222,1222,NA,NA,NA,".",1
"5e5e7e81381c27000b1e9cba","uo2gt18r5b","Affordance Norms_Prolific",1,22,"2023-07-27T18:38:02+00:00",7.495306968689,1,"updated stim.csv","Version1.csv","Version 1","List 1","fauna",NA,25,4.333333333,252,0.347548191,26,"BOI","-","-","Please name all of the ways you could use this object. Keep in mind that one object can have many uses. Separate your responses with a comma.",NA,"y",6861,NA,NA,3113,6720,NA,NA,NA,"grass, bush, tree",1
"5e5e7e81381c27000b1e9cba","uo2gt18r5b","Affordance Norms_Prolific",1,23,"2023-07-27T18:38:12+00:00",9.5027589797974,1,"updated stim.csv","Version1.csv","Version 1","List 1","boy",NA,10,6.25,323,0.73335018,11,"BOI","-","-","Please name all of the ways you could use this object. Keep in mind that one object can have many uses. Separate your responses with a comma.",NA,"y",8870,NA,NA,1343,8674,NA,NA,NA,"male, son, father, brother",1
"5e5e7e81381c27000b1e9cba","uo2gt18r5b","Affordance Norms_Prolific",1,24,"2023-07-27T18:38:13+00:00",1.6211810112,1,"updated stim.csv","Version1.csv","Version 1","List 1","hookah",NA,2,6.416666667,2301,0.945985105,3,"BOI","-","-","Please name all of the ways you could use this object. Keep in mind that one object can have many uses. Separate your responses with a comma.",NA,"y",1244,NA,NA,1044,1044,NA,NA,NA,".",1
"5e5e7e81381c27000b1e9cba","uo2gt18r5b","Affordance Norms_Prolific",1,25,"2023-07-27T18:38:26+00:00",12.230773925781,1,"updated stim.csv","Version1.csv","Version 1","List 1","waistcoat",NA,19,5.227272727,1241,0.629851612,20,"BOI","-","-","Please name all of the ways you could use this object. Keep in mind that one object can have many uses. Separate your responses with a comma.",NA,"y",11616,NA,NA,2333,10460,NA,NA,NA,"formal, wedding,",1
"5e5e7e81381c27000b1e9cba","uo2gt18r5b","Affordance Norms_Prolific",1,26,"2023-07-27T18:38:39+00:00",12.852558135986,1,"updated stim.csv","Version1.csv","Version 1","List 1","receptacle",NA,5,5.833333333,1647,0.48521541,6,"BOI","-","-","Please name all of the ways you could use this object. Keep in mind that one object can have many uses. Separate your responses with a comma.",NA,"y",12216,NA,NA,2419,11905,NA,NA,NA,"drinking, holding, filling",1
"5e5e7e81381c27000b1e9cba","uo2gt18r5b","Affordance Norms_Prolific",1,27,"2023-07-27T18:38:41+00:00",1.9432339668274,1,"updated stim.csv","Version1.csv","Version 1","List 1","sod",NA,6,4.375,1389,0.172930083,7,"BOI","-","-","Please name all of the ways you could use this object. Keep in mind that one object can have many uses. Separate your responses with a comma.",NA,"y",1315,NA,NA,1136,1136,NA,NA,NA,".",1
"5e5e7e81381c27000b1e9cba","uo2gt18r5b","Affordance Norms_Prolific",1,28,"2023-07-27T18:38:44+00:00",3.7043478488922,1,"updated stim.csv","Version1.csv","Version 1","List 1","gasket",NA,4,5.416666667,1464,0.391267155,5,"BOI","-","-","Please name all of the ways you could use this object. Keep in mind that one object can have many uses. Separate your responses with a comma.",NA,"y",3338,NA,NA,3133,3133,NA,NA,NA,".",1
"5e5e7e81381c27000b1e9cba","uo2gt18r5b","Affordance Norms_Prolific",1,29,"2023-07-27T18:38:52+00:00",7.5476541519165,1,"updated stim.csv","Version1.csv","Version 1","List 1","kiln",NA,7,6.230769231,308,0.981109369,8,"BOI","-","-","Please name all of the ways you could use this object. Keep in mind that one object can have many uses. Separate your responses with a comma.",NA,"y",6930,NA,NA,1276,6564,NA,NA,NA,"fire, glass, iron",1
"5e5e7e81381c27000b1e9cba","uo2gt18r5b","Affordance Norms_Prolific",1,30,"2023-07-27T18:39:02+00:00",10.388954877853,1,"updated stim.csv","Version1.csv","Version 1","List 1","hailstone",NA,16,5.565217391,1319,0.287274537,17,"BOI","-","-","Please name all of the ways you could use this object. Keep in mind that one object can have many uses. Separate your responses with a comma.",NA,"y",9500,NA,NA,3611,9257,NA,NA,NA,"weather, ice, storm",1
"5e5e7e81381c27000b1e9cba","uo2gt18r5b","Affordance Norms_Prolific",1,31,"2023-07-27T18:39:10+00:00",7.761922121048,1,"updated stim.csv","Version1.csv","Version 1","List 1","cashmere",NA,23,4.84,1448,0.448711971,24,"BOI","-","-","Please name all of the ways you could use this object. Keep in mind that one object can have many uses. Separate your responses with a comma.",NA,"y",7122,NA,NA,1482,6845,NA,NA,NA,"clothing, blanket",1
"5e5e7e81381c27000b1e9cba","uo2gt18r5b","Affordance Norms_Prolific",1,32,"2023-07-27T18:39:15+00:00",5.319591999054,1,"updated stim.csv","Version1.csv","Version 1","List 1","tar",NA,11,5.92,2708,0.629763414,12,"BOI","-","-","Please name all of the ways you could use this object. Keep in mind that one object can have many uses. Separate your responses with a comma.",NA,"y",4808,NA,NA,1865,4637,NA,NA,NA,"road, sticky",1
"5e5e7e81381c27000b1e9cba","uo2gt18r5b","Affordance Norms_Prolific",1,33,"2023-07-27T18:39:17+00:00",2.0372219085693,1,"updated stim.csv","Version1.csv","Version 1","List 1","spool",NA,30,5.64,2491,0.148115672,31,"BOI","-","-","Please name all of the ways you could use this object. Keep in mind that one object can have many uses. Separate your responses with a comma.",NA,"y",1655,NA,NA,1489,1489,NA,NA,NA,".",1
"5e5e7e81381c27000b1e9cba","uo2gt18r5b","Affordance Norms_Prolific",1,34,"2023-07-27T18:39:24+00:00",6.6539790630341,1,"updated stim.csv","Version1.csv","Version 1","List 1","medal",NA,13,4.444444444,1011,0.860315666,14,"BOI","-","-","Please name all of the ways you could use this object. Keep in mind that one object can have many uses. Separate your responses with a comma.",NA,"y",6027,NA,NA,3370,5721,NA,NA,NA,"awarded, worn",1
"5e5e7e81381c27000b1e9cba","uo2gt18r5b","Affordance Norms_Prolific",1,35,"2023-07-27T18:39:30+00:00",5.9132270812988,1,"updated stim.csv","Version1.csv","Version 1","List 1","stirrup",NA,27,5.434782609,1877,0.096670334,28,"BOI","-","-","Please name all of the ways you could use this object. Keep in mind that one object can have many uses. Separate your responses with a comma.",NA,"y",5209,NA,NA,1784,4933,NA,NA,NA,"horses",1
"5e5e7e81381c27000b1e9cba","uo2gt18r5b","Affordance Norms_Prolific",1,36,"2023-07-27T18:39:34+00:00",4.5998120307922,1,"updated stim.csv","Version1.csv","Version 1","List 1","dipstick",NA,22,4.826086957,1618,0.113902737,23,"BOI","-","-","Please name all of the ways you could use this object. Keep in mind that one object can have many uses. Separate your responses with a comma.",NA,"y",4239,NA,NA,1360,3896,NA,NA,NA,"oil, insult",1
"5e5e7e81381c27000b1e9cba","uo2gt18r5b","Affordance Norms_Prolific",1,37,"2023-07-27T18:39:47+00:00",12.951918840408,1,"updated stim.csv","Version1.csv","Version 1","List 1","asshole",NA,29,5.88,1967,0.018459114,30,"BOI","-","-","Please name all of the ways you could use this object. Keep in mind that one object can have many uses. Separate your responses with a comma.",NA,"y",10572,NA,NA,2886,10326,NA,NA,NA,"insult, body part, person",1
"5e5e7e81381c27000b1e9cba","uo2gt18r5b","Affordance Norms_Prolific",1,38,"2023-07-27T18:39:53+00:00",5.2457640171051,1,"updated stim.csv","Version1.csv","Version 1","List 1","jaguar",NA,12,5.777777778,2235,0.168486135,13,"BOI","-","-","Please name all of the ways you could use this object. Keep in mind that one object can have many uses. Separate your responses with a comma.",NA,"y",4227,NA,NA,1695,4026,NA,NA,NA,"animal, car",1
"5e5e7e81381c27000b1e9cba","uo2gt18r5b","Affordance Norms_Prolific",1,39,"2023-07-27T18:40:05+00:00",12.628755092621,1,"updated stim.csv","Version1.csv","Version 1","List 1","packet",NA,26,4.727272727,2510,0.797812576,27,"BOI","-","-","Please name all of the ways you could use this object. Keep in mind that one object can have many uses. Separate your responses with a comma.",NA,"y",11987,NA,NA,5235,11801,NA,NA,NA,".",1
"5e5e7e81381c27000b1e9cba","uo2gt18r5b","Affordance Norms_Prolific",1,40,"2023-07-27T18:40:18+00:00",12.687515974045,1,"updated stim.csv","Version1.csv","Version 1","List 1","aunt",NA,21,4.4,243,0.879020377,22,"BOI","-","-","Please name all of the ways you could use this object. Keep in mind that one object can have many uses. Separate your responses with a comma.",NA,"y",12069,NA,NA,3959,11669,NA,NA,NA,"person, help, friend",1
"5f8dec421f06451776393dc4","2mxzbvj3vd","Affordance Norms_Prolific",1,11,"2023-07-27T18:39:09+00:00",30.57808303833,2,"updated stim.csv","Version2.csv","Version 2","List 2","earwax",NA,46,5.19047619,1128,0.679960661,47,"BOI","-","-","Please name all of the ways you could use this object. Keep in mind that one object can have many uses. Separate your responses with a comma.",NA,"y",29494,NA,NA,5389,27303,NA,NA,NA,"scratch, clean, wipe",1
"5f8dec421f06451776393dc4","2mxzbvj3vd","Affordance Norms_Prolific",1,12,"2023-07-27T18:39:48+00:00",39.8493309021,2,"updated stim.csv","Version2.csv","Version 2","List 2","erection",NA,51,4.642857143,2058,0.516126599,52,"BOI","-","-","Please name all of the ways you could use this object. Keep in mind that one object can have many uses. Separate your responses with a comma.",NA,"y",36247,NA,NA,11934,14708,NA,NA,NA,"penetrate",1
"5f8dec421f06451776393dc4","2mxzbvj3vd","Affordance Norms_Prolific",1,13,"2023-07-27T18:40:17+00:00",28.690829992294,2,"updated stim.csv","Version2.csv","Version 2","List 2","pulley",NA,49,6.347826087,2994,0.675214554,50,"BOI","-","-","Please name all of the ways you could use this object. Keep in mind that one object can have many uses. Separate your responses with a comma.",NA,"y",27504,NA,NA,12339,25402,NA,NA,NA,"carry, transmit",0.906
"5f8dec421f06451776393dc4","2mxzbvj3vd","Affordance Norms_Prolific",1,14,"2023-07-27T18:40:51+00:00",33.616516113281,2,"updated stim.csv","Version2.csv","Version 2","List 2","poker",NA,44,4.826086957,535,0.955772762,45,"BOI","-","-","Please name all of the ways you could use this object. Keep in mind that one object can have many uses. Separate your responses with a comma.",NA,"y",32259,NA,NA,22170,31227,NA,NA,NA,"play, socialize",0.876
"5f8dec421f06451776393dc4","2mxzbvj3vd","Affordance Norms_Prolific",1,15,"2023-07-27T18:41:10+00:00",19.575988054276,2,"updated stim.csv","Version2.csv","Version 2","List 2","mint",NA,37,4.84,1121,0.199203882,38,"BOI","-","-","Please name all of the ways you could use this object. Keep in mind that one object can have many uses. Separate your responses with a comma.",NA,"y",18322,NA,NA,1990,15760,NA,NA,NA,"eat, fresh, clean",1
"5f8dec421f06451776393dc4","2mxzbvj3vd","Affordance Norms_Prolific",1,16,"2023-07-27T18:41:39+00:00",28.423748016357,2,"updated stim.csv","Version2.csv","Version 2","List 2","me",NA,36,5.583333333,2245,0.682973727,37,"BOI","-","-","Please name all of the ways you could use this object. Keep in mind that one object can have many uses. Separate your responses with a comma.",NA,"y",26891,NA,NA,15368,25665,NA,NA,NA,"think, laugh, play, happy",1
"5f8dec421f06451776393dc4","2mxzbvj3vd","Affordance Norms_Prolific",1,17,"2023-07-27T18:42:06+00:00",27.539870977402,2,"updated stim.csv","Version2.csv","Version 2","List 2","swing",NA,45,5.230769231,1323,0.512471955,46,"BOI","-","-","Please name all of the ways you could use this object. Keep in mind that one object can have many uses. Separate your responses with a comma.",NA,"y",26003,NA,NA,2783,21096,NA,NA,NA,"play, ride, socialize",1
"5f8dec421f06451776393dc4","2mxzbvj3vd","Affordance Norms_Prolific",1,18,"2023-07-27T18:42:32+00:00",25.972455978394,2,"updated stim.csv","Version2.csv","Version 2","List 2","crap",NA,53,4.48,245,0.100535723,54,"BOI","-","-","Please name all of the ways you could use this object. Keep in mind that one object can have many uses. Separate your responses with a comma.",NA,"y",23656,NA,NA,14619,22580,NA,NA,NA,"feed plants, grow plants, feed pigs",1
"5f8dec421f06451776393dc4","2mxzbvj3vd","Affordance Norms_Prolific",1,19,"2023-07-27T18:42:49+00:00",16.685318946838,2,"updated stim.csv","Version2.csv","Version 2","List 2","pedicurist",NA,43,6.08,2750,0.595966616,44,"BOI","-","-","Please name all of the ways you could use this object. Keep in mind that one object can have many uses. Separate your responses with a comma.",NA,"y",15570,NA,NA,3776,13911,NA,NA,NA,"clean, hygiene",1
"5f8dec421f06451776393dc4","2mxzbvj3vd","Affordance Norms_Prolific",1,20,"2023-07-27T18:43:15+00:00",25.971039056778,2,"updated stim.csv","Version2.csv","Version 2","List 2","seashore",NA,40,5.148148148,2799,0.680797852,41,"BOI","-","-","Please name all of the ways you could use this object. Keep in mind that one object can have many uses. Separate your responses with a comma.",NA,"y",24667,NA,NA,10115,22891,NA,NA,NA,"sunbathe, fun, socialize, walk on",1
"5f8dec421f06451776393dc4","2mxzbvj3vd","Affordance Norms_Prolific",1,21,"2023-07-27T18:43:47+00:00",32.26352596283,2,"updated stim.csv","Version2.csv","Version 2","List 2","debris",NA,33,6.083333333,1497,0.692615167,34,"BOI","-","-","Please name all of the ways you could use this object. Keep in mind that one object can have many uses. Separate your responses with a comma.",NA,"y",31146,NA,NA,3959,23640,NA,NA,NA,"clean",1
"5f8dec421f06451776393dc4","2mxzbvj3vd","Affordance Norms_Prolific",1,22,"2023-07-27T18:44:06+00:00",18.673027038574,2,"updated stim.csv","Version2.csv","Version 2","List 2","buckwheat",NA,31,4.392857143,668,0.714936931,32,"BOI","-","-","Please name all of the ways you could use this object. Keep in mind that one object can have many uses. Separate your responses with a comma.",NA,"y",17496,NA,NA,10695,16429,NA,NA,NA,"boil, eat, feed animals",0.906
"5f8dec421f06451776393dc4","2mxzbvj3vd","Affordance Norms_Prolific",1,23,"2023-07-27T18:44:22+00:00",16.15407705307,2,"updated stim.csv","Version2.csv","Version 2","List 2","kazoo",NA,59,4.72,89,0.034188339,60,"BOI","-","-","Please name all of the ways you could use this object. Keep in mind that one object can have many uses. Separate your responses with a comma.",NA,"y",14915,NA,NA,10998,13867,NA,NA,NA,"play, make music",0.897
"5f8dec421f06451776393dc4","2mxzbvj3vd","Affordance Norms_Prolific",1,24,"2023-07-27T18:44:39+00:00",16.578212022781,2,"updated stim.csv","Version2.csv","Version 2","List 2","croquet",NA,60,5.407407407,2133,0.78433646,61,"BOI","-","-","Please name all of the ways you could use this object. Keep in mind that one object can have many uses. Separate your responses with a comma.",NA,"y",15387,NA,NA,11535,14359,NA,NA,NA,"play, swing, socialize",0.846
"5f8dec421f06451776393dc4","2mxzbvj3vd","Affordance Norms_Prolific",1,25,"2023-07-27T18:45:20+00:00",41.724017858505,2,"updated stim.csv","Version2.csv","Version 2","List 2","penknife",NA,38,5.24,2402,0.06527123,39,"BOI","-","-","Please name all of the ways you could use this object. Keep in mind that one object can have many uses. Separate your responses with a comma.",NA,"y",40386,NA,NA,18251,39173,NA,NA,NA,"cut, open metals",0.897
"5f8dec421f06451776393dc4","2mxzbvj3vd","Affordance Norms_Prolific",1,26,"2023-07-27T18:45:28+00:00",8.1808280944824,2,"updated stim.csv","Version2.csv","Version 2","List 2","antiseptics",NA,58,6.074074074,2822,0.498329355,59,"BOI","-","-","Please name all of the ways you could use this object. Keep in mind that one object can have many uses. Separate your responses with a comma.",NA,"y",5854,NA,NA,2710,4209,NA,NA,NA,"heal wounds",1
"5f8dec421f06451776393dc4","2mxzbvj3vd","Affordance Norms_Prolific",1,27,"2023-07-27T18:45:51+00:00",22.226791858673,2,"updated stim.csv","Version2.csv","Version 2","List 2","footbridge",NA,47,5,1653,0.813855277,48,"BOI","-","-","Please name all of the ways you could use this object. Keep in mind that one object can have many uses. Separate your responses with a comma.",NA,"y",20956,NA,NA,12985,18227,NA,NA,NA,"cross, walk, join lands",0.855
"5f8dec421f06451776393dc4","2mxzbvj3vd","Affordance Norms_Prolific",1,28,"2023-07-27T18:46:27+00:00",36.373063087463,2,"updated stim.csv","Version2.csv","Version 2","List 2","orphan",NA,54,4.96,1201,0.163221051,55,"BOI","-","-","Please name all of the ways you could use this object. Keep in mind that one object can have many uses. Separate your responses with a comma.",NA,"y",35255,NA,NA,25347,32925,NA,NA,NA,"adopt to families, create playgrounds",1
"5f8dec421f06451776393dc4","2mxzbvj3vd","Affordance Norms_Prolific",1,29,"2023-07-27T18:46:45+00:00",17.561254024506,2,"updated stim.csv","Version2.csv","Version 2","List 2","coverall",NA,32,4.347826087,1757,0.595175497,33,"BOI","-","-","Please name all of the ways you could use this object. Keep in mind that one object can have many uses. Separate your responses with a comma.",NA,"y",16325,NA,NA,7860,15267,NA,NA,NA,"wear, protect self, insulate",0.941
"5f8dec421f06451776393dc4","2mxzbvj3vd","Affordance Norms_Prolific",1,30,"2023-07-27T18:47:05+00:00",20.175250053406,2,"updated stim.csv","Version2.csv","Version 2","List 2","rook",NA,39,4.818181818,150,0.478634366,40,"BOI","-","-","Please name all of the ways you could use this object. Keep in mind that one object can have many uses. Separate your responses with a comma.",NA,"y",17309,NA,NA,12343,14378,NA,NA,NA,"play, socialize",0.839
"5f8dec421f06451776393dc4","2mxzbvj3vd","Affordance Norms_Prolific",1,31,"2023-07-27T18:47:25+00:00",19.876569032669,2,"updated stim.csv","Version2.csv","Version 2","List 2","knickers",NA,34,5.583333333,2998,0.504476823,35,"BOI","-","-","Please name all of the ways you could use this object. Keep in mind that one object can have many uses. Separate your responses with a comma.",NA,"y",18486,NA,NA,6513,17352,NA,NA,NA,"wear, privacy",0.963
"5f8dec421f06451776393dc4","2mxzbvj3vd","Affordance Norms_Prolific",1,32,"2023-07-27T18:47:46+00:00",21.637039899826,2,"updated stim.csv","Version2.csv","Version 2","List 2","clothespin",NA,50,4.739130435,670,0.633267106,51,"BOI","-","-","Please name all of the ways you could use this object. Keep in mind that one object can have many uses. Separate your responses with a comma.",NA,"y",20381,NA,NA,8248,19275,NA,NA,NA,"dry clothes, attach to hold things",0.943
"5f8dec421f06451776393dc4","2mxzbvj3vd","Affordance Norms_Prolific",1,33,"2023-07-27T18:48:03+00:00",17.011450052261,2,"updated stim.csv","Version2.csv","Version 2","List 2","insole",NA,56,4.7,2778,0.883826576,57,"BOI","-","-","Please name all of the ways you could use this object. Keep in mind that one object can have many uses. Separate your responses with a comma.",NA,"y",15651,NA,NA,5074,13319,NA,NA,NA,"foot protection, fix posture",1
"5f8dec421f06451776393dc4","2mxzbvj3vd","Affordance Norms_Prolific",1,34,"2023-07-27T18:48:20+00:00",16.665546894073,2,"updated stim.csv","Version2.csv","Version 2","List 2","blister",NA,55,4.956521739,48,0.731549393,56,"BOI","-","-","Please name all of the ways you could use this object. Keep in mind that one object can have many uses. Separate your responses with a comma.",NA,"y",15151,NA,NA,3122,13175,NA,NA,NA,"pop, dry",1
"5f8dec421f06451776393dc4","2mxzbvj3vd","Affordance Norms_Prolific",1,35,"2023-07-27T18:48:54+00:00",34.198951005936,2,"updated stim.csv","Version2.csv","Version 2","List 2","marketeer",NA,35,5.464285714,287,0.648959205,36,"BOI","-","-","Please name all of the ways you could use this object. Keep in mind that one object can have many uses. Separate your responses with a comma.",NA,"y",32898,NA,NA,11618,24215,NA,NA,NA,"learn",0.95
"5f8dec421f06451776393dc4","2mxzbvj3vd","Affordance Norms_Prolific",1,36,"2023-07-27T18:49:15+00:00",20.776190042496,2,"updated stim.csv","Version2.csv","Version 2","List 2","stockbroker",NA,41,6.555555556,281,0.153320127,42,"BOI","-","-","Please name all of the ways you could use this object. Keep in mind that one object can have many uses. Separate your responses with a comma.",NA,"y",19590,NA,NA,6481,9834,NA,NA,NA,"make money",0.955
"5f8dec421f06451776393dc4","2mxzbvj3vd","Affordance Norms_Prolific",1,37,"2023-07-27T18:49:33+00:00",18.410407066345,2,"updated stim.csv","Version2.csv","Version 2","List 2","hitchhiker",NA,48,4.52,817,0.223119321,49,"BOI","-","-","Please name all of the ways you could use this object. Keep in mind that one object can have many uses. Separate your responses with a comma.",NA,"y",17132,NA,NA,11512,14291,NA,NA,NA,"socialize, help",1
"5f8dec421f06451776393dc4","2mxzbvj3vd","Affordance Norms_Prolific",1,38,"2023-07-27T18:49:56+00:00",23.003151893616,2,"updated stim.csv","Version2.csv","Version 2","List 2","granite",NA,52,4.916666667,1137,0.75699281,53,"BOI","-","-","Please name all of the ways you could use this object. Keep in mind that one object can have many uses. Separate your responses with a comma.",NA,"y",21715,NA,NA,15599,20598,NA,NA,NA,"throw, keep, step on",0.847
"5f8dec421f06451776393dc4","2mxzbvj3vd","Affordance Norms_Prolific",1,39,"2023-07-27T18:50:07+00:00",10.923229932785,2,"updated stim.csv","Version2.csv","Version 2","List 2","uncle",NA,57,4.695652174,2762,0.942630662,58,"BOI","-","-","Please name all of the ways you could use this object. Keep in mind that one object can have many uses. Separate your responses with a comma.",NA,"y",9680,NA,NA,2820,8504,NA,NA,NA,"talk, laugh, help",1
"5f8dec421f06451776393dc4","2mxzbvj3vd","Affordance Norms_Prolific",1,40,"2023-07-27T18:50:34+00:00",26.34633898735,2,"updated stim.csv","Version2.csv","Version 2","List 2","fern",NA,42,6.32,2642,0.384323611,43,"BOI","-","-","Please name all of the ways you could use this object. Keep in mind that one object can have many uses. Separate your responses with a comma.",NA,"y",24379,NA,NA,13513,21806,NA,NA,NA,"touch, grow, feed",0.889
"60b01b5a02438cbc14730934","15azk03pqw","Affordance Norms_Prolific",1,11,"2023-07-27T18:43:20+00:00",74.90901684761,1,"updated stim.csv","Version1.csv","Version 1","List 1","kiln",NA,7,6.230769231,308,0.981109369,8,"BOI","-","-","Please name all of the ways you could use this object. Keep in mind that one object can have many uses. Separate your responses with a comma.",NA,"y",74160,NA,NA,4541,57822,NA,NA,NA,"making pottery, baking, making toilet bowls, burning materials, drying things",1
"60b01b5a02438cbc14730934","15azk03pqw","Affordance Norms_Prolific",1,12,"2023-07-27T18:44:21+00:00",61.385598182678,1,"updated stim.csv","Version1.csv","Version 1","List 1","stirrup",NA,27,5.434782609,1877,0.096670334,28,"BOI","-","-","Please name all of the ways you could use this object. Keep in mind that one object can have many uses. Separate your responses with a comma.",NA,"y",60673,NA,NA,7917,58666,NA,NA,NA,"horse riding for putting feet in, decorative item for home, potato masher",1
"60b01b5a02438cbc14730934","15azk03pqw","Affordance Norms_Prolific",1,13,"2023-07-27T18:44:47+00:00",25.710469007492,1,"updated stim.csv","Version1.csv","Version 1","List 1","musket",NA,14,4.958333333,2722,0.368202979,15,"BOI","-","-","Please name all of the ways you could use this object. Keep in mind that one object can have many uses. Separate your responses with a comma.",NA,"y",25303,NA,NA,7561,23376,NA,NA,NA,"shooting, decorative wall hanging, museum item",1
"60b01b5a02438cbc14730934","15azk03pqw","Affordance Norms_Prolific",1,14,"2023-07-27T18:45:33+00:00",46.291009902954,1,"updated stim.csv","Version1.csv","Version 1","List 1","upholstery",NA,28,5.142857143,2618,0.332046282,29,"BOI","-","-","Please name all of the ways you could use this object. Keep in mind that one object can have many uses. Separate your responses with a comma.",NA,"y",45858,NA,NA,5357,38549,NA,NA,NA,"covering sofas, chairs, headboards, covering train and airplane seats",1
"60b01b5a02438cbc14730934","15azk03pqw","Affordance Norms_Prolific",1,15,"2023-07-27T18:46:02+00:00",28.931024074554,1,"updated stim.csv","Version1.csv","Version 1","List 1","crossbar",NA,8,5.454545455,1935,0.125396232,9,"BOI","-","-","Please name all of the ways you could use this object. Keep in mind that one object can have many uses. Separate your responses with a comma.",NA,"y",28479,NA,NA,4876,27208,NA,NA,NA,"strengthening structures, on bikes, on furniture",1
"60b01b5a02438cbc14730934","15azk03pqw","Affordance Norms_Prolific",1,16,"2023-07-27T18:46:51+00:00",48.967638969421,1,"updated stim.csv","Version1.csv","Version 1","List 1","juror",NA,17,5.481481481,1600,0.476399064,18,"BOI","-","-","Please name all of the ways you could use this object. Keep in mind that one object can have many uses. Separate your responses with a comma.",NA,"y",48530,NA,NA,4424,18855,NA,NA,NA,"making decisions of guilt, innocence, ",1
"60b01b5a02438cbc14730934","15azk03pqw","Affordance Norms_Prolific",1,17,"2023-07-27T18:47:09+00:00",18.319196939468,1,"updated stim.csv","Version1.csv","Version 1","List 1","tapioca",NA,18,4.666666667,1815,0.413937663,19,"BOI","-","-","Please name all of the ways you could use this object. Keep in mind that one object can have many uses. Separate your responses with a comma.",NA,"y",17865,NA,NA,3629,16688,NA,NA,NA,"making pudding, bubble tea",1
"60b01b5a02438cbc14730934","15azk03pqw","Affordance Norms_Prolific",1,18,"2023-07-27T18:47:49+00:00",39.60217499733,1,"updated stim.csv","Version1.csv","Version 1","List 1","asshole",NA,29,5.88,1967,0.018459114,30,"BOI","-","-","Please name all of the ways you could use this object. Keep in mind that one object can have many uses. Separate your responses with a comma.",NA,"y",39167,NA,NA,26319,31853,NA,NA,NA,"pooping, sex",1
"60b01b5a02438cbc14730934","15azk03pqw","Affordance Norms_Prolific",1,19,"2023-07-27T18:48:56+00:00",67.16509103775,1,"updated stim.csv","Version1.csv","Version 1","List 1","munitions",NA,9,4.875,2448,0.423270691,10,"BOI","-","-","Please name all of the ways you could use this object. Keep in mind that one object can have many uses. Separate your responses with a comma.",NA,"y",66390,NA,NA,6836,64967,NA,NA,NA,"loading into weapons, trading, making agreements and political decisions, stockpiling, threatening",1
"60b01b5a02438cbc14730934","15azk03pqw","Affordance Norms_Prolific",1,20,"2023-07-27T18:49:22+00:00",25.353940963745,1,"updated stim.csv","Version1.csv","Version 1","List 1","sod",NA,6,4.375,1389,0.172930083,7,"BOI","-","-","Please name all of the ways you could use this object. Keep in mind that one object can have many uses. Separate your responses with a comma.",NA,"y",24940,NA,NA,19976,22886,NA,NA,NA,"laying lawn",0.886
"60b01b5a02438cbc14730934","15azk03pqw","Affordance Norms_Prolific",1,21,"2023-07-27T18:50:18+00:00",56.753557920456,1,"updated stim.csv","Version1.csv","Version 1","List 1","fauna",NA,25,4.333333333,252,0.347548191,26,"BOI","-","-","Please name all of the ways you could use this object. Keep in mind that one object can have many uses. Separate your responses with a comma.",NA,"y",56314,NA,NA,15137,55148,NA,NA,NA,"food, transport, as pets, as companions, medical experiments, entertainment, ecosystem functioning, pest control",1
"60b01b5a02438cbc14730934","15azk03pqw","Affordance Norms_Prolific",1,22,"2023-07-27T18:51:23+00:00",64.320308208466,1,"updated stim.csv","Version1.csv","Version 1","List 1","aunt",NA,21,4.4,243,0.879020377,22,"BOI","-","-","Please name all of the ways you could use this object. Keep in mind that one object can have many uses. Separate your responses with a comma.",NA,"y",63571,NA,NA,8018,62143,NA,NA,NA,"baby sitting, someone to talk to, someone to ask for help, visiting, have fun with",1
"60b01b5a02438cbc14730934","15azk03pqw","Affordance Norms_Prolific",1,23,"2023-07-27T18:52:02+00:00",38.918572902679,1,"updated stim.csv","Version1.csv","Version 1","List 1","hailstone",NA,16,5.565217391,1319,0.287274537,17,"BOI","-","-","Please name all of the ways you could use this object. Keep in mind that one object can have many uses. Separate your responses with a comma.",NA,"y",38470,NA,NA,8032,18991,NA,NA,NA,"missile, excuse not to go outside, ",1
"60b01b5a02438cbc14730934","15azk03pqw","Affordance Norms_Prolific",1,24,"2023-07-27T18:53:07+00:00",65.04015994072,1,"updated stim.csv","Version1.csv","Version 1","List 1","packet",NA,26,4.727272727,2510,0.797812576,27,"BOI","-","-","Please name all of the ways you could use this object. Keep in mind that one object can have many uses. Separate your responses with a comma.",NA,"y",64263,NA,NA,34587,62198,NA,NA,NA,"put food in, put small items in, open, close, dispose of, recycle",1
"60b01b5a02438cbc14730934","15azk03pqw","Affordance Norms_Prolific",1,25,"2023-07-27T18:54:25+00:00",78.505051136017,1,"updated stim.csv","Version1.csv","Version 1","List 1","boy",NA,10,6.25,323,0.73335018,11,"BOI","-","-","Please name all of the ways you could use this object. Keep in mind that one object can have many uses. Separate your responses with a comma.",NA,"y",77202,NA,NA,7729,43179,NA,NA,NA,"son, nephew, grandchild, cousin, to play with, a friend, ",1
"60b01b5a02438cbc14730934","15azk03pqw","Affordance Norms_Prolific",1,26,"2023-07-27T18:55:29+00:00",64.36953997612,1,"updated stim.csv","Version1.csv","Version 1","List 1","straightedge",NA,15,4.666666667,1168,0.129741388,16,"BOI","-","-","Please name all of the ways you could use this object. Keep in mind that one object can have many uses. Separate your responses with a comma.",NA,"y",63527,NA,NA,6160,62162,NA,NA,NA,"drawing lines, measuring, lining things up against, aid to cut straight ",1
"60b01b5a02438cbc14730934","15azk03pqw","Affordance Norms_Prolific",1,27,"2023-07-27T18:56:02+00:00",32.860668897629,1,"updated stim.csv","Version1.csv","Version 1","List 1","decor",NA,24,5.347826087,469,0.48837589,25,"BOI","-","-","Please name all of the ways you could use this object. Keep in mind that one object can have many uses. Separate your responses with a comma.",NA,"y",32448,NA,NA,10174,23811,NA,NA,NA,"make a place look nice or different, ",1
"60b01b5a02438cbc14730934","15azk03pqw","Affordance Norms_Prolific",1,28,"2023-07-27T18:56:26+00:00",24.162162065506,1,"updated stim.csv","Version1.csv","Version 1","List 1","capacitor",NA,3,5.76,1666,0.330502966,4,"BOI","-","-","Please name all of the ways you could use this object. Keep in mind that one object can have many uses. Separate your responses with a comma.",NA,"y",23723,NA,NA,3960,21104,NA,NA,NA,"electronic component, in the delorian",1
"60b01b5a02438cbc14730934","15azk03pqw","Affordance Norms_Prolific",1,29,"2023-07-27T18:57:25+00:00",58.917335033417,1,"updated stim.csv","Version1.csv","Version 1","List 1","medal",NA,13,4.444444444,1011,0.860315666,14,"BOI","-","-","Please name all of the ways you could use this object. Keep in mind that one object can have many uses. Separate your responses with a comma.",NA,"y",58513,NA,NA,3039,57441,NA,NA,NA,"to reward, to mark acheivement, to present to someone, to wear, to show off to others, to display at home",1
"60b01b5a02438cbc14730934","15azk03pqw","Affordance Norms_Prolific",1,30,"2023-07-27T18:58:03+00:00",37.253579854965,1,"updated stim.csv","Version1.csv","Version 1","List 1","dipstick",NA,22,4.826086957,1618,0.113902737,23,"BOI","-","-","Please name all of the ways you could use this object. Keep in mind that one object can have many uses. Separate your responses with a comma.",NA,"y",36813,NA,NA,3033,24873,NA,NA,NA,"to measure oil levels, measure fluid levels, test urine or blood, ",1
"60b01b5a02438cbc14730934","15azk03pqw","Affordance Norms_Prolific",1,31,"2023-07-27T18:58:58+00:00",55.662472009659,1,"updated stim.csv","Version1.csv","Version 1","List 1","waistcoat",NA,19,5.227272727,1241,0.629851612,20,"BOI","-","-","Please name all of the ways you could use this object. Keep in mind that one object can have many uses. Separate your responses with a comma.",NA,"y",55221,NA,NA,2547,52237,NA,NA,NA,"to wear, for weddings, for performers to wear",1
"60b01b5a02438cbc14730934","15azk03pqw","Affordance Norms_Prolific",1,32,"2023-07-27T18:59:33+00:00",34.431092023849,1,"updated stim.csv","Version1.csv","Version 1","List 1","spool",NA,30,5.64,2491,0.148115672,31,"BOI","-","-","Please name all of the ways you could use this object. Keep in mind that one object can have many uses. Separate your responses with a comma.",NA,"y",33951,NA,NA,3912,28831,NA,NA,NA,"to keep cotton on, to keep film or photography film on, ",1
"60b01b5a02438cbc14730934","15azk03pqw","Affordance Norms_Prolific",1,33,"2023-07-27T18:59:59+00:00",26.645380973816,1,"updated stim.csv","Version1.csv","Version 1","List 1","jaguar",NA,12,5.777777778,2235,0.168486135,13,"BOI","-","-","Please name all of the ways you could use this object. Keep in mind that one object can have many uses. Separate your responses with a comma.",NA,"y",26187,NA,NA,14108,24501,NA,NA,NA,"to appreciate in wild, to educate",1
"60b01b5a02438cbc14730934","15azk03pqw","Affordance Norms_Prolific",1,34,"2023-07-27T19:01:40+00:00",100.60996413231,1,"updated stim.csv","Version1.csv","Version 1","List 1","cashmere",NA,23,4.84,1448,0.448711971,24,"BOI","-","-","Please name all of the ways you could use this object. Keep in mind that one object can have many uses. Separate your responses with a comma.",NA,"y",94811,NA,NA,4062,93584,NA,NA,NA,"to make clothes, jumpers, to sell, to trade, to keep warm",1
"60b01b5a02438cbc14730934","15azk03pqw","Affordance Norms_Prolific",1,35,"2023-07-27T19:02:42+00:00",62.344908952713,1,"updated stim.csv","Version1.csv","Version 1","List 1","kumquat",NA,1,4.538461538,764,0.261476603,2,"BOI","-","-","Please name all of the ways you could use this object. Keep in mind that one object can have many uses. Separate your responses with a comma.",NA,"y",61523,NA,NA,43014,52513,NA,NA,NA,"to eat, to throw, to cook with",1
"60b01b5a02438cbc14730934","15azk03pqw","Affordance Norms_Prolific",1,36,"2023-07-27T19:03:16+00:00",33.766015052795,1,"updated stim.csv","Version1.csv","Version 1","List 1","gourd",NA,20,5.458333333,2953,0.249710528,21,"BOI","-","-","Please name all of the ways you could use this object. Keep in mind that one object can have many uses. Separate your responses with a comma.",NA,"y",33344,NA,NA,23153,31020,NA,NA,NA,"to eat, to cook with",0.849
"60b01b5a02438cbc14730934","15azk03pqw","Affordance Norms_Prolific",1,37,"2023-07-27T19:03:48+00:00",31.908504009247,1,"updated stim.csv","Version1.csv","Version 1","List 1","hookah",NA,2,6.416666667,2301,0.945985105,3,"BOI","-","-","Please name all of the ways you could use this object. Keep in mind that one object can have many uses. Separate your responses with a comma.",NA,"y",31467,NA,NA,24809,27054,NA,NA,NA,"for smoking",0.84
"60b01b5a02438cbc14730934","15azk03pqw","Affordance Norms_Prolific",1,38,"2023-07-27T19:05:30+00:00",101.63462686539,1,"updated stim.csv","Version1.csv","Version 1","List 1","receptacle",NA,5,5.833333333,1647,0.48521541,6,"BOI","-","-","Please name all of the ways you could use this object. Keep in mind that one object can have many uses. Separate your responses with a comma.",NA,"y",100923,NA,NA,2621,99909,NA,NA,NA,"to hold liquids, to hold dry ingredients e.g. flour, rice, to hold small objects, cup holder",1
"60b01b5a02438cbc14730934","15azk03pqw","Affordance Norms_Prolific",1,39,"2023-07-27T19:05:53+00:00",23.608548164368,1,"updated stim.csv","Version1.csv","Version 1","List 1","tar",NA,11,5.92,2708,0.629763414,12,"BOI","-","-","Please name all of the ways you could use this object. Keep in mind that one object can have many uses. Separate your responses with a comma.",NA,"y",23202,NA,NA,3670,17821,NA,NA,NA,"covering roads and driveways, to coat barrells, ",1
"60b01b5a02438cbc14730934","15azk03pqw","Affordance Norms_Prolific",1,40,"2023-07-27T19:06:07+00:00",14.049158811569,1,"updated stim.csv","Version1.csv","Version 1","List 1","gasket",NA,4,5.416666667,1464,0.391267155,5,"BOI","-","-","Please name all of the ways you could use this object. Keep in mind that one object can have many uses. Separate your responses with a comma.",NA,"y",12631,NA,NA,3534,11556,NA,NA,NA,"in a car or machines",1
"60ca6d332749493cf6326ab6","t13jo92q0l","Affordance Norms_Prolific",1,11,"2023-07-27T18:23:15+00:00",8.645486831665,1,"updated stim.csv","Version1.csv","Version 1","List 1","medal",NA,13,4.444444444,1011,0.860315666,14,"BOI","-","-","Please name all of the ways you could use this object. Keep in mind that one object can have many uses. Separate your responses with a comma.",NA,"y",7783,NA,NA,1140,7678,NA,NA,NA,"worn, awarded, dangled, displayed",1
"60ca6d332749493cf6326ab6","t13jo92q0l","Affordance Norms_Prolific",1,12,"2023-07-27T18:23:19+00:00",3.1475870609283,1,"updated stim.csv","Version1.csv","Version 1","List 1","receptacle",NA,5,5.833333333,1647,0.48521541,6,"BOI","-","-","Please name all of the ways you could use this object. Keep in mind that one object can have many uses. Separate your responses with a comma.",NA,"y",2728,NA,NA,-1,-1,NA,NA,NA,"",1
"60ca6d332749493cf6326ab6","t13jo92q0l","Affordance Norms_Prolific",1,13,"2023-07-27T18:23:25+00:00",6.3792760372162,1,"updated stim.csv","Version1.csv","Version 1","List 1","tapioca",NA,18,4.666666667,1815,0.413937663,19,"BOI","-","-","Please name all of the ways you could use this object. Keep in mind that one object can have many uses. Separate your responses with a comma.",NA,"y",5953,NA,NA,1266,5838,NA,NA,NA,"cooked, eaten, crushed",1
"60ca6d332749493cf6326ab6","t13jo92q0l","Affordance Norms_Prolific",1,14,"2023-07-27T18:23:31+00:00",6.5299360752106,1,"updated stim.csv","Version1.csv","Version 1","List 1","aunt",NA,21,4.4,243,0.879020377,22,"BOI","-","-","Please name all of the ways you could use this object. Keep in mind that one object can have many uses. Separate your responses with a comma.",NA,"y",6106,NA,NA,3868,6000,NA,NA,NA,"hugged, loved",1
"60ca6d332749493cf6326ab6","t13jo92q0l","Affordance Norms_Prolific",1,15,"2023-07-27T18:23:34+00:00",2.1843218803406,1,"updated stim.csv","Version1.csv","Version 1","List 1","straightedge",NA,15,4.666666667,1168,0.129741388,16,"BOI","-","-","Please name all of the ways you could use this object. Keep in mind that one object can have many uses. Separate your responses with a comma.",NA,"y",1723,NA,NA,-1,-1,NA,NA,NA,"",1
"60ca6d332749493cf6326ab6","t13jo92q0l","Affordance Norms_Prolific",1,16,"2023-07-27T18:23:38+00:00",4.1915321350098,1,"updated stim.csv","Version1.csv","Version 1","List 1","kiln",NA,7,6.230769231,308,0.981109369,8,"BOI","-","-","Please name all of the ways you could use this object. Keep in mind that one object can have many uses. Separate your responses with a comma.",NA,"y",3755,NA,NA,2684,3642,NA,NA,NA,"heated",1
"60ca6d332749493cf6326ab6","t13jo92q0l","Affordance Norms_Prolific",1,17,"2023-07-27T18:23:43+00:00",5.6198499202728,1,"updated stim.csv","Version1.csv","Version 1","List 1","spool",NA,30,5.64,2491,0.148115672,31,"BOI","-","-","Please name all of the ways you could use this object. Keep in mind that one object can have many uses. Separate your responses with a comma.",NA,"y",5182,NA,NA,2787,5093,NA,NA,NA,"spun, held",1
"60ca6d332749493cf6326ab6","t13jo92q0l","Affordance Norms_Prolific",1,18,"2023-07-27T18:23:53+00:00",9.5476861000061,1,"updated stim.csv","Version1.csv","Version 1","List 1","asshole",NA,29,5.88,1967,0.018459114,30,"BOI","-","-","Please name all of the ways you could use this object. Keep in mind that one object can have many uses. Separate your responses with a comma.",NA,"y",9118,NA,NA,6178,9001,NA,NA,NA,"touched, entered",1
"60ca6d332749493cf6326ab6","t13jo92q0l","Affordance Norms_Prolific",1,19,"2023-07-27T18:23:58+00:00",4.7402429580688,1,"updated stim.csv","Version1.csv","Version 1","List 1","dipstick",NA,22,4.826086957,1618,0.113902737,23,"BOI","-","-","Please name all of the ways you could use this object. Keep in mind that one object can have many uses. Separate your responses with a comma.",NA,"y",4331,NA,NA,-1,-1,NA,NA,NA,"",1
"60ca6d332749493cf6326ab6","t13jo92q0l","Affordance Norms_Prolific",1,20,"2023-07-27T18:24:08+00:00",10.335360050201,1,"updated stim.csv","Version1.csv","Version 1","List 1","hookah",NA,2,6.416666667,2301,0.945985105,3,"BOI","-","-","Please name all of the ways you could use this object. Keep in mind that one object can have many uses. Separate your responses with a comma.",NA,"y",9918,NA,NA,1637,9793,NA,NA,NA,"smoked, sucked, ignited",1
"60ca6d332749493cf6326ab6","t13jo92q0l","Affordance Norms_Prolific",1,21,"2023-07-27T18:24:12+00:00",3.8909208774567,1,"updated stim.csv","Version1.csv","Version 1","List 1","gourd",NA,20,5.458333333,2953,0.249710528,21,"BOI","-","-","Please name all of the ways you could use this object. Keep in mind that one object can have many uses. Separate your responses with a comma.",NA,"y",3435,NA,NA,1414,3218,NA,NA,NA,"cooked, grown",1
"60ca6d332749493cf6326ab6","t13jo92q0l","Affordance Norms_Prolific",1,22,"2023-07-27T18:24:20+00:00",7.7052829265594,1,"updated stim.csv","Version1.csv","Version 1","List 1","packet",NA,26,4.727272727,2510,0.797812576,27,"BOI","-","-","Please name all of the ways you could use this object. Keep in mind that one object can have many uses. Separate your responses with a comma.",NA,"y",7275,NA,NA,1330,7126,NA,NA,NA,"opened, closed, crumpled",1
"60ca6d332749493cf6326ab6","t13jo92q0l","Affordance Norms_Prolific",1,23,"2023-07-27T18:24:25+00:00",4.9017181396484,1,"updated stim.csv","Version1.csv","Version 1","List 1","waistcoat",NA,19,5.227272727,1241,0.629851612,20,"BOI","-","-","Please name all of the ways you could use this object. Keep in mind that one object can have many uses. Separate your responses with a comma.",NA,"y",4494,NA,NA,986,4406,NA,NA,NA,"worn, ironed, washed",1
"60ca6d332749493cf6326ab6","t13jo92q0l","Affordance Norms_Prolific",1,24,"2023-07-27T18:24:36+00:00",11.144896030426,1,"updated stim.csv","Version1.csv","Version 1","List 1","boy",NA,10,6.25,323,0.73335018,11,"BOI","-","-","Please name all of the ways you could use this object. Keep in mind that one object can have many uses. Separate your responses with a comma.",NA,"y",10727,NA,NA,2655,5858,NA,NA,NA,"hugged, talked to",1
