Username,ID,ExperimentName,Session,Trial,Date,TimeDif,"Condition Number","Stimuli File","Order File","Condition Description","Condition Notes",Stimuli*Cue,Stimuli*Answer,Stimuli*Shuffle,"Stimuli*Stimuli Notes",Stimuli*Value,Procedure*Item,"Procedure*Trial Type","Procedure*Max Time","Procedure*Min Time",Procedure*Text,"Procedure*Procedure Notes",Procedure*Shuffle,Response*RT,Response*Response,Response*Accuracy,Response*RTfirst,Response*RTlast,Response*strictAcc,Response*lenientAcc,Response*focus,Response*JOL,Response*Focus
edwardiannone,i6ymq4w8zs,"Affordance Norms_clemson",1,1,2022-11-09T17:19:13+00:00,10.725900173187,14,"updated stim.csv",Version14.csv,"Version 14","List 14",,,,,,0,Instruct,-,10,"In this section, you will be presented with a series of objects. Please name as many possible uses for this object as you can think of by typing them in the box below each object.",,Instruct1,10631,,,-1,-1,,,,,1
edwardiannone,i6ymq4w8zs,"Affordance Norms_clemson",1,2,2022-11-09T17:19:27+00:00,13.987315893173,14,"updated stim.csv",Version14.csv,"Version 14","List 14",,,,,,0,Instruct,-,10,"Please keep in mind that a single object will have more than one use. For example, a ball can be thrown or can be bounced or even stepped on. When listing multiple uses for one object, please separate each use with a comma (i.e., thrown, bounced, stepped on)",,Instruct2,13864,,,-1,-1,,,,,1
edwardiannone,i6ymq4w8zs,"Affordance Norms_clemson",1,3,2022-11-09T17:21:28+00:00,120.40110301971,14,"updated stim.csv",Version14.csv,"Version 14","List 14",,,,,,0,Instruct,-,-,"Before starting the experiment, you will complete a short practice sesstion. Press ENTER when you are ready to begin.",,Instruct3,120093,,,-1,-1,,,,,0.201
edwardiannone,i6ymq4w8zs,"Affordance Norms_clemson",1,4,2022-11-09T17:22:10+00:00,42.4274289608,14,"updated stim.csv",Version14.csv,"Version 14","List 14",shortening,,3002,4.92,2358,3003,BOI,-,-,"Please name all of the ways you could use this object. Keep in mind that one object can have many uses. Separate your responses with a comma.",,n,42188,,,7568,19470,,,,"decrease, rope, height, ",1
edwardiannone,i6ymq4w8zs,"Affordance Norms_clemson",1,5,2022-11-09T17:22:56+00:00,46.455926179886,14,"updated stim.csv",Version14.csv,"Version 14","List 14",saucer,,3005,5.777777778,2249,3006,BOI,-,-,"Please name all of the ways you could use this object. Keep in mind that one object can have many uses. Separate your responses with a comma.",,n,45932,,,18307,44751,,,,"create, combine, stir, sauce, dice",1
edwardiannone,i6ymq4w8zs,"Affordance Norms_clemson",1,6,2022-11-09T17:23:33+00:00,36.268117904663,14,"updated stim.csv",Version14.csv,"Version 14","List 14",paperwork,,3001,5.625,1866,3002,BOI,-,-,"Please name all of the ways you could use this object. Keep in mind that one object can have many uses. Separate your responses with a comma.",,n,35834,,,2180,29767,,,,"complete, burn, finish, start, work, study, job, school, police, ",1
edwardiannone,i6ymq4w8zs,"Affordance Norms_clemson",1,7,2022-11-09T17:24:03+00:00,30.509898900986,14,"updated stim.csv",Version14.csv,"Version 14","List 14",spaghetti,,3003,6,2461,3004,BOI,-,-,"Please name all of the ways you could use this object. Keep in mind that one object can have many uses. Separate your responses with a comma.",,n,30288,,,2421,23328,,,,"eat, stir, throw, cut, touch, taste, spread, ",1
edwardiannone,i6ymq4w8zs,"Affordance Norms_clemson",1,8,2022-11-09T17:24:25+00:00,21.313971996307,14,"updated stim.csv",Version14.csv,"Version 14","List 14",grain,,3004,5.217391304,1143,3005,BOI,-,-,"Please name all of the ways you could use this object. Keep in mind that one object can have many uses. Separate your responses with a comma.",,n,21116,,,19347,19936,,,,rice,1
edwardiannone,i6ymq4w8zs,"Affordance Norms_clemson",1,9,2022-11-09T17:24:27+00:00,2.2015202045441,14,"updated stim.csv",Version14.csv,"Version 14","List 14",,,,,,0,Instruct,-,-,"You have completed this section. Press ENTER to continue",,"Instruct 5",2087,,,-1,-1,,,,,1
edwardiannone,i6ymq4w8zs,"Affordance Norms_clemson",1,10,2022-11-09T17:24:30+00:00,3.2670648097992,14,"updated stim.csv",Version14.csv,"Version 14","List 14",,,,,,0,Instruct,-,-,"You will now start the full experiment. Press ENTER when you are ready to begin.",,,3143,,,-1,-1,,,,,1
edwardiannone,i6ymq4w8zs,"Affordance Norms_clemson",1,11,2022-11-09T17:24:54+00:00,23.571349143982,14,"updated stim.csv",Version14.csv,"Version 14","List 14",crayon,,394,6.36,687,395,BOI,-,-,"Please name all of the ways you could use this object. Keep in mind that one object can have many uses. Separate your responses with a comma.",,y,23238,,,2122,21611,,,,"draw, color, throw, break, smell, draw,",1
edwardiannone,i6ymq4w8zs,"Affordance Norms_clemson",1,12,2022-11-09T17:25:32+00:00,38.13178896904,14,"updated stim.csv",Version14.csv,"Version 14","List 14",suede,,391,5,2579,392,BOI,-,-,"Please name all of the ways you could use this object. Keep in mind that one object can have many uses. Separate your responses with a comma.",,y,37924,,,31899,36206,,,,"leather, shoes ",1
edwardiannone,i6ymq4w8zs,"Affordance Norms_clemson",1,13,2022-11-09T17:25:50+00:00,18.647747039795,14,"updated stim.csv",Version14.csv,"Version 14","List 14",turnip,,412,6.12,2802,413,BOI,-,-,"Please name all of the ways you could use this object. Keep in mind that one object can have many uses. Separate your responses with a comma.",,y,18521,,,4600,17701,,,,"farm, eat, throw, cook, smell ",1
edwardiannone,i6ymq4w8zs,"Affordance Norms_clemson",1,14,2022-11-09T17:26:34+00:00,43.506889820099,14,"updated stim.csv",Version14.csv,"Version 14","List 14",granddaughter,,392,5,1146,393,BOI,-,-,"Please name all of the ways you could use this object. Keep in mind that one object can have many uses. Separate your responses with a comma.",,y,43307,,,2973,42263,,,,"love, ",1
edwardiannone,i6ymq4w8zs,"Affordance Norms_clemson",1,15,2022-11-09T17:27:05+00:00,30.94115114212,14,"updated stim.csv",Version14.csv,"Version 14","List 14",broker,,404,4.464285714,330,405,BOI,-,-,"Please name all of the ways you could use this object. Keep in mind that one object can have many uses. Separate your responses with a comma.",,y,30747,,,19117,28688,,,,"buys, sells, analyzes",1
edwardiannone,i6ymq4w8zs,"Affordance Norms_clemson",1,16,2022-11-09T17:27:25+00:00,20.278073072433,14,"updated stim.csv",Version14.csv,"Version 14","List 14",booth,,403,4.92,282,404,BOI,-,-,"Please name all of the ways you could use this object. Keep in mind that one object can have many uses. Separate your responses with a comma.",,y,19864,,,2806,18863,,,,"sit, photos, kiss",1
edwardiannone,i6ymq4w8zs,"Affordance Norms_clemson",1,17,2022-11-09T17:27:37+00:00,12.394195795059,14,"updated stim.csv",Version14.csv,"Version 14","List 14",hamstring,,408,5.08,1227,409,BOI,-,-,"Please name all of the ways you could use this object. Keep in mind that one object can have many uses. Separate your responses with a comma.",,y,12263,,,1868,8080,,,,"pull, stretch ",1
edwardiannone,i6ymq4w8zs,"Affordance Norms_clemson",1,18,2022-11-09T17:28:12+00:00,34.879616975784,14,"updated stim.csv",Version14.csv,"Version 14","List 14",author,,398,4.4,99,399,BOI,-,-,"Please name all of the ways you could use this object. Keep in mind that one object can have many uses. Separate your responses with a comma.",,y,34679,,,3931,34016,,,,"writes, story teller, creates",1
edwardiannone,i6ymq4w8zs,"Affordance Norms_clemson",1,19,2022-11-09T17:28:51+00:00,38.959826231003,14,"updated stim.csv",Version14.csv,"Version 14","List 14",fisherman,,418,4.851851852,991,419,BOI,-,-,"Please name all of the ways you could use this object. Keep in mind that one object can have many uses. Separate your responses with a comma.",,y,38750,,,2115,26256,,,,"fishes, cut, throw, ",1
edwardiannone,i6ymq4w8zs,"Affordance Norms_clemson",1,20,2022-11-09T17:32:01+00:00,190.17000579834,14,"updated stim.csv",Version14.csv,"Version 14","List 14",vagina,,399,6.041666667,2832,400,BOI,-,-,"Please name all of the ways you could use this object. Keep in mind that one object can have many uses. Separate your responses with a comma.",,y,189940,,,179711,188980,,,,"sex, reproduction, mating",1
edwardiannone,i6ymq4w8zs,"Affordance Norms_clemson",1,21,2022-11-09T17:32:30+00:00,28.477377176285,14,"updated stim.csv",Version14.csv,"Version 14","List 14",clip,,406,4.833333333,560,407,BOI,-,-,"Please name all of the ways you could use this object. Keep in mind that one object can have many uses. Separate your responses with a comma.",,y,28255,,,4298,24141,,,,"hold items together, ammunition, ",1
edwardiannone,i6ymq4w8zs,"Affordance Norms_clemson",1,22,2022-11-09T17:32:57+00:00,26.99683380127,14,"updated stim.csv",Version14.csv,"Version 14","List 14",doorstep,,396,5.333333333,828,397,BOI,-,-,"Please name all of the ways you could use this object. Keep in mind that one object can have many uses. Separate your responses with a comma.",,y,26233,,,4779,15701,,,,"step/sit on, ",1
edwardiannone,i6ymq4w8zs,"Affordance Norms_clemson",1,23,2022-11-09T17:33:09+00:00,11.928463220596,14,"updated stim.csv",Version14.csv,"Version 14","List 14",cocktail,,415,5.481481481,588,416,BOI,-,-,"Please name all of the ways you could use this object. Keep in mind that one object can have many uses. Separate your responses with a comma.",,y,11802,,,1965,10561,,,,"drink, dip, eat",1
edwardiannone,i6ymq4w8zs,"Affordance Norms_clemson",1,24,2022-11-09T17:34:48+00:00,99.318158864975,14,"updated stim.csv",Version14.csv,"Version 14","List 14",earring,,405,6.428571429,881,406,BOI,-,-,"Please name all of the ways you could use this object. Keep in mind that one object can have many uses. Separate your responses with a comma.",,y,98869,,,3642,94250,,,,"pierce, hold",1
edwardiannone,i6ymq4w8zs,"Affordance Norms_clemson",1,25,2022-11-09T17:35:01+00:00,13.066551923752,14,"updated stim.csv",Version14.csv,"Version 14","List 14",driftwood,,395,5.416666667,847,396,BOI,-,-,"Please name all of the ways you could use this object. Keep in mind that one object can have many uses. Separate your responses with a comma.",,y,12938,,,3368,5434,,,,float,1
edwardiannone,i6ymq4w8zs,"Affordance Norms_clemson",1,26,2022-11-09T17:35:27+00:00,25.524922132492,14,"updated stim.csv",Version14.csv,"Version 14","List 14",doctor,,417,5.68,809,418,BOI,-,-,"Please name all of the ways you could use this object. Keep in mind that one object can have many uses. Separate your responses with a comma.",,y,25321,,,3460,23152,,,,"cure, assist, help, ",1
edwardiannone,i6ymq4w8zs,"Affordance Norms_clemson",1,27,2022-11-09T17:35:58+00:00,31.04301905632,14,"updated stim.csv",Version14.csv,"Version 14","List 14",tuba,,401,5.130434783,2790,402,BOI,-,-,"Please name all of the ways you could use this object. Keep in mind that one object can have many uses. Separate your responses with a comma.",,y,30646,,,5454,20845,,,,"instrument, ",1
edwardiannone,i6ymq4w8zs,"Affordance Norms_clemson",1,28,2022-11-09T17:36:09+00:00,11.068356990814,14,"updated stim.csv",Version14.csv,"Version 14","List 14",seasoning,,411,4.47826087,2300,412,BOI,-,-,"Please name all of the ways you could use this object. Keep in mind that one object can have many uses. Separate your responses with a comma.",,y,10776,,,7959,9918,,,,"flavor, cook ",1
edwardiannone,i6ymq4w8zs,"Affordance Norms_clemson",1,29,2022-11-09T17:36:14+00:00,5.341169834137,14,"updated stim.csv",Version14.csv,"Version 14","List 14",tonic,,414,5.086956522,2729,415,BOI,-,-,"Please name all of the ways you could use this object. Keep in mind that one object can have many uses. Separate your responses with a comma.",,y,5209,,,-1,-1,,,,,1
edwardiannone,i6ymq4w8zs,"Affordance Norms_clemson",1,30,2022-11-09T17:37:09+00:00,54.448353052139,14,"updated stim.csv",Version14.csv,"Version 14","List 14",paperhanger,,410,4.625,1864,411,BOI,-,-,"Please name all of the ways you could use this object. Keep in mind that one object can have many uses. Separate your responses with a comma.",,y,54053,,,51326,53124,,,,"holds items",1
edwardiannone,i6ymq4w8zs,"Affordance Norms_clemson",1,31,2022-11-09T17:37:22+00:00,13.278923034668,14,"updated stim.csv",Version14.csv,"Version 14","List 14",cleat,,407,4.5,552,408,BOI,-,-,"Please name all of the ways you could use this object. Keep in mind that one object can have many uses. Separate your responses with a comma.",,y,13153,,,1867,11585,,,,"sports, friction, grip, dirt",1
edwardiannone,i6ymq4w8zs,"Affordance Norms_clemson",1,32,2022-11-09T17:37:29+00:00,6.9399530887604,14,"updated stim.csv",Version14.csv,"Version 14","List 14",hairpin,,397,6.125,1216,398,BOI,-,-,"Please name all of the ways you could use this object. Keep in mind that one object can have many uses. Separate your responses with a comma.",,y,6802,,,2591,5835,,,,"holds hair together",1
edwardiannone,i6ymq4w8zs,"Affordance Norms_clemson",1,33,2022-11-09T17:37:38+00:00,9.2447988986969,14,"updated stim.csv",Version14.csv,"Version 14","List 14",flannels,,413,5.681818182,999,414,BOI,-,-,"Please name all of the ways you could use this object. Keep in mind that one object can have many uses. Separate your responses with a comma.",,y,9123,,,2082,6916,,,,"clothing item to wear",1
edwardiannone,i6ymq4w8zs,"Affordance Norms_clemson",1,34,2022-11-09T17:37:43+00:00,4.757227897644,14,"updated stim.csv",Version14.csv,"Version 14","List 14",brassiere,,409,5.666666667,306,410,BOI,-,-,"Please name all of the ways you could use this object. Keep in mind that one object can have many uses. Separate your responses with a comma.",,y,4625,,,3571,3622,,,,na,1
edwardiannone,i6ymq4w8zs,"Affordance Norms_clemson",1,35,2022-11-09T17:37:50+00:00,7.2623641490936,14,"updated stim.csv",Version14.csv,"Version 14","List 14",hutch,,400,4.708333333,1342,401,BOI,-,-,"Please name all of the ways you could use this object. Keep in mind that one object can have many uses. Separate your responses with a comma.",,y,7146,,,1975,4508,,,,na,1
edwardiannone,i6ymq4w8zs,"Affordance Norms_clemson",1,36,2022-11-09T17:38:12+00:00,22.033509016037,14,"updated stim.csv",Version14.csv,"Version 14","List 14",Cheeseburger,,402,,3001,403,BOI,-,-,"Please name all of the ways you could use this object. Keep in mind that one object can have many uses. Separate your responses with a comma.",,y,21827,,,4775,21006,,,,"eat, customize, cook, make",1
edwardiannone,i6ymq4w8zs,"Affordance Norms_clemson",1,37,2022-11-09T17:38:22+00:00,10.20831489563,14,"updated stim.csv",Version14.csv,"Version 14","List 14",pellet,,416,4.296296296,1910,417,BOI,-,-,"Please name all of the ways you could use this object. Keep in mind that one object can have many uses. Separate your responses with a comma.",,y,10027,,,-1,-1,,,,,1
edwardiannone,i6ymq4w8zs,"Affordance Norms_clemson",1,38,2022-11-09T17:39:06+00:00,43.353696107864,14,"updated stim.csv",Version14.csv,"Version 14","List 14",pedestal,,419,4.88,1901,420,BOI,-,-,"Please name all of the ways you could use this object. Keep in mind that one object can have many uses. Separate your responses with a comma.",,y,43153,,,37525,42010,,,,"vase, column ",1
edwardiannone,i6ymq4w8zs,"Affordance Norms_clemson",1,39,2022-11-09T17:39:30+00:00,23.905804872513,14,"updated stim.csv",Version14.csv,"Version 14","List 14",cord,,420,6.103448276,640,421,BOI,-,-,"Please name all of the ways you could use this object. Keep in mind that one object can have many uses. Separate your responses with a comma.",,y,23232,,,19481,22130,,,,"string, rope",1
edwardiannone,i6ymq4w8zs,"Affordance Norms_clemson",1,40,2022-11-09T17:39:40+00:00,10.496374130249,14,"updated stim.csv",Version14.csv,"Version 14","List 14",milkshake,,393,6.4,1661,394,BOI,-,-,"Please name all of the ways you could use this object. Keep in mind that one object can have many uses. Separate your responses with a comma.",,y,10218,,,6842,8847,,,,"eat, shake",1
edwardiannone,i6ymq4w8zs,"Affordance Norms_clemson",1,41,2022-11-09T17:39:42+00:00,2.1696648597717,14,"updated stim.csv",Version14.csv,"Version 14","List 14",,,,,,0,Instruct,,,"You will now be asked a few questions about your experience today.",,"Instruct 4",2029,,,-1,-1,,,,,1
