Username,ID,ExperimentName,Session,Trial,Date,TimeDif,"Condition Number","Stimuli File","Order File","Condition Description","Condition Notes",Stimuli*Cue,Stimuli*Answer,Stimuli*Shuffle,"Stimuli*Stimuli Notes",Stimuli*Value,Procedure*Item,"Procedure*Trial Type","Procedure*Max Time","Procedure*Min Time",Procedure*Text,"Procedure*Procedure Notes",Procedure*Shuffle,Response*RT,Response*Response,Response*Accuracy,Response*RTfirst,Response*RTlast,Response*strictAcc,Response*lenientAcc,Response*focus,Response*JOL,Response*Focus
000719536rln,ahjq2jlmxz,"Affordance Norms_South Alabama",1,1,2022-11-22T22:25:04+00:00,13.178955078125,32,"updated stim.csv",Version32.csv,"Version 32","List 32",,,,,,0,Instruct,-,10,"In this section, you will be presented with a series of objects. Please name as many possible uses for this object as you can think of by typing them in the box below each object.",,Instruct1,12636,,,-1,-1,,,,,1
000719536rln,ahjq2jlmxz,"Affordance Norms_South Alabama",1,2,2022-11-22T22:25:20+00:00,15.97767996788,32,"updated stim.csv",Version32.csv,"Version 32","List 32",,,,,,0,Instruct,-,10,"Please keep in mind that a single object will have more than one use. For example, a ball can be thrown or can be bounced or even stepped on. When listing multiple uses for one object, please separate each use with a comma (i.e., thrown, bounced, stepped on)",,Instruct2,15282,,,-1,-1,,,,,1
000719536rln,ahjq2jlmxz,"Affordance Norms_South Alabama",1,3,2022-11-22T22:25:36+00:00,16.924939870834,32,"updated stim.csv",Version32.csv,"Version 32","List 32",,,,,,0,Instruct,-,-,"Before starting the experiment, you will complete a short practice sesstion. Press ENTER when you are ready to begin.",,Instruct3,16075,,,-1,-1,,,,,1
000719536rln,ahjq2jlmxz,"Affordance Norms_South Alabama",1,4,2022-11-22T22:26:32+00:00,55.663019180298,32,"updated stim.csv",Version32.csv,"Version 32","List 32",paperwork,,3001,5.625,1866,3002,BOI,-,-,"Please name all of the ways you could use this object. Keep in mind that one object can have many uses. Separate your responses with a comma.",,n,54936,,,12322,51843,,,,"file, complete, turn in, copy, sign",1
000719536rln,ahjq2jlmxz,"Affordance Norms_South Alabama",1,5,2022-11-22T22:27:12+00:00,39.599304914474,32,"updated stim.csv",Version32.csv,"Version 32","List 32",spaghetti,,3003,6,2461,3004,BOI,-,-,"Please name all of the ways you could use this object. Keep in mind that one object can have many uses. Separate your responses with a comma.",,n,38931,,,4723,37520,,,,"eat, cook, serve, buy, store",1
000719536rln,ahjq2jlmxz,"Affordance Norms_South Alabama",1,6,2022-11-22T22:27:46+00:00,34.510088920593,32,"updated stim.csv",Version32.csv,"Version 32","List 32",saucer,,3005,5.777777778,2249,3006,BOI,-,-,"Please name all of the ways you could use this object. Keep in mind that one object can have many uses. Separate your responses with a comma.",,n,33520,,,8531,31150,,,,"break, wash, dry, buy, serve",1
000719536rln,ahjq2jlmxz,"Affordance Norms_South Alabama",1,7,2022-11-22T22:28:30+00:00,44.028614044189,32,"updated stim.csv",Version32.csv,"Version 32","List 32",shortening,,3002,4.92,2358,3003,BOI,-,-,"Please name all of the ways you could use this object. Keep in mind that one object can have many uses. Separate your responses with a comma.",,n,43339,,,3598,12887,,,,"buy, use, heat",1
000719536rln,ahjq2jlmxz,"Affordance Norms_South Alabama",1,8,2022-11-22T22:28:54+00:00,23.458200931549,32,"updated stim.csv",Version32.csv,"Version 32","List 32",grain,,3004,5.217391304,1143,3005,BOI,-,-,"Please name all of the ways you could use this object. Keep in mind that one object can have many uses. Separate your responses with a comma.",,n,22704,,,2666,19512,,,,"buy, eat, sale, cook, serve",1
000719536rln,ahjq2jlmxz,"Affordance Norms_South Alabama",1,9,2022-11-22T22:28:59+00:00,4.8533861637115,32,"updated stim.csv",Version32.csv,"Version 32","List 32",,,,,,0,Instruct,-,-,"You have completed this section. Press ENTER to continue",,"Instruct 5",4436,,,-1,-1,,,,,1
000719536rln,ahjq2jlmxz,"Affordance Norms_South Alabama",1,10,2022-11-22T22:29:04+00:00,4.9112868309021,32,"updated stim.csv",Version32.csv,"Version 32","List 32",,,,,,0,Instruct,-,-,"You will now start the full experiment. Press ENTER when you are ready to begin.",,,4081,,,-1,-1,,,,,1
000719536rln,ahjq2jlmxz,"Affordance Norms_South Alabama",1,11,2022-11-22T22:29:44+00:00,39.998334169388,32,"updated stim.csv",Version32.csv,"Version 32","List 32",fan,,939,5.72,945,940,BOI,-,-,"Please name all of the ways you could use this object. Keep in mind that one object can have many uses. Separate your responses with a comma.",,y,39202,,,11277,37009,,,,"use, turn on, turn off, buy, sale, borrow",1
000719536rln,ahjq2jlmxz,"Affordance Norms_South Alabama",1,12,2022-11-22T22:30:15+00:00,31.539463996887,32,"updated stim.csv",Version32.csv,"Version 32","List 32",ash,,937,4.333333333,81,938,BOI,-,-,"Please name all of the ways you could use this object. Keep in mind that one object can have many uses. Separate your responses with a comma.",,y,31035,,,3819,19671,,,,"dump, blow, store",1
000719536rln,ahjq2jlmxz,"Affordance Norms_South Alabama",1,13,2022-11-22T22:30:56+00:00,41.00180888176,32,"updated stim.csv",Version32.csv,"Version 32","List 32",pocketknife,,932,5.692307692,2015,933,BOI,-,-,"Please name all of the ways you could use this object. Keep in mind that one object can have many uses. Separate your responses with a comma.",,y,40432,,,2353,35402,,,,"use, fold, sale, give, sharpen, gift, buy",1
000719536rln,ahjq2jlmxz,"Affordance Norms_South Alabama",1,14,2022-11-22T22:31:30+00:00,34.205919027328,32,"updated stim.csv",Version32.csv,"Version 32","List 32",tin,,941,4.727272727,2701,942,BOI,-,-,"Please name all of the ways you could use this object. Keep in mind that one object can have many uses. Separate your responses with a comma.",,y,33509,,,4097,31585,,,,"buy, store, sale, use, storage",1
000719536rln,ahjq2jlmxz,"Affordance Norms_South Alabama",1,15,2022-11-22T22:31:56+00:00,25.783328056335,32,"updated stim.csv",Version32.csv,"Version 32","List 32",songbook,,955,5.76,2452,956,BOI,-,-,"Please name all of the ways you could use this object. Keep in mind that one object can have many uses. Separate your responses with a comma.",,y,24913,,,4489,23461,,,,"buy, sale, use, read, play, borrow",1
000719536rln,ahjq2jlmxz,"Affordance Norms_South Alabama",1,16,2022-11-22T22:32:36+00:00,39.662078857422,32,"updated stim.csv",Version32.csv,"Version 32","List 32",skillet,,949,5.409090909,2398,950,BOI,-,-,"Please name all of the ways you could use this object. Keep in mind that one object can have many uses. Separate your responses with a comma.",,y,38760,,,1998,33892,,,,"cook, grill, bake, fry, buy, sale ",1
000719536rln,ahjq2jlmxz,"Affordance Norms_South Alabama",1,17,2022-11-22T22:33:11+00:00,34.99344420433,32,"updated stim.csv",Version32.csv,"Version 32","List 32",glassblower,,946,4.52173913,1111,947,BOI,-,-,"Please name all of the ways you could use this object. Keep in mind that one object can have many uses. Separate your responses with a comma.",,y,34406,,,8958,16977,,,,"create, sale, buy",1
000719536rln,ahjq2jlmxz,"Affordance Norms_South Alabama",1,18,2022-11-22T22:34:40+00:00,89.706008911133,32,"updated stim.csv",Version32.csv,"Version 32","List 32",cloverleaf,,945,4.565217391,575,946,BOI,-,-,"Please name all of the ways you could use this object. Keep in mind that one object can have many uses. Separate your responses with a comma.",,y,88993,,,45687,63720,,,,"wish, find, feed animals",1
000719536rln,ahjq2jlmxz,"Affordance Norms_South Alabama",1,19,2022-11-22T22:35:15+00:00,34.739728927612,32,"updated stim.csv",Version32.csv,"Version 32","List 32",hairnet,,940,5.458333333,1214,941,BOI,-,-,"Please name all of the ways you could use this object. Keep in mind that one object can have many uses. Separate your responses with a comma.",,y,34180,,,7738,16428,,,,"use, control hair, ",1
000719536rln,ahjq2jlmxz,"Affordance Norms_South Alabama",1,20,2022-11-22T22:37:04+00:00,108.53474402428,32,"updated stim.csv",Version32.csv,"Version 32","List 32",tinplate,,934,4.869565217,2704,935,BOI,-,-,"Please name all of the ways you could use this object. Keep in mind that one object can have many uses. Separate your responses with a comma.",,y,107863,,,56783,105206,,,,"to make cans for food, drink, machines",1
000719536rln,ahjq2jlmxz,"Affordance Norms_South Alabama",1,21,2022-11-22T22:37:37+00:00,33.001513957977,32,"updated stim.csv",Version32.csv,"Version 32","List 32",bead,,951,5.545454545,178,952,BOI,-,-,"Please name all of the ways you could use this object. Keep in mind that one object can have many uses. Separate your responses with a comma.",,y,32347,,,6219,29590,,,,"creating jewelry, making decorations",1
000719536rln,ahjq2jlmxz,"Affordance Norms_South Alabama",1,22,2022-11-22T22:38:32+00:00,55.742452144623,32,"updated stim.csv",Version32.csv,"Version 32","List 32",sprinter,,936,4.565217391,2490,937,BOI,-,-,"Please name all of the ways you could use this object. Keep in mind that one object can have many uses. Separate your responses with a comma.",,y,54666,,,41735,51994,,,,"run, racing",1
000719536rln,ahjq2jlmxz,"Affordance Norms_South Alabama",1,23,2022-11-22T22:39:33+00:00,60.592636823654,32,"updated stim.csv",Version32.csv,"Version 32","List 32",bible,,931,5.826086957,208,932,BOI,-,-,"Please name all of the ways you could use this object. Keep in mind that one object can have many uses. Separate your responses with a comma.",,y,59202,,,4655,57596,,,,"study, read, worship",1
000719536rln,ahjq2jlmxz,"Affordance Norms_South Alabama",1,24,2022-11-22T22:41:21+00:00,107.75983715057,32,"updated stim.csv",Version32.csv,"Version 32","List 32",machinery,,954,5.416666667,1568,955,BOI,-,-,"Please name all of the ways you could use this object. Keep in mind that one object can have many uses. Separate your responses with a comma.",,y,100501,,,9136,98133,,,,"make cars, operate, make merchandise",1
000719536rln,ahjq2jlmxz,"Affordance Norms_South Alabama",1,25,2022-11-22T22:41:50+00:00,29.270989894867,32,"updated stim.csv",Version32.csv,"Version 32","List 32",artifact,,942,4.416666667,79,943,BOI,-,-,"Please name all of the ways you could use this object. Keep in mind that one object can have many uses. Separate your responses with a comma.",,y,26382,,,4128,13338,,,,"study, buy, sale",1
000719536rln,ahjq2jlmxz,"Affordance Norms_South Alabama",1,26,2022-11-22T22:42:27+00:00,36.532375097275,32,"updated stim.csv",Version32.csv,"Version 32","List 32",summerhouse,,953,5,2584,954,BOI,-,-,"Please name all of the ways you could use this object. Keep in mind that one object can have many uses. Separate your responses with a comma.",,y,34078,,,4134,18678,,,,"vacation, retreat, sale, buy",1
000719536rln,ahjq2jlmxz,"Affordance Norms_South Alabama",1,27,2022-11-22T22:43:03+00:00,35.939454078674,32,"updated stim.csv",Version32.csv,"Version 32","List 32",powerboat,,960,5.782608696,2056,961,BOI,-,-,"Please name all of the ways you could use this object. Keep in mind that one object can have many uses. Separate your responses with a comma.",,y,30915,,,2530,20610,,,,"use, buy, sale, operate, ski",1
000719536rln,ahjq2jlmxz,"Affordance Norms_South Alabama",1,28,2022-11-22T22:43:46+00:00,43.267172813416,32,"updated stim.csv",Version32.csv,"Version 32","List 32",stretcher,,947,5.08,2567,948,BOI,-,-,"Please name all of the ways you could use this object. Keep in mind that one object can have many uses. Separate your responses with a comma.",,y,41350,,,7173,39293,,,,"carry patient, hospital use, transport",1
000719536rln,ahjq2jlmxz,"Affordance Norms_South Alabama",1,29,2022-11-22T22:44:11+00:00,25.023702144623,32,"updated stim.csv",Version32.csv,"Version 32","List 32",stairwell,,950,5.038461538,2502,951,BOI,-,-,"Please name all of the ways you could use this object. Keep in mind that one object can have many uses. Separate your responses with a comma.",,y,21510,,,2445,19510,,,,"climb up, climb down, move between floors",1
000719536rln,ahjq2jlmxz,"Affordance Norms_South Alabama",1,30,2022-11-22T22:44:35+00:00,24.159945011139,32,"updated stim.csv",Version32.csv,"Version 32","List 32",costume,,935,6.28,657,936,BOI,-,-,"Please name all of the ways you could use this object. Keep in mind that one object can have many uses. Separate your responses with a comma.",,y,21750,,,3500,19646,,,,"dress up, pretend, fun, party",1
000719536rln,ahjq2jlmxz,"Affordance Norms_South Alabama",1,31,2022-11-22T22:44:55+00:00,20.130664825439,32,"updated stim.csv",Version32.csv,"Version 32","List 32",dessert,,958,5.695652174,781,959,BOI,-,-,"Please name all of the ways you could use this object. Keep in mind that one object can have many uses. Separate your responses with a comma.",,y,18971,,,3107,16888,,,,"eat, create, make, sale, buy",1
000719536rln,ahjq2jlmxz,"Affordance Norms_South Alabama",1,32,2022-11-22T22:59:05+00:00,849.51073002815,32,"updated stim.csv",Version32.csv,"Version 32","List 32",sidewalk,,959,5.291666667,2377,960,BOI,-,-,"Please name all of the ways you could use this object. Keep in mind that one object can have many uses. Separate your responses with a comma.",,y,89965,,,77409,87278,,,,"use, destroy, walk on",1
