Username,ID,ExperimentName,Session,Trial,Date,TimeDif,"Condition Number","Stimuli File","Order File","Condition Description","Condition Notes",Stimuli*Cue,Stimuli*Answer,Stimuli*Shuffle,"Stimuli*Stimuli Notes",Stimuli*Value,Procedure*Item,"Procedure*Trial Type","Procedure*Max Time","Procedure*Min Time",Procedure*Text,"Procedure*Procedure Notes",Procedure*Shuffle,Response*RT,Response*Response,Response*Accuracy,Response*RTfirst,Response*RTlast,Response*strictAcc,Response*lenientAcc,Response*focus,Response*JOL,Response*Focus
J00717667CB,qtx2pj5139,"Affordance Norms_South Alabama",1,1,2022-11-15T20:38:08+00:00,11.398389101028,82,"updated stim.csv",Version82.csv,"Version 82","List 82",,,,,,0,Instruct,-,10,"In this section, you will be presented with a series of objects. Please name as many possible uses for this object as you can think of by typing them in the box below each object.",,Instruct1,11238,,,-1,-1,,,,,1
J00717667CB,qtx2pj5139,"Affordance Norms_South Alabama",1,2,2022-11-15T20:38:19+00:00,11.337759017944,82,"updated stim.csv",Version82.csv,"Version 82","List 82",,,,,,0,Instruct,-,10,"Please keep in mind that a single object will have more than one use. For example, a ball can be thrown or can be bounced or even stepped on. When listing multiple uses for one object, please separate each use with a comma (i.e., thrown, bounced, stepped on)",,Instruct2,11163,,,-1,-1,,,,,1
J00717667CB,qtx2pj5139,"Affordance Norms_South Alabama",1,3,2022-11-15T20:38:23+00:00,3.5900409221649,82,"updated stim.csv",Version82.csv,"Version 82","List 82",,,,,,0,Instruct,-,-,"Before starting the experiment, you will complete a short practice sesstion. Press ENTER when you are ready to begin.",,Instruct3,3421,,,-1,-1,,,,,1
J00717667CB,qtx2pj5139,"Affordance Norms_South Alabama",1,4,2022-11-15T20:38:38+00:00,15.273074865341,82,"updated stim.csv",Version82.csv,"Version 82","List 82",saucer,,3005,5.777777778,2249,3006,BOI,-,-,"Please name all of the ways you could use this object. Keep in mind that one object can have many uses. Separate your responses with a comma.",,n,15096,,,3281,9480,,,,"throw, plate, sauce",1
J00717667CB,qtx2pj5139,"Affordance Norms_South Alabama",1,5,2022-11-15T20:38:46+00:00,8.0439891815186,82,"updated stim.csv",Version82.csv,"Version 82","List 82",spaghetti,,3003,6,2461,3004,BOI,-,-,"Please name all of the ways you could use this object. Keep in mind that one object can have many uses. Separate your responses with a comma.",,n,7817,,,4049,4519,,,,eat,1
J00717667CB,qtx2pj5139,"Affordance Norms_South Alabama",1,6,2022-11-15T20:38:51+00:00,4.6022520065308,82,"updated stim.csv",Version82.csv,"Version 82","List 82",grain,,3004,5.217391304,1143,3005,BOI,-,-,"Please name all of the ways you could use this object. Keep in mind that one object can have many uses. Separate your responses with a comma.",,n,4453,,,1734,3792,,,,cook,1
J00717667CB,qtx2pj5139,"Affordance Norms_South Alabama",1,7,2022-11-15T20:39:07+00:00,16.232230901718,82,"updated stim.csv",Version82.csv,"Version 82","List 82",paperwork,,3001,5.625,1866,3002,BOI,-,-,"Please name all of the ways you could use this object. Keep in mind that one object can have many uses. Separate your responses with a comma.",,n,16000,,,2591,14510,,,,"job, insurance, police report, school",1
J00717667CB,qtx2pj5139,"Affordance Norms_South Alabama",1,8,2022-11-15T20:39:20+00:00,13.106096982956,82,"updated stim.csv",Version82.csv,"Version 82","List 82",shortening,,3002,4.92,2358,3003,BOI,-,-,"Please name all of the ways you could use this object. Keep in mind that one object can have many uses. Separate your responses with a comma.",,n,12942,,,3703,9832,,,,"cooking, getting smaller",1
J00717667CB,qtx2pj5139,"Affordance Norms_South Alabama",1,9,2022-11-15T20:39:21+00:00,1.4116921424866,82,"updated stim.csv",Version82.csv,"Version 82","List 82",,,,,,0,Instruct,-,-,"You have completed this section. Press ENTER to continue",,"Instruct 5",1243,,,-1,-1,,,,,1
J00717667CB,qtx2pj5139,"Affordance Norms_South Alabama",1,10,2022-11-15T20:39:24+00:00,2.4034938812256,82,"updated stim.csv",Version82.csv,"Version 82","List 82",,,,,,0,Instruct,-,-,"You will now start the full experiment. Press ENTER when you are ready to begin.",,,2248,,,-1,-1,,,,,1
J00717667CB,qtx2pj5139,"Affordance Norms_South Alabama",1,11,2022-11-15T20:39:36+00:00,12.485994100571,82,"updated stim.csv",Version82.csv,"Version 82","List 82",cartridge,,2444,5.12,444,2445,BOI,-,-,"Please name all of the ways you could use this object. Keep in mind that one object can have many uses. Separate your responses with a comma.",,y,12315,,,-1,-1,,,,,1
J00717667CB,qtx2pj5139,"Affordance Norms_South Alabama",1,12,2022-11-15T20:39:44+00:00,7.8306109905243,82,"updated stim.csv",Version82.csv,"Version 82","List 82",eclair,,2435,6.166666667,886,2436,BOI,-,-,"Please name all of the ways you could use this object. Keep in mind that one object can have many uses. Separate your responses with a comma.",,y,7659,,,2161,3039,,,,donut,1
J00717667CB,qtx2pj5139,"Affordance Norms_South Alabama",1,13,2022-11-15T20:39:47+00:00,3.0509679317474,82,"updated stim.csv",Version82.csv,"Version 82","List 82",soda,,2450,6.47826087,2442,2451,BOI,-,-,"Please name all of the ways you could use this object. Keep in mind that one object can have many uses. Separate your responses with a comma.",,y,2887,,,1779,2528,,,,drink,1
J00717667CB,qtx2pj5139,"Affordance Norms_South Alabama",1,14,2022-11-15T20:40:11+00:00,24.250469923019,82,"updated stim.csv",Version82.csv,"Version 82","List 82",arrowhead,,2457,4.44,77,2458,BOI,-,-,"Please name all of the ways you could use this object. Keep in mind that one object can have many uses. Separate your responses with a comma.",,y,24012,,,4544,22743,,,,"throw, stab",1
J00717667CB,qtx2pj5139,"Affordance Norms_South Alabama",1,15,2022-11-15T20:40:21+00:00,9.3987340927124,82,"updated stim.csv",Version82.csv,"Version 82","List 82",peppermint,,2452,5.391304348,1923,2453,BOI,-,-,"Please name all of the ways you could use this object. Keep in mind that one object can have many uses. Separate your responses with a comma.",,y,9209,,,3550,8949,,,,"eat, smell, heal",1
J00717667CB,qtx2pj5139,"Affordance Norms_South Alabama",1,16,2022-11-15T20:40:28+00:00,6.8114788532257,82,"updated stim.csv",Version82.csv,"Version 82","List 82",oven,,2445,5.923076923,1831,2446,BOI,-,-,"Please name all of the ways you could use this object. Keep in mind that one object can have many uses. Separate your responses with a comma.",,y,6660,,,1290,6088,,,,"cook, warmth, storage",1
J00717667CB,qtx2pj5139,"Affordance Norms_South Alabama",1,17,2022-11-15T20:40:37+00:00,9.7300770282745,82,"updated stim.csv",Version82.csv,"Version 82","List 82",socket,,2458,5.24,2440,2459,BOI,-,-,"Please name all of the ways you could use this object. Keep in mind that one object can have many uses. Separate your responses with a comma.",,y,9531,,,3093,9302,,,,"eye socket, wall outlet, charge",1
J00717667CB,qtx2pj5139,"Affordance Norms_South Alabama",1,18,2022-11-15T20:41:09+00:00,31.788689136505,82,"updated stim.csv",Version82.csv,"Version 82","List 82",sidecar,,2434,4.347826087,2376,2435,BOI,-,-,"Please name all of the ways you could use this object. Keep in mind that one object can have many uses. Separate your responses with a comma.",,y,31571,,,4883,31362,,,,motorcycle,1
J00717667CB,qtx2pj5139,"Affordance Norms_South Alabama",1,19,2022-11-15T20:41:16+00:00,6.9858050346375,82,"updated stim.csv",Version82.csv,"Version 82","List 82",Crab,,2432,4.889189189,674,2433,BOI,-,-,"Please name all of the ways you could use this object. Keep in mind that one object can have many uses. Separate your responses with a comma.",,y,6815,,,2294,4863,,,,"eat, pet",1
J00717667CB,qtx2pj5139,"Affordance Norms_South Alabama",1,20,2022-11-15T20:41:33+00:00,16.787945985794,82,"updated stim.csv",Version82.csv,"Version 82","List 82",punter,,2454,4.464285714,2100,2455,BOI,-,-,"Please name all of the ways you could use this object. Keep in mind that one object can have many uses. Separate your responses with a comma.",,y,16617,,,5858,16348,,,,"football kicker, hit, kick",1
J00717667CB,qtx2pj5139,"Affordance Norms_South Alabama",1,21,2022-11-15T20:41:42+00:00,9.3572549819946,82,"updated stim.csv",Version82.csv,"Version 82","List 82",buffet,,2451,5.409090909,346,2452,BOI,-,-,"Please name all of the ways you could use this object. Keep in mind that one object can have many uses. Separate your responses with a comma.",,y,9136,,,4698,8876,,,,"food, serve",1
J00717667CB,qtx2pj5139,"Affordance Norms_South Alabama",1,22,2022-11-15T20:41:47+00:00,4.7025859355927,82,"updated stim.csv",Version82.csv,"Version 82","List 82",announcer,,2439,4.296296296,44,2440,BOI,-,-,"Please name all of the ways you could use this object. Keep in mind that one object can have many uses. Separate your responses with a comma.",,y,4538,,,1849,3008,,,,talk,1
J00717667CB,qtx2pj5139,"Affordance Norms_South Alabama",1,23,2022-11-15T20:41:58+00:00,11.193300008774,82,"updated stim.csv",Version82.csv,"Version 82","List 82",classmate,,2460,5.363636364,549,2461,BOI,-,-,"Please name all of the ways you could use this object. Keep in mind that one object can have many uses. Separate your responses with a comma.",,y,11021,,,4802,7571,,,,"friend, help",1
J00717667CB,qtx2pj5139,"Affordance Norms_South Alabama",1,24,2022-11-15T20:42:19+00:00,20.569530963898,82,"updated stim.csv",Version82.csv,"Version 82","List 82",mattress,,2453,6.72,1626,2454,BOI,-,-,"Please name all of the ways you could use this object. Keep in mind that one object can have many uses. Separate your responses with a comma.",,y,20326,,,1336,16165,,,,"sleep, sex, rest",1
J00717667CB,qtx2pj5139,"Affordance Norms_South Alabama",1,25,2022-11-15T20:42:26+00:00,7.1959600448608,82,"updated stim.csv",Version82.csv,"Version 82","List 82",backboard,,2431,4.565217391,112,2432,BOI,-,-,"Please name all of the ways you could use this object. Keep in mind that one object can have many uses. Separate your responses with a comma.",,y,7010,,,2380,5579,,,,"back of a bed",1
J00717667CB,qtx2pj5139,"Affordance Norms_South Alabama",1,26,2022-11-15T20:42:52+00:00,25.804579973221,82,"updated stim.csv",Version82.csv,"Version 82","List 82",card,,2437,5.56,430,2438,BOI,-,-,"Please name all of the ways you could use this object. Keep in mind that one object can have many uses. Separate your responses with a comma.",,y,25610,,,2290,22460,,,,"holiday, credit card, present, business card, share info",1
J00717667CB,qtx2pj5139,"Affordance Norms_South Alabama",1,27,2022-11-15T20:42:57+00:00,5.3920969963074,82,"updated stim.csv",Version82.csv,"Version 82","List 82",burglar,,2447,4.260869565,366,2448,BOI,-,-,"Please name all of the ways you could use this object. Keep in mind that one object can have many uses. Separate your responses with a comma.",,y,5221,,,2192,3391,,,,robber,1
J00717667CB,qtx2pj5139,"Affordance Norms_South Alabama",1,28,2022-11-15T20:43:10+00:00,12.790765047073,82,"updated stim.csv",Version82.csv,"Version 82","List 82",candlestick,,2441,6,411,2442,BOI,-,-,"Please name all of the ways you could use this object. Keep in mind that one object can have many uses. Separate your responses with a comma.",,y,12618,,,1977,11848,,,,"light, warmth, scent",1
J00717667CB,qtx2pj5139,"Affordance Norms_South Alabama",1,29,2022-11-15T20:43:42+00:00,32.094975948334,82,"updated stim.csv",Version82.csv,"Version 82","List 82",shrine,,2443,4.555555556,2367,2444,BOI,-,-,"Please name all of the ways you could use this object. Keep in mind that one object can have many uses. Separate your responses with a comma.",,y,31811,,,4662,30471,,,,"honor, grief",1
J00717667CB,qtx2pj5139,"Affordance Norms_South Alabama",1,30,2022-11-15T20:43:48+00:00,6.2557380199432,82,"updated stim.csv",Version82.csv,"Version 82","List 82",saxophone,,2456,6.222222222,2257,2457,BOI,-,-,"Please name all of the ways you could use this object. Keep in mind that one object can have many uses. Separate your responses with a comma.",,y,6086,,,1647,5456,,,,"music, sound, play it",1
J00717667CB,qtx2pj5139,"Affordance Norms_South Alabama",1,31,2022-11-15T20:43:57+00:00,8.6779670715332,82,"updated stim.csv",Version82.csv,"Version 82","List 82",petroleum,,2438,4.333333333,1934,2439,BOI,-,-,"Please name all of the ways you could use this object. Keep in mind that one object can have many uses. Separate your responses with a comma.",,y,8512,,,2083,2772,,,,jelly,1
J00717667CB,qtx2pj5139,"Affordance Norms_South Alabama",1,32,2022-11-15T20:44:00+00:00,2.8418128490448,82,"updated stim.csv",Version82.csv,"Version 82","List 82",corduroy,,2446,5.041666667,641,2447,BOI,-,-,"Please name all of the ways you could use this object. Keep in mind that one object can have many uses. Separate your responses with a comma.",,y,2524,,,-1,-1,,,,,1
J00717667CB,qtx2pj5139,"Affordance Norms_South Alabama",1,33,2022-11-15T20:45:26+00:00,85.938125133514,82,"updated stim.csv",Version82.csv,"Version 82","List 82",doorframe,,2455,5.086956522,823,2456,BOI,-,-,"Please name all of the ways you could use this object. Keep in mind that one object can have many uses. Separate your responses with a comma.",,y,85070,,,81005,84909,,,,"door, shut, slam, close",1
J00717667CB,qtx2pj5139,"Affordance Norms_South Alabama",1,34,2022-11-15T20:45:34+00:00,8.105740070343,82,"updated stim.csv",Version82.csv,"Version 82","List 82",net,,2459,5.208333333,1751,2460,BOI,-,-,"Please name all of the ways you could use this object. Keep in mind that one object can have many uses. Separate your responses with a comma.",,y,7879,,,1460,7709,,,,"catch, keep, hide, store",1
J00717667CB,qtx2pj5139,"Affordance Norms_South Alabama",1,35,2022-11-15T20:45:40+00:00,6.6207499504089,82,"updated stim.csv",Version82.csv,"Version 82","List 82",buck,,2440,4.291666667,340,2441,BOI,-,-,"Please name all of the ways you could use this object. Keep in mind that one object can have many uses. Separate your responses with a comma.",,y,6402,,,1452,4712,,,,"shoot, eat",1
J00717667CB,qtx2pj5139,"Affordance Norms_South Alabama",1,36,2022-11-15T20:45:49+00:00,8.8245830535889,82,"updated stim.csv",Version82.csv,"Version 82","List 82",teakwood,,2436,5.136363636,2647,2437,BOI,-,-,"Please name all of the ways you could use this object. Keep in mind that one object can have many uses. Separate your responses with a comma.",,y,8626,,,7077,7766,,,,smell,1
J00717667CB,qtx2pj5139,"Affordance Norms_South Alabama",1,37,2022-11-15T20:45:58+00:00,9.2129218578339,82,"updated stim.csv",Version82.csv,"Version 82","List 82",blender,,2442,5.739130435,236,2443,BOI,-,-,"Please name all of the ways you could use this object. Keep in mind that one object can have many uses. Separate your responses with a comma.",,y,9035,,,1645,7044,,,,"cook, ",1
J00717667CB,qtx2pj5139,"Affordance Norms_South Alabama",1,38,2022-11-15T20:46:01+00:00,2.3985280990601,82,"updated stim.csv",Version82.csv,"Version 82","List 82",dumpling,,2449,4.826086957,867,2450,BOI,-,-,"Please name all of the ways you could use this object. Keep in mind that one object can have many uses. Separate your responses with a comma.",,y,2235,,,1287,1805,,,,eat,1
J00717667CB,qtx2pj5139,"Affordance Norms_South Alabama",1,39,2022-11-15T20:46:13+00:00,12.113903999329,82,"updated stim.csv",Version82.csv,"Version 82","List 82",tablet,,2448,6.517241379,2619,2449,BOI,-,-,"Please name all of the ways you could use this object. Keep in mind that one object can have many uses. Separate your responses with a comma.",,y,11958,,,2570,11438,,,,"call, picture, work, entertainment",1
J00717667CB,qtx2pj5139,"Affordance Norms_South Alabama",1,40,2022-11-15T20:46:18+00:00,4.6679558753967,82,"updated stim.csv",Version82.csv,"Version 82","List 82",slingshot,,2433,5.4,2414,2434,BOI,-,-,"Please name all of the ways you could use this object. Keep in mind that one object can have many uses. Separate your responses with a comma.",,y,4501,,,1453,4131,,,,"shoot things",1
J00717667CB,qtx2pj5139,"Affordance Norms_South Alabama",1,41,2022-11-15T20:46:20+00:00,2.1846499443054,82,"updated stim.csv",Version82.csv,"Version 82","List 82",,,,,,0,Instruct,,,"You will now be asked a few questions about your experience today.",,"Instruct 4",2036,,,-1,-1,,,,,1
