Username,ID,ExperimentName,Session,Trial,Date,TimeDif,"Condition Number","Stimuli File","Order File","Condition Description","Condition Notes",Stimuli*Cue,Stimuli*Answer,Stimuli*Shuffle,"Stimuli*Stimuli Notes",Stimuli*Value,Stimuli*Rand,Procedure*Item,"Procedure*Trial Type","Procedure*Max Time","Procedure*Min Time",Procedure*Text,"Procedure*Procedure Notes",Procedure*Shuffle,Response*RT,Response*Response,Response*Accuracy,Response*RTfirst,Response*RTlast,Response*strictAcc,Response*lenientAcc,Response*focus,Response*JOL,Response*Focus
w10147992_scm,2w16hx8acw,"Affordance Norms_USM",1,1,2023-04-03T15:20:24+00:00,12.653272867203,28,"updated stim.csv",Version28.csv,"Version 28","List 28",,,,,,,0,Instruct,-,10,"In this section, you will be presented with a series of objects. Please name as many possible uses for this object as you can think of by typing them in the box below each object.",,Instruct1,12356,,,-1,-1,,,,,1
w10147992_scm,2w16hx8acw,"Affordance Norms_USM",1,2,2023-04-03T15:20:40+00:00,15.606593132019,28,"updated stim.csv",Version28.csv,"Version 28","List 28",,,,,,,0,Instruct,-,10,"Please keep in mind that a single object will have more than one use. For example, a ball can be thrown or can be bounced or even stepped on. When listing multiple uses for one object, please separate each use with a comma (i.e., thrown, bounced, stepped on)",,Instruct2,15250,,,-1,-1,,,,,1
w10147992_scm,2w16hx8acw,"Affordance Norms_USM",1,3,2023-04-03T15:20:43+00:00,3.0768229961395,28,"updated stim.csv",Version28.csv,"Version 28","List 28",,,,,,,0,Instruct,-,-,"Before starting the experiment, you will complete a short practice sesstion. Press ENTER when you are ready to begin.",,Instruct3,2743,,,-1,-1,,,,,1
w10147992_scm,2w16hx8acw,"Affordance Norms_USM",1,4,2023-04-03T15:20:56+00:00,13.028995990753,28,"updated stim.csv",Version28.csv,"Version 28","List 28",shortening,,3002,4.92,2358,0.604328482,3003,BOI,-,-,"Please name all of the ways you could use this object. Keep in mind that one object can have many uses. Separate your responses with a comma.",,n,12671,,,2084,6581,,,,"baking, cooking",1
w10147992_scm,2w16hx8acw,"Affordance Norms_USM",1,5,2023-04-03T15:21:10+00:00,14.127885818481,28,"updated stim.csv",Version28.csv,"Version 28","List 28",grain,,3004,5.217391304,1143,0.226863762,3005,BOI,-,-,"Please name all of the ways you could use this object. Keep in mind that one object can have many uses. Separate your responses with a comma.",,n,13755,,,2267,11060,,,,"mill, baking, cooking",1
w10147992_scm,2w16hx8acw,"Affordance Norms_USM",1,6,2023-04-03T15:21:26+00:00,15.887018203735,28,"updated stim.csv",Version28.csv,"Version 28","List 28",paperwork,,3001,5.625,1866,0.124284162,3002,BOI,-,-,"Please name all of the ways you could use this object. Keep in mind that one object can have many uses. Separate your responses with a comma.",,n,15517,,,2855,14054,,,,"filing, filling out, reading, writing, copying",1
w10147992_scm,2w16hx8acw,"Affordance Norms_USM",1,7,2023-04-03T15:21:45+00:00,19.731384992599,28,"updated stim.csv",Version28.csv,"Version 28","List 28",spaghetti,,3003,6,2461,0.090379998,3004,BOI,-,-,"Please name all of the ways you could use this object. Keep in mind that one object can have many uses. Separate your responses with a comma.",,n,19312,,,2358,18087,,,,"cooking, eating, smelling, painting",1
w10147992_scm,2w16hx8acw,"Affordance Norms_USM",1,8,2023-04-03T15:22:00+00:00,14.604710817337,28,"updated stim.csv",Version28.csv,"Version 28","List 28",saucer,,3005,5.777777778,2249,0.304808074,3006,BOI,-,-,"Please name all of the ways you could use this object. Keep in mind that one object can have many uses. Separate your responses with a comma.",,n,14232,,,2128,13047,,,,"tea, gravy, cream",1
w10147992_scm,2w16hx8acw,"Affordance Norms_USM",1,9,2023-04-03T15:22:03+00:00,3.2001550197601,28,"updated stim.csv",Version28.csv,"Version 28","List 28",,,,,,,0,Instruct,-,-,"You have completed this section. Press ENTER to continue",,"Instruct 5",2847,,,-1,-1,,,,,1
w10147992_scm,2w16hx8acw,"Affordance Norms_USM",1,10,2023-04-03T15:22:05+00:00,1.6111710071564,28,"updated stim.csv",Version28.csv,"Version 28","List 28",,,,,,,0,Instruct,-,-,"You will now start the full experiment. Press ENTER when you are ready to begin.",,,1244,,,-1,-1,,,,,1
w10147992_scm,2w16hx8acw,"Affordance Norms_USM",1,11,2023-04-03T15:22:24+00:00,19.192211151123,28,"updated stim.csv",Version28.csv,"Version 28","List 28",bratwurst,,826,5.434782609,307,0.625102194,827,BOI,-,-,"Please name all of the ways you could use this object. Keep in mind that one object can have many uses. Separate your responses with a comma.",,y,18851,,,2120,14929,,,,"cooking, eating, feeding to a dog",1
w10147992_scm,2w16hx8acw,"Affordance Norms_USM",1,12,2023-04-03T15:22:41+00:00,16.737195968628,28,"updated stim.csv",Version28.csv,"Version 28","List 28",razor,,822,6.12,2142,0.056176721,823,BOI,-,-,"Please name all of the ways you could use this object. Keep in mind that one object can have many uses. Separate your responses with a comma.",,y,16362,,,1686,4695,,,,"shaving, cutting",1
w10147992_scm,2w16hx8acw,"Affordance Norms_USM",1,13,2023-04-03T15:23:02+00:00,20.971571922302,28,"updated stim.csv",Version28.csv,"Version 28","List 28",snowball,,825,5.5,2431,0.143942854,826,BOI,-,-,"Please name all of the ways you could use this object. Keep in mind that one object can have many uses. Separate your responses with a comma.",,y,20599,,,3231,19201,,,,"throwing, stepping on, being hit, creating, building a snowman",1
w10147992_scm,2w16hx8acw,"Affordance Norms_USM",1,14,2023-04-03T15:23:24+00:00,22.115858078003,28,"updated stim.csv",Version28.csv,"Version 28","List 28",doorknocker,,829,5.52173913,825,0.961050371,830,BOI,-,-,"Please name all of the ways you could use this object. Keep in mind that one object can have many uses. Separate your responses with a comma.",,y,21727,,,11087,19085,,,,"knocking on a door, decoration",1
w10147992_scm,2w16hx8acw,"Affordance Norms_USM",1,15,2023-04-03T15:23:36+00:00,12.094189882278,28,"updated stim.csv",Version28.csv,"Version 28","List 28",hubcap,,833,4.833333333,1334,0.097436016,834,BOI,-,-,"Please name all of the ways you could use this object. Keep in mind that one object can have many uses. Separate your responses with a comma.",,y,11705,,,6188,10417,,,,"i don't know what this is",1
w10147992_scm,2w16hx8acw,"Affordance Norms_USM",1,16,2023-04-03T15:24:16+00:00,40.168529033661,28,"updated stim.csv",Version28.csv,"Version 28","List 28",liquid,,824,5.260869565,1524,0.321872939,825,BOI,-,-,"Please name all of the ways you could use this object. Keep in mind that one object can have many uses. Separate your responses with a comma.",,y,39262,,,1363,38032,,,,"drinking, spilling, cleaning up, cleaning with, cooking with, putting stuff in, creating new things, destroying things",1
w10147992_scm,2w16hx8acw,"Affordance Norms_USM",1,17,2023-04-03T15:24:48+00:00,32.14363694191,28,"updated stim.csv",Version28.csv,"Version 28","List 28",salesgirl,,820,4.769230769,2220,0.082248881,821,BOI,-,-,"Please name all of the ways you could use this object. Keep in mind that one object can have many uses. Separate your responses with a comma.",,y,31373,,,14602,22219,,,,"making sales, customer relations",1
w10147992_scm,2w16hx8acw,"Affordance Norms_USM",1,18,2023-04-03T15:25:31+00:00,43.086282014847,28,"updated stim.csv",Version28.csv,"Version 28","List 28",web,,840,4.375,2917,0.07564267,841,BOI,-,-,"Please name all of the ways you could use this object. Keep in mind that one object can have many uses. Separate your responses with a comma.",,y,42118,,,3543,40973,,,,"searching up things, spider beds, interacting, research",1
w10147992_scm,2w16hx8acw,"Affordance Norms_USM",1,19,2023-04-03T15:25:55+00:00,23.722990989685,28,"updated stim.csv",Version28.csv,"Version 28","List 28",heel,,839,4.666666667,1276,0.364472647,840,BOI,-,-,"Please name all of the ways you could use this object. Keep in mind that one object can have many uses. Separate your responses with a comma.",,y,23265,,,5035,20034,,,,"marching band technique, stepping on, tripping on",1
w10147992_scm,2w16hx8acw,"Affordance Norms_USM",1,20,2023-04-03T15:26:23+00:00,27.823982954025,28,"updated stim.csv",Version28.csv,"Version 28","List 28",fingerprint,,812,4.291666667,980,0.220511383,813,BOI,-,-,"Please name all of the ways you could use this object. Keep in mind that one object can have many uses. Separate your responses with a comma.",,y,27468,,,4271,26390,,,,"uniqueness, police detection, research",1
w10147992_scm,2w16hx8acw,"Affordance Norms_USM",1,21,2023-04-03T15:26:47+00:00,23.880852222443,28,"updated stim.csv",Version28.csv,"Version 28","List 28",dietician,,823,4.72,791,0.466704962,824,BOI,-,-,"Please name all of the ways you could use this object. Keep in mind that one object can have many uses. Separate your responses with a comma.",,y,23535,,,4156,22003,,,,"health concerns, diet advice",1
w10147992_scm,2w16hx8acw,"Affordance Norms_USM",1,22,2023-04-03T15:27:09+00:00,22.251963853836,28,"updated stim.csv",Version28.csv,"Version 28","List 28",plane,,821,5.458333333,1986,0.203318719,822,BOI,-,-,"Please name all of the ways you could use this object. Keep in mind that one object can have many uses. Separate your responses with a comma.",,y,21870,,,1593,16001,,,,"flying in, sitting in, touching, building",1
w10147992_scm,2w16hx8acw,"Affordance Norms_USM",1,23,2023-04-03T15:27:36+00:00,26.849775075912,28,"updated stim.csv",Version28.csv,"Version 28","List 28",spoon,,834,6.115384615,2482,0.213167636,835,BOI,-,-,"Please name all of the ways you could use this object. Keep in mind that one object can have many uses. Separate your responses with a comma.",,y,26485,,,2057,24588,,,,"eating with, cooking with, serving with",1
w10147992_scm,2w16hx8acw,"Affordance Norms_USM",1,24,2023-04-03T15:27:48+00:00,12.121605873108,28,"updated stim.csv",Version28.csv,"Version 28","List 28",cuticle,,827,5.08,737,0.981420344,828,BOI,-,-,"Please name all of the ways you could use this object. Keep in mind that one object can have many uses. Separate your responses with a comma.",,y,11738,,,3773,9542,,,,"protecting nail beds",1
w10147992_scm,2w16hx8acw,"Affordance Norms_USM",1,25,2023-04-03T15:28:28+00:00,40.038410186768,28,"updated stim.csv",Version28.csv,"Version 28","List 28",traveller,,832,4.5,2767,0.757322796,833,BOI,-,-,"Please name all of the ways you could use this object. Keep in mind that one object can have many uses. Separate your responses with a comma.",,y,39627,,,4216,38326,,,,"touring with",1
w10147992_scm,2w16hx8acw,"Affordance Norms_USM",1,26,2023-04-03T15:28:39+00:00,11.160449981689,28,"updated stim.csv",Version28.csv,"Version 28","List 28",raisin,,831,5.64,2134,0.272336245,832,BOI,-,-,"Please name all of the ways you could use this object. Keep in mind that one object can have many uses. Separate your responses with a comma.",,y,10737,,,1538,5566,,,,"eating, cooking with",1
w10147992_scm,2w16hx8acw,"Affordance Norms_USM",1,27,2023-04-03T15:28:54+00:00,15.213670015335,28,"updated stim.csv",Version28.csv,"Version 28","List 28",arm,,819,6.47826087,71,0.925944129,820,BOI,-,-,"Please name all of the ways you could use this object. Keep in mind that one object can have many uses. Separate your responses with a comma.",,y,14863,,,2734,13382,,,,"holding up, putting down, picking things up, holding things",1
w10147992_scm,2w16hx8acw,"Affordance Norms_USM",1,28,2023-04-03T15:29:15+00:00,20.275954961777,28,"updated stim.csv",Version28.csv,"Version 28","List 28",shipmate,,817,4.72,2345,0.774354107,818,BOI,-,-,"Please name all of the ways you could use this object. Keep in mind that one object can have many uses. Separate your responses with a comma.",,y,19870,,,7155,18793,,,,"cleaning the deck, sailing",1
w10147992_scm,2w16hx8acw,"Affordance Norms_USM",1,29,2023-04-03T15:29:27+00:00,12.289517879486,28,"updated stim.csv",Version28.csv,"Version 28","List 28",club,,830,5.458333333,576,0.337695285,831,BOI,-,-,"Please name all of the ways you could use this object. Keep in mind that one object can have many uses. Separate your responses with a comma.",,y,11939,,,3154,10622,,,,"partying in, drinking in, having fun",1
w10147992_scm,2w16hx8acw,"Affordance Norms_USM",1,30,2023-04-03T15:29:45+00:00,17.931485176086,28,"updated stim.csv",Version28.csv,"Version 28","List 28",undershirt,,837,5.954545455,2824,0.230934942,838,BOI,-,-,"Please name all of the ways you could use this object. Keep in mind that one object can have many uses. Separate your responses with a comma.",,y,17540,,,3324,16442,,,,"to make a dress shirt look nice",1
w10147992_scm,2w16hx8acw,"Affordance Norms_USM",1,31,2023-04-03T15:29:56+00:00,10.941545963287,28,"updated stim.csv",Version28.csv,"Version 28","List 28",player,,836,4.72,1999,0.968261434,837,BOI,-,-,"Please name all of the ways you could use this object. Keep in mind that one object can have many uses. Separate your responses with a comma.",,y,10557,,,2904,9282,,,,"playing sports, playing video games",1
w10147992_scm,2w16hx8acw,"Affordance Norms_USM",1,32,2023-04-03T15:30:03+00:00,7.5375900268555,28,"updated stim.csv",Version28.csv,"Version 28","List 28",hearse,,811,4.928571429,1274,0.673201316,812,BOI,-,-,"Please name all of the ways you could use this object. Keep in mind that one object can have many uses. Separate your responses with a comma.",,y,7142,,,2018,6117,,,,"pulling a casket",1
w10147992_scm,2w16hx8acw,"Affordance Norms_USM",1,33,2023-04-03T15:30:13+00:00,10.069005012512,28,"updated stim.csv",Version28.csv,"Version 28","List 28",inspector,,815,4.391304348,1359,0.242268193,816,BOI,-,-,"Please name all of the ways you could use this object. Keep in mind that one object can have many uses. Separate your responses with a comma.",,y,9664,,,3065,8373,,,,"inspecting a house or business",1
w10147992_scm,2w16hx8acw,"Affordance Norms_USM",1,34,2023-04-03T15:30:21+00:00,7.7560548782349,28,"updated stim.csv",Version28.csv,"Version 28","List 28",pea,,814,5.777777778,1890,0.861439366,815,BOI,-,-,"Please name all of the ways you could use this object. Keep in mind that one object can have many uses. Separate your responses with a comma.",,y,7365,,,1618,6237,,,,"eating, cooking with",1
w10147992_scm,2w16hx8acw,"Affordance Norms_USM",1,35,2023-04-03T15:30:29+00:00,7.5137810707092,28,"updated stim.csv",Version28.csv,"Version 28","List 28",carriage,,835,5.08,440,0.35198911,836,BOI,-,-,"Please name all of the ways you could use this object. Keep in mind that one object can have many uses. Separate your responses with a comma.",,y,7143,,,1920,5107,,,,"sitting in",1
w10147992_scm,2w16hx8acw,"Affordance Norms_USM",1,36,2023-04-03T15:30:35+00:00,6.3854849338531,28,"updated stim.csv",Version28.csv,"Version 28","List 28",eyelash,,813,5.423076923,935,0.527362706,814,BOI,-,-,"Please name all of the ways you could use this object. Keep in mind that one object can have many uses. Separate your responses with a comma.",,y,6023,,,1772,4741,,,,"to protect your eyes",1
w10147992_scm,2w16hx8acw,"Affordance Norms_USM",1,37,2023-04-03T15:30:42+00:00,6.6520159244537,28,"updated stim.csv",Version28.csv,"Version 28","List 28",mail,,838,6.125,1577,0.960668374,839,BOI,-,-,"Please name all of the ways you could use this object. Keep in mind that one object can have many uses. Separate your responses with a comma.",,y,6265,,,1476,5025,,,,"reading, opening, sending",1
w10147992_scm,2w16hx8acw,"Affordance Norms_USM",1,38,2023-04-03T15:30:47+00:00,5.049241065979,28,"updated stim.csv",Version28.csv,"Version 28","List 28",shorts,,828,6.04,2359,0.973765651,829,BOI,-,-,"Please name all of the ways you could use this object. Keep in mind that one object can have many uses. Separate your responses with a comma.",,y,4643,,,1160,3418,,,,"wearing, making",1
w10147992_scm,2w16hx8acw,"Affordance Norms_USM",1,39,2023-04-03T15:30:57+00:00,10.161925077438,28,"updated stim.csv",Version28.csv,"Version 28","List 28",haystack,,816,4.956521739,1262,0.659571138,817,BOI,-,-,"Please name all of the ways you could use this object. Keep in mind that one object can have many uses. Separate your responses with a comma.",,y,9807,,,8377,9315,,,,feeding,1
w10147992_scm,2w16hx8acw,"Affordance Norms_USM",1,40,2023-04-03T15:31:53+00:00,56.154024839401,28,"updated stim.csv",Version28.csv,"Version 28","List 28",roadway,,818,4.565217391,2178,0.192935669,819,BOI,-,-,"Please name all of the ways you could use this object. Keep in mind that one object can have many uses. Separate your responses with a comma.",,y,55224,,,21623,54781,,,,"driving on, walking on, biking on",1
w10147992_scm,2w16hx8acw,"Affordance Norms_USM",1,41,2023-04-03T15:31:56+00:00,2.8447639942169,28,"updated stim.csv",Version28.csv,"Version 28","List 28",,,,,,,0,Instruct,,,"You will now be asked a few questions about your experience today.",,"Instruct 4",2367,,,-1,-1,,,,,1
