Username,ID,ExperimentName,Session,Trial,Date,TimeDif,"Condition Number","Stimuli File","Order File","Condition Description","Condition Notes",Stimuli*Cue,Stimuli*Answer,Stimuli*Shuffle,"Stimuli*Stimuli Notes",Stimuli*Value,Stimuli*Rand,Procedure*Item,"Procedure*Trial Type","Procedure*Max Time","Procedure*Min Time",Procedure*Text,"Procedure*Procedure Notes",Procedure*Shuffle,Response*RT,Response*Response,Response*Accuracy,Response*RTfirst,Response*RTlast,Response*strictAcc,Response*lenientAcc,Response*focus,Response*JOL,Response*Focus
w10132581JH,uy9ex6yj2c,"Affordance Norms_USM",1,1,2023-04-26T03:26:21+00:00,11.766536951065,95,"updated stim.csv",Version95.csv,"Version 95","List 95",,,,,,,0,Instruct,-,10,"In this section, you will be presented with a series of objects. Please name as many possible uses for this object as you can think of by typing them in the box below each object.",,Instruct1,11550,,,-1,-1,,,,,1
w10132581JH,uy9ex6yj2c,"Affordance Norms_USM",1,2,2023-04-26T03:26:35+00:00,13.745255947113,95,"updated stim.csv",Version95.csv,"Version 95","List 95",,,,,,,0,Instruct,-,10,"Please keep in mind that a single object will have more than one use. For example, a ball can be thrown or can be bounced or even stepped on. When listing multiple uses for one object, please separate each use with a comma (i.e., thrown, bounced, stepped on)",,Instruct2,13423,,,-1,-1,,,,,1
w10132581JH,uy9ex6yj2c,"Affordance Norms_USM",1,3,2023-04-26T03:26:39+00:00,4.4657020568848,95,"updated stim.csv",Version95.csv,"Version 95","List 95",,,,,,,0,Instruct,-,-,"Before starting the experiment, you will complete a short practice sesstion. Press ENTER when you are ready to begin.",,Instruct3,4188,,,-1,-1,,,,,1
w10132581JH,uy9ex6yj2c,"Affordance Norms_USM",1,4,2023-04-26T03:27:28+00:00,49.201462984085,95,"updated stim.csv",Version95.csv,"Version 95","List 95",saucer,,3005,5.777777778,2249,0.304808074,3006,BOI,-,-,"Please name all of the ways you could use this object. Keep in mind that one object can have many uses. Separate your responses with a comma.",,n,48319,,,-1,-1,,,,"use to eat out of, place a bowl on, throw if needed",1
w10132581JH,uy9ex6yj2c,"Affordance Norms_USM",1,5,2023-04-26T03:28:05+00:00,37.210377931595,95,"updated stim.csv",Version95.csv,"Version 95","List 95",shortening,,3002,4.92,2358,0.604328482,3003,BOI,-,-,"Please name all of the ways you could use this object. Keep in mind that one object can have many uses. Separate your responses with a comma.",,n,36340,,,-1,-1,,,,"shorten hair, clothing, steps",1
w10132581JH,uy9ex6yj2c,"Affordance Norms_USM",1,6,2023-04-26T03:28:28+00:00,22.036411046982,95,"updated stim.csv",Version95.csv,"Version 95","List 95",spaghetti,,3003,6,2461,0.090379998,3004,BOI,-,-,"Please name all of the ways you could use this object. Keep in mind that one object can have many uses. Separate your responses with a comma.",,n,21687,,,-1,-1,,,,"eat, throw, cook",1
w10132581JH,uy9ex6yj2c,"Affordance Norms_USM",1,7,2023-04-26T03:29:50+00:00,82.789005994797,95,"updated stim.csv",Version95.csv,"Version 95","List 95",grain,,3004,5.217391304,1143,0.226863762,3005,BOI,-,-,"Please name all of the ways you could use this object. Keep in mind that one object can have many uses. Separate your responses with a comma.",,n,82494,,,-1,-1,,,,"make bread, used as sand, to make meal",0.981
w10132581JH,uy9ex6yj2c,"Affordance Norms_USM",1,8,2023-04-26T03:30:25+00:00,34.335589885712,95,"updated stim.csv",Version95.csv,"Version 95","List 95",paperwork,,3001,5.625,1866,0.124284162,3002,BOI,-,-,"Please name all of the ways you could use this object. Keep in mind that one object can have many uses. Separate your responses with a comma.",,n,33477,,,-1,-1,,,,"can be used for filing, keeping busy, to hold sensitive items",1
w10132581JH,uy9ex6yj2c,"Affordance Norms_USM",1,9,2023-04-26T03:30:28+00:00,3.8451461791992,95,"updated stim.csv",Version95.csv,"Version 95","List 95",,,,,,,0,Instruct,-,-,"You have completed this section. Press ENTER to continue",,"Instruct 5",3561,,,-1,-1,,,,,1
w10132581JH,uy9ex6yj2c,"Affordance Norms_USM",1,10,2023-04-26T03:30:31+00:00,2.0330638885498,95,"updated stim.csv",Version95.csv,"Version 95","List 95",,,,,,,0,Instruct,-,-,"You will now start the full experiment. Press ENTER when you are ready to begin.",,,1778,,,-1,-1,,,,,1
w10132581JH,uy9ex6yj2c,"Affordance Norms_USM",1,11,2023-04-26T03:31:04+00:00,33.569364070892,95,"updated stim.csv",Version95.csv,"Version 95","List 95",handgun,,2830,5.761904762,1236,0.798867093,2831,BOI,-,-,"Please name all of the ways you could use this object. Keep in mind that one object can have many uses. Separate your responses with a comma.",,y,32719,,,-1,-1,,,,"self defense, killing, intimidation",1
w10132581JH,uy9ex6yj2c,"Affordance Norms_USM",1,12,2023-04-26T03:31:32+00:00,28.064334869385,95,"updated stim.csv",Version95.csv,"Version 95","List 95",glider,,2824,4.5,1114,0.391306611,2825,BOI,-,-,"Please name all of the ways you could use this object. Keep in mind that one object can have many uses. Separate your responses with a comma.",,y,27711,,,-1,-1,,,,"gliding, sky diving",1
w10132581JH,uy9ex6yj2c,"Affordance Norms_USM",1,13,2023-04-26T03:31:47+00:00,14.524494171143,95,"updated stim.csv",Version95.csv,"Version 95","List 95",lemon,,2828,6.08,1489,0.902022384,2829,BOI,-,-,"Please name all of the ways you could use this object. Keep in mind that one object can have many uses. Separate your responses with a comma.",,y,14173,,,-1,-1,,,,"lemonade, arnold palmer, home remedies",1
w10132581JH,uy9ex6yj2c,"Affordance Norms_USM",1,14,2023-04-26T03:32:18+00:00,31.123744010925,95,"updated stim.csv",Version95.csv,"Version 95","List 95",cone,,2838,4.608695652,625,0.78702333,2839,BOI,-,-,"Please name all of the ways you could use this object. Keep in mind that one object can have many uses. Separate your responses with a comma.",,y,30785,,,-1,-1,,,,"stop traffic, hold icecream",1
w10132581JH,uy9ex6yj2c,"Affordance Norms_USM",1,15,2023-04-26T03:32:57+00:00,39.609248876572,95,"updated stim.csv",Version95.csv,"Version 95","List 95",munitions,,2836,4.80952381,1720,0.175849145,2837,BOI,-,-,"Please name all of the ways you could use this object. Keep in mind that one object can have many uses. Separate your responses with a comma.",,y,38730,,,-1,-1,,,,"load weapons, fire at enemies, load on and off",1
w10132581JH,uy9ex6yj2c,"Affordance Norms_USM",1,16,2023-04-26T03:33:37+00:00,39.377885103226,95,"updated stim.csv",Version95.csv,"Version 95","List 95",corkscrew,,2835,6.04,643,0.923622871,2836,BOI,-,-,"Please name all of the ways you could use this object. Keep in mind that one object can have many uses. Separate your responses with a comma.",,y,39026,,,-1,-1,,,,"remove cork from bottle, can be used as a weapon, can be used to fix things",1
w10132581JH,uy9ex6yj2c,"Affordance Norms_USM",1,17,2023-04-26T03:33:53+00:00,15.853979825974,95,"updated stim.csv",Version95.csv,"Version 95","List 95",streets,,2842,4.769230769,2565,0.781954291,2843,BOI,-,-,"Please name all of the ways you could use this object. Keep in mind that one object can have many uses. Separate your responses with a comma.",,y,15492,,,-1,-1,,,,"driving, walking, racing",1
w10132581JH,uy9ex6yj2c,"Affordance Norms_USM",1,18,2023-04-26T03:34:25+00:00,32.536449193954,95,"updated stim.csv",Version95.csv,"Version 95","List 95",farm,,2834,5.035714286,946,0.618075518,2835,BOI,-,-,"Please name all of the ways you could use this object. Keep in mind that one object can have many uses. Separate your responses with a comma.",,y,32167,,,-1,-1,,,,"farming, grow plants, produce crops, sell animals",1
w10132581JH,uy9ex6yj2c,"Affordance Norms_USM",1,19,2023-04-26T03:35:14+00:00,49.173202991486,95,"updated stim.csv",Version95.csv,"Version 95","List 95",jurist,,2837,4.380952381,1397,0.674726468,2838,BOI,-,-,"Please name all of the ways you could use this object. Keep in mind that one object can have many uses. Separate your responses with a comma.",,y,48840,,,-1,-1,,,,"can have a defendant go to prison or go free, looks at evidence, tries to escape jury duty",1
w10132581JH,uy9ex6yj2c,"Affordance Norms_USM",1,20,2023-04-26T03:36:18+00:00,63.352807998657,95,"updated stim.csv",Version95.csv,"Version 95","List 95",machine,,2823,5.791666667,1567,0.139052338,2824,BOI,-,-,"Please name all of the ways you could use this object. Keep in mind that one object can have many uses. Separate your responses with a comma.",,y,62495,,,-1,-1,,,,"helps people remove load, makes things easier, can be dangerous",1
w10132581JH,uy9ex6yj2c,"Affordance Norms_USM",1,21,2023-04-26T03:37:13+00:00,55.269085884094,95,"updated stim.csv",Version95.csv,"Version 95","List 95",cross,,2825,5,703,0.436202882,2826,BOI,-,-,"Please name all of the ways you could use this object. Keep in mind that one object can have many uses. Separate your responses with a comma.",,y,54403,,,-1,-1,,,,"used for crucifixion, death, brings victim excruciating pain, humiliates victim, kills victim",1
w10132581JH,uy9ex6yj2c,"Affordance Norms_USM",1,22,2023-04-26T03:37:33+00:00,20.157174110413,95,"updated stim.csv",Version95.csv,"Version 95","List 95",custodian,,2827,4.481481481,735,0.012794715,2828,BOI,-,-,"Please name all of the ways you could use this object. Keep in mind that one object can have many uses. Separate your responses with a comma.",,y,19797,,,-1,-1,,,,"cleans, fixes, gives advice, shows compassion",1
w10132581JH,uy9ex6yj2c,"Affordance Norms_USM",1,23,2023-04-26T03:38:57+00:00,83.807092905045,95,"updated stim.csv",Version95.csv,"Version 95","List 95",gadget,,2832,5.52,1069,0.476791818,2833,BOI,-,-,"Please name all of the ways you could use this object. Keep in mind that one object can have many uses. Separate your responses with a comma.",,y,82943,,,-1,-1,,,,"helps user, can give information, multiple uses",0.936
w10132581JH,uy9ex6yj2c,"Affordance Norms_USM",1,24,2023-04-26T03:39:45+00:00,47.878370046616,95,"updated stim.csv",Version95.csv,"Version 95","List 95",cashier,,2845,4.888888889,449,0.920953757,2846,BOI,-,-,"Please name all of the ways you could use this object. Keep in mind that one object can have many uses. Separate your responses with a comma.",,y,46965,,,-1,-1,,,,"gives and takes money from customer, interacts with customer",1
w10132581JH,uy9ex6yj2c,"Affordance Norms_USM",1,25,2023-04-26T03:40:20+00:00,35.560878992081,95,"updated stim.csv",Version95.csv,"Version 95","List 95",Taco,,2826,,3005,0.811321361,2827,BOI,-,-,"Please name all of the ways you could use this object. Keep in mind that one object can have many uses. Separate your responses with a comma.",,y,34674,,,-1,-1,,,,"used for food, can be used for bowel movement, brings joy",1
w10132581JH,uy9ex6yj2c,"Affordance Norms_USM",1,26,2023-04-26T03:40:57+00:00,36.985455036163,95,"updated stim.csv",Version95.csv,"Version 95","List 95",farmer,,2840,5.08,947,0.307237157,2841,BOI,-,-,"Please name all of the ways you could use this object. Keep in mind that one object can have many uses. Separate your responses with a comma.",,y,36129,,,-1,-1,,,,"farms vegetables, grows produce, takes care of animals, can give good advice",1
w10132581JH,uy9ex6yj2c,"Affordance Norms_USM",1,27,2023-04-26T03:41:19+00:00,21.185669898987,95,"updated stim.csv",Version95.csv,"Version 95","List 95",pony,,2829,5.375,2030,0.00357547,2830,BOI,-,-,"Please name all of the ways you could use this object. Keep in mind that one object can have many uses. Separate your responses with a comma.",,y,20840,,,-1,-1,,,,"riding, trotting, walking, standing looking pretty",1
w10132581JH,uy9ex6yj2c,"Affordance Norms_USM",1,28,2023-04-26T03:42:08+00:00,49.939860105515,95,"updated stim.csv",Version95.csv,"Version 95","List 95",bullfrog,,2846,4.884615385,355,0.509788133,2847,BOI,-,-,"Please name all of the ways you could use this object. Keep in mind that one object can have many uses. Separate your responses with a comma.",,y,49087,,,-1,-1,,,,"food, cooking, pranks",1
w10132581JH,uy9ex6yj2c,"Affordance Norms_USM",1,29,2023-04-26T03:43:16+00:00,67.640822887421,95,"updated stim.csv",Version95.csv,"Version 95","List 95",guidebook,,2822,5.791666667,1191,0.682587012,2823,BOI,-,-,"Please name all of the ways you could use this object. Keep in mind that one object can have many uses. Separate your responses with a comma.",,y,66744,,,-1,-1,,,,"guide reader, gives instructions, can be thrown, used as a source of guidelines",1
w10132581JH,uy9ex6yj2c,"Affordance Norms_USM",1,30,2023-04-26T03:43:47+00:00,30.964823961258,95,"updated stim.csv",Version95.csv,"Version 95","List 95",nightshirt,,2849,6.291666667,1773,0.667532644,2850,BOI,-,-,"Please name all of the ways you could use this object. Keep in mind that one object can have many uses. Separate your responses with a comma.",,y,30615,,,-1,-1,,,,"wear to sleep, can be used instead of pajamas",1
w10132581JH,uy9ex6yj2c,"Affordance Norms_USM",1,31,2023-04-26T03:44:37+00:00,49.527060985565,95,"updated stim.csv",Version95.csv,"Version 95","List 95",dinnerware,,2850,5.916666667,796,0.8361605,2851,BOI,-,-,"Please name all of the ways you could use this object. Keep in mind that one object can have many uses. Separate your responses with a comma.",,y,48674,,,-1,-1,,,,"used for decoration, if wanted used to eat out of, there for show",1
w10132581JH,uy9ex6yj2c,"Affordance Norms_USM",1,32,2023-04-26T03:46:14+00:00,97.54959821701,95,"updated stim.csv",Version95.csv,"Version 95","List 95",cardboard,,2833,5.739130435,431,0.868045014,2834,BOI,-,-,"Please name all of the ways you could use this object. Keep in mind that one object can have many uses. Separate your responses with a comma.",,y,96675,,,-1,-1,,,,"imaginary purposes, build a rocket, fake gingerbread house, swords, machines",0.988
w10132581JH,uy9ex6yj2c,"Affordance Norms_USM",1,33,2023-04-26T03:46:44+00:00,29.942223787308,95,"updated stim.csv",Version95.csv,"Version 95","List 95",pitcher,,2843,5.259259259,1980,0.37527782,2844,BOI,-,-,"Please name all of the ways you could use this object. Keep in mind that one object can have many uses. Separate your responses with a comma.",,y,29588,,,-1,-1,,,,"pour drinks, to be cleaned out, decoration ",1
w10132581JH,uy9ex6yj2c,"Affordance Norms_USM",1,34,2023-04-26T03:47:01+00:00,16.600983142853,95,"updated stim.csv",Version95.csv,"Version 95","List 95",nutmeg,,2848,4.608695652,1792,0.215590085,2849,BOI,-,-,"Please name all of the ways you could use this object. Keep in mind that one object can have many uses. Separate your responses with a comma.",,y,16257,,,-1,-1,,,,"cooking, remedies, spices",1
w10132581JH,uy9ex6yj2c,"Affordance Norms_USM",1,35,2023-04-26T03:47:33+00:00,32.69734287262,95,"updated stim.csv",Version95.csv,"Version 95","List 95",guillotine,,2847,4.52173913,1192,0.895691665,2848,BOI,-,-,"Please name all of the ways you could use this object. Keep in mind that one object can have many uses. Separate your responses with a comma.",,y,31825,,,-1,-1,,,,"decapitating subjects, instill fear, intimidation",1
w10132581JH,uy9ex6yj2c,"Affordance Norms_USM",1,36,2023-04-26T03:47:51+00:00,17.545696973801,95,"updated stim.csv",Version95.csv,"Version 95","List 95",duffel,,2821,4.380952381,864,0.87423404,2822,BOI,-,-,"Please name all of the ways you could use this object. Keep in mind that one object can have many uses. Separate your responses with a comma.",,y,17163,,,-1,-1,,,,"carry things",1
w10132581JH,uy9ex6yj2c,"Affordance Norms_USM",1,37,2023-04-26T03:48:42+00:00,50.629525184631,95,"updated stim.csv",Version95.csv,"Version 95","List 95",javelin,,2844,5.833333333,1375,0.671141287,2845,BOI,-,-,"Please name all of the ways you could use this object. Keep in mind that one object can have many uses. Separate your responses with a comma.",,y,49755,,,-1,-1,,,,"attack, thrown, fighting",0.936
w10132581JH,uy9ex6yj2c,"Affordance Norms_USM",1,38,2023-04-26T03:49:20+00:00,38.644562005997,95,"updated stim.csv",Version95.csv,"Version 95","List 95",politician,,2831,4.409090909,2024,0.401487238,2832,BOI,-,-,"Please name all of the ways you could use this object. Keep in mind that one object can have many uses. Separate your responses with a comma.",,y,37754,,,-1,-1,,,,"push government ideals, pushing their own agenda, help citizens",1
w10132581JH,uy9ex6yj2c,"Affordance Norms_USM",1,39,2023-04-26T03:49:39+00:00,19.212111949921,95,"updated stim.csv",Version95.csv,"Version 95","List 95",pajamas,,2839,6.222222222,1851,0.751031146,2840,BOI,-,-,"Please name all of the ways you could use this object. Keep in mind that one object can have many uses. Separate your responses with a comma.",,y,18871,,,-1,-1,,,,"sleep wear, comfort",1
w10132581JH,uy9ex6yj2c,"Affordance Norms_USM",1,40,2023-04-26T03:50:25+00:00,45.279098987579,95,"updated stim.csv",Version95.csv,"Version 95","List 95",petal,,2841,5.75,1933,0.208572878,2842,BOI,-,-,"Please name all of the ways you could use this object. Keep in mind that one object can have many uses. Separate your responses with a comma.",,y,44389,,,-1,-1,,,,"protection, attraction. repulsion",0.908
w10132581JH,uy9ex6yj2c,"Affordance Norms_USM",1,41,2023-04-26T03:50:28+00:00,2.8742671012878,95,"updated stim.csv",Version95.csv,"Version 95","List 95",,,,,,,0,Instruct,,,"You will now be asked a few questions about your experience today.",,"Instruct 4",2600,,,-1,-1,,,,,1
