Username,ID,ExperimentName,Session,Trial,Date,TimeDif,"Condition Number","Stimuli File","Order File","Condition Description","Condition Notes",Stimuli*Cue,Stimuli*Answer,Stimuli*Shuffle,"Stimuli*Stimuli Notes",Stimuli*Value,Stimuli*Rand,Procedure*Item,"Procedure*Trial Type","Procedure*Max Time","Procedure*Min Time",Procedure*Text,"Procedure*Procedure Notes",Procedure*Shuffle,Response*RT,Response*Response,Response*Accuracy,Response*RTfirst,Response*RTlast,Response*strictAcc,Response*lenientAcc,Response*focus,Response*JOL,Response*Focus
w10128965ER,u53isddpvd,"BOI Norms",1,1,2022-11-12T01:34:54+00:00,12.012850999832,22,"updated stim.csv",Version47.csv,"Version 47","List 47",,,,,,,0,Instruct,-,10,"In this section, you will be presented with a series of objects. Please name as many possible uses for this object as you can think of by typing them in the box below each object.",,Instruct1,11829,,,-1,-1,,,,,1
w10128965ER,u53isddpvd,"BOI Norms",1,2,2022-11-12T01:35:06+00:00,12.467415094376,22,"updated stim.csv",Version47.csv,"Version 47","List 47",,,,,,,0,Instruct,-,10,"Please keep in mind that a single object will have more than one use. For example, a ball can be thrown or can be bounced or even stepped on. When listing multiple uses for one object, please separate each use with a comma (i.e., thrown, bounced, stepped on)",,Instruct2,12072,,,-1,-1,,,,,1
w10128965ER,u53isddpvd,"BOI Norms",1,3,2022-11-12T01:35:11+00:00,4.5599880218506,22,"updated stim.csv",Version47.csv,"Version 47","List 47",,,,,,,0,Instruct,-,-,"Before starting the experiment, you will complete a short practice sesstion. Press ENTER when you are ready to begin.",,Instruct3,4425,,,-1,-1,,,,,1
w10128965ER,u53isddpvd,"BOI Norms",1,4,2022-11-12T01:35:47+00:00,35.779711008072,22,"updated stim.csv",Version47.csv,"Version 47","List 47",spaghetti,,3003,6,2461,0.090379998,3004,BOI,-,-,"Please name all of the ways you could use this object. Keep in mind that one object can have many uses. Separate your responses with a comma.",,n,35589,,,5175,29692,,,,"cook,eat",1
w10128965ER,u53isddpvd,"BOI Norms",1,5,2022-11-12T01:36:25+00:00,38.3885679245,22,"updated stim.csv",Version47.csv,"Version 47","List 47",shortening,,3002,4.92,2358,0.604328482,3003,BOI,-,-,"Please name all of the ways you could use this object. Keep in mind that one object can have many uses. Separate your responses with a comma.",,n,36788,,,35754,36175,,,,cook,0.574
w10128965ER,u53isddpvd,"BOI Norms",1,6,2022-11-12T01:37:01+00:00,35.918465137482,22,"updated stim.csv",Version47.csv,"Version 47","List 47",saucer,,3005,5.777777778,2249,0.304808074,3006,BOI,-,-,"Please name all of the ways you could use this object. Keep in mind that one object can have many uses. Separate your responses with a comma.",,n,35748,,,4516,34367,,,,"cook with, throw",0.875
w10128965ER,u53isddpvd,"BOI Norms",1,7,2022-11-12T01:37:21+00:00,19.933511972427,22,"updated stim.csv",Version47.csv,"Version 47","List 47",paperwork,,3001,5.625,1866,0.124284162,3002,BOI,-,-,"Please name all of the ways you could use this object. Keep in mind that one object can have many uses. Separate your responses with a comma.",,n,19761,,,3695,13157,,,,"file,seperate,shred",1
w10128965ER,u53isddpvd,"BOI Norms",1,8,2022-11-12T01:37:30+00:00,8.9554028511047,22,"updated stim.csv",Version47.csv,"Version 47","List 47",grain,,3004,5.217391304,1143,0.226863762,3005,BOI,-,-,"Please name all of the ways you could use this object. Keep in mind that one object can have many uses. Separate your responses with a comma.",,n,8593,,,1925,6588,,,,"eat,grow,cook",1
w10128965ER,u53isddpvd,"BOI Norms",1,9,2022-11-12T01:37:32+00:00,2.0549380779266,22,"updated stim.csv",Version47.csv,"Version 47","List 47",,,,,,,0,Instruct,-,-,"You have completed this section. Press ENTER to continue",,"Instruct 5",1914,,,-1,-1,,,,,1
w10128965ER,u53isddpvd,"BOI Norms",1,10,2022-11-12T01:37:34+00:00,1.4816319942474,22,"updated stim.csv",Version47.csv,"Version 47","List 47",,,,,,,0,Instruct,-,-,"You will now start the full experiment. Press ENTER when you are ready to begin.",,,1154,,,-1,-1,,,,,1
w10128965ER,u53isddpvd,"BOI Norms",1,11,2022-11-12T01:38:05+00:00,31.013714075089,22,"updated stim.csv",Version47.csv,"Version 47","List 47",headrest,,1395,5.346153846,1271,0.297710821,1396,BOI,-,-,"Please name all of the ways you could use this object. Keep in mind that one object can have many uses. Separate your responses with a comma.",,y,30862,,,3772,30105,,,,"sleep,relax,support",0.924
w10128965ER,u53isddpvd,"BOI Norms",1,12,2022-11-12T01:38:13+00:00,8.2885298728943,22,"updated stim.csv",Version47.csv,"Version 47","List 47",pot,,1383,6.16,2046,0.052592996,1384,BOI,-,-,"Please name all of the ways you could use this object. Keep in mind that one object can have many uses. Separate your responses with a comma.",,y,7983,,,2398,6583,,,,"cook,eat from",1
w10128965ER,u53isddpvd,"BOI Norms",1,13,2022-11-12T01:38:30+00:00,16.909307003021,22,"updated stim.csv",Version47.csv,"Version 47","List 47",duckweed,,1408,4.4,861,0.109146869,1409,BOI,-,-,"Please name all of the ways you could use this object. Keep in mind that one object can have many uses. Separate your responses with a comma.",,y,16747,,,15249,16268,,,,"look at",0.606
w10128965ER,u53isddpvd,"BOI Norms",1,14,2022-11-12T01:38:39+00:00,9.5130989551544,22,"updated stim.csv",Version47.csv,"Version 47","List 47",kit,,1404,4.739130435,1424,0.351244605,1405,BOI,-,-,"Please name all of the ways you could use this object. Keep in mind that one object can have many uses. Separate your responses with a comma.",,y,9318,,,8622,8890,,,,use,1
w10128965ER,u53isddpvd,"BOI Norms",1,15,2022-11-12T01:39:10+00:00,30.978186130524,22,"updated stim.csv",Version47.csv,"Version 47","List 47",loin,,1393,4.391304348,1543,0.390491244,1394,BOI,-,-,"Please name all of the ways you could use this object. Keep in mind that one object can have many uses. Separate your responses with a comma.",,y,30756,,,26964,30180,,,,"eat, cook",0.586
w10128965ER,u53isddpvd,"BOI Norms",1,16,2022-11-12T01:39:33+00:00,23.166103839874,22,"updated stim.csv",Version47.csv,"Version 47","List 47",newt,,1396,4.391304348,1765,0.685149421,1397,BOI,-,-,"Please name all of the ways you could use this object. Keep in mind that one object can have many uses. Separate your responses with a comma.",,y,22938,,,2732,18945,,,,"research, pet, ",0.857
w10128965ER,u53isddpvd,"BOI Norms",1,17,2022-11-12T01:40:16+00:00,42.257646083832,22,"updated stim.csv",Version47.csv,"Version 47","List 47",stream,,1391,4.678571429,2562,0.675991491,1392,BOI,-,-,"Please name all of the ways you could use this object. Keep in mind that one object can have many uses. Separate your responses with a comma.",,y,41108,,,38810,40204,,,,"drink from",1
w10128965ER,u53isddpvd,"BOI Norms",1,18,2022-11-12T01:40:30+00:00,14.351516962051,22,"updated stim.csv",Version47.csv,"Version 47","List 47",secretary,,1405,5.2,2305,0.924368647,1406,BOI,-,-,"Please name all of the ways you could use this object. Keep in mind that one object can have many uses. Separate your responses with a comma.",,y,14152,,,10653,13813,,,,invest,1
w10128965ER,u53isddpvd,"BOI Norms",1,19,2022-11-12T01:40:36+00:00,5.9276690483093,22,"updated stim.csv",Version47.csv,"Version 47","List 47",sled,,1392,6.086956522,2406,0.940566266,1393,BOI,-,-,"Please name all of the ways you could use this object. Keep in mind that one object can have many uses. Separate your responses with a comma.",,y,5738,,,2112,2716,,,,ride,1
w10128965ER,u53isddpvd,"BOI Norms",1,20,2022-11-12T01:40:47+00:00,11.168440103531,22,"updated stim.csv",Version47.csv,"Version 47","List 47",hamster,,1390,5.583333333,1226,0.187879003,1391,BOI,-,-,"Please name all of the ways you could use this object. Keep in mind that one object can have many uses. Separate your responses with a comma.",,y,11003,,,3980,8632,,,,"play with, feed, pet",1
w10128965ER,u53isddpvd,"BOI Norms",1,21,2022-11-12T01:40:58+00:00,10.787091970444,22,"updated stim.csv",Version47.csv,"Version 47","List 47",chest,,1403,5.851851852,513,0.740799147,1404,BOI,-,-,"Please name all of the ways you could use this object. Keep in mind that one object can have many uses. Separate your responses with a comma.",,y,10625,,,3955,7178,,,,touch,1
w10128965ER,u53isddpvd,"BOI Norms",1,22,2022-11-12T01:41:16+00:00,17.933990955353,22,"updated stim.csv",Version47.csv,"Version 47","List 47",animal,,1407,5.958333333,41,0.056172512,1408,BOI,-,-,"Please name all of the ways you could use this object. Keep in mind that one object can have many uses. Separate your responses with a comma.",,y,17767,,,4725,12558,,,,"play with, pet, train",1
w10128965ER,u53isddpvd,"BOI Norms",1,23,2022-11-12T01:41:29+00:00,12.997461080551,22,"updated stim.csv",Version47.csv,"Version 47","List 47",gate,,1388,5.956521739,1085,0.228467401,1389,BOI,-,-,"Please name all of the ways you could use this object. Keep in mind that one object can have many uses. Separate your responses with a comma.",,y,12819,,,1487,12272,,,,"open, close, climb, lock, unlock",1
w10128965ER,u53isddpvd,"BOI Norms",1,24,2022-11-12T01:41:54+00:00,25.046499967575,22,"updated stim.csv",Version47.csv,"Version 47","List 47",radiologist,,1399,4.913043478,2123,0.268459121,1400,BOI,-,-,"Please name all of the ways you could use this object. Keep in mind that one object can have many uses. Separate your responses with a comma.",,y,23882,,,23048,23431,,,,scan,0.64
w10128965ER,u53isddpvd,"BOI Norms",1,25,2022-11-12T01:42:07+00:00,13.523849964142,22,"updated stim.csv",Version47.csv,"Version 47","List 47",comb,,1387,5.923076923,606,0.836607902,1388,BOI,-,-,"Please name all of the ways you could use this object. Keep in mind that one object can have many uses. Separate your responses with a comma.",,y,13347,,,11001,12794,,,,brush,1
w10128965ER,u53isddpvd,"BOI Norms",1,26,2022-11-12T01:42:17+00:00,10.014105081558,22,"updated stim.csv",Version47.csv,"Version 47","List 47",pet,,1384,6.214285714,1932,0.252455217,1385,BOI,-,-,"Please name all of the ways you could use this object. Keep in mind that one object can have many uses. Separate your responses with a comma.",,y,9840,,,2006,8695,,,,"pet, play with, train, feed",1
w10128965ER,u53isddpvd,"BOI Norms",1,27,2022-11-12T01:42:24+00:00,6.730388879776,22,"updated stim.csv",Version47.csv,"Version 47","List 47",spear,,1382,5.208333333,2465,0.087926144,1383,BOI,-,-,"Please name all of the ways you could use this object. Keep in mind that one object can have many uses. Separate your responses with a comma.",,y,6588,,,1905,2746,,,,throw,1
w10128965ER,u53isddpvd,"BOI Norms",1,28,2022-11-12T01:42:40+00:00,15.810828924179,22,"updated stim.csv",Version47.csv,"Version 47","List 47",handkerchief,,1410,5.72,1238,0.781838357,1411,BOI,-,-,"Please name all of the ways you could use this object. Keep in mind that one object can have many uses. Separate your responses with a comma.",,y,15652,,,2297,11519,,,,wipe,1
w10128965ER,u53isddpvd,"BOI Norms",1,29,2022-11-12T01:42:51+00:00,10.981240987778,22,"updated stim.csv",Version47.csv,"Version 47","List 47",apron,,1385,5.96,67,0.690663314,1386,BOI,-,-,"Please name all of the ways you could use this object. Keep in mind that one object can have many uses. Separate your responses with a comma.",,y,10798,,,2224,9154,,,,"wear, wash, dry",1
w10128965ER,u53isddpvd,"BOI Norms",1,30,2022-11-12T01:43:06+00:00,15.079171180725,22,"updated stim.csv",Version47.csv,"Version 47","List 47",harpsichord,,1386,4.904761905,1255,0.885561554,1387,BOI,-,-,"Please name all of the ways you could use this object. Keep in mind that one object can have many uses. Separate your responses with a comma.",,y,14894,,,12974,14353,,,,"play ",0.737
w10128965ER,u53isddpvd,"BOI Norms",1,31,2022-11-12T01:44:18+00:00,71.585280895233,22,"updated stim.csv",Version47.csv,"Version 47","List 47",mink,,1381,4.904761905,1664,0.367518385,1382,BOI,-,-,"Please name all of the ways you could use this object. Keep in mind that one object can have many uses. Separate your responses with a comma.",,y,71392,,,59174,69327,,,,"pet, train, feed, play with",0.969
w10128965ER,u53isddpvd,"BOI Norms",1,32,2022-11-12T01:44:27+00:00,9.4177839756012,22,"updated stim.csv",Version47.csv,"Version 47","List 47",floorboard,,1397,5.791666667,1009,0.177991439,1398,BOI,-,-,"Please name all of the ways you could use this object. Keep in mind that one object can have many uses. Separate your responses with a comma.",,y,9239,,,2382,7317,,,,"stand on, break",1
w10128965ER,u53isddpvd,"BOI Norms",1,33,2022-11-12T01:44:36+00:00,8.693932056427,22,"updated stim.csv",Version47.csv,"Version 47","List 47",tortoise,,1402,4.541666667,2741,0.896019588,1403,BOI,-,-,"Please name all of the ways you could use this object. Keep in mind that one object can have many uses. Separate your responses with a comma.",,y,8518,,,1850,8154,,,,"train, play with, pet, feed",1
w10128965ER,u53isddpvd,"BOI Norms",1,34,2022-11-12T01:44:45+00:00,9.0106909275055,22,"updated stim.csv",Version47.csv,"Version 47","List 47",keepsake,,1400,4.75,1403,0.353530379,1401,BOI,-,-,"Please name all of the ways you could use this object. Keep in mind that one object can have many uses. Separate your responses with a comma.",,y,8855,,,3081,8332,,,,"cherish, admire",1
w10128965ER,u53isddpvd,"BOI Norms",1,35,2022-11-12T01:44:57+00:00,12.539302110672,22,"updated stim.csv",Version47.csv,"Version 47","List 47",firstborn,,1394,4.518518519,988,0.444358474,1395,BOI,-,-,"Please name all of the ways you could use this object. Keep in mind that one object can have many uses. Separate your responses with a comma.",,y,12161,,,1813,10398,,,,"love, feed, care",1
w10128965ER,u53isddpvd,"BOI Norms",1,36,2022-11-12T01:45:32+00:00,34.404423952103,22,"updated stim.csv",Version47.csv,"Version 47","List 47",longbow,,1401,5.285714286,1546,0.172928755,1402,BOI,-,-,"Please name all of the ways you could use this object. Keep in mind that one object can have many uses. Separate your responses with a comma.",,y,34191,,,31289,32541,,,,"shoot with",0.578
w10128965ER,u53isddpvd,"BOI Norms",1,37,2022-11-12T01:45:43+00:00,10.95432806015,22,"updated stim.csv",Version47.csv,"Version 47","List 47",newspaper,,1406,5.76,1760,0.182265176,1407,BOI,-,-,"Please name all of the ways you could use this object. Keep in mind that one object can have many uses. Separate your responses with a comma.",,y,10561,,,1693,10117,,,,"read, craft with, cut, tear, shred",1
w10128965ER,u53isddpvd,"BOI Norms",1,38,2022-11-12T01:46:02+00:00,19.761651992798,22,"updated stim.csv",Version47.csv,"Version 47","List 47",axle,,1398,4.904761905,108,0.159786934,1399,BOI,-,-,"Please name all of the ways you could use this object. Keep in mind that one object can have many uses. Separate your responses with a comma.",,y,19602,,,18725,19120,,,,spin,0.595
w10128965ER,u53isddpvd,"BOI Norms",1,39,2022-11-12T01:46:10+00:00,7.2389769554138,22,"updated stim.csv",Version47.csv,"Version 47","List 47",confetti,,1389,4.76,626,0.133315159,1390,BOI,-,-,"Please name all of the ways you could use this object. Keep in mind that one object can have many uses. Separate your responses with a comma.",,y,7071,,,1855,6582,,,,"throw, catch",1
w10128965ER,u53isddpvd,"BOI Norms",1,40,2022-11-12T01:46:31+00:00,21.626130104065,22,"updated stim.csv",Version47.csv,"Version 47","List 47",comforter,,1409,6.16,607,0.457027903,1410,BOI,-,-,"Please name all of the ways you could use this object. Keep in mind that one object can have many uses. Separate your responses with a comma.",,y,21446,,,3983,20955,,,,"sleep in, lie, wash, dry",1
w10128965ER,u53isddpvd,"BOI Norms",1,41,2022-11-12T01:46:34+00:00,2.2858748435974,22,"updated stim.csv",Version47.csv,"Version 47","List 47",,,,,,,0,Instruct,,,"You will now be asked a few questions about your experience today.",,"Instruct 4",1918,,,-1,-1,,,,,1
