Username,ID,ExperimentName,Session,Trial,Date,TimeDif,"Condition Number","Stimuli File","Order File","Condition Description","Condition Notes",Stimuli*Cue,Stimuli*Answer,Stimuli*Shuffle,"Stimuli*Stimuli Notes",Stimuli*Value,Procedure*Item,"Procedure*Trial Type","Procedure*Max Time","Procedure*Min Time",Procedure*Text,"Procedure*Procedure Notes",Procedure*Shuffle,Response*RT,Response*Response,Response*Accuracy,Response*RTfirst,Response*RTlast,Response*strictAcc,Response*lenientAcc,Response*focus,Response*JOL,Response*Focus
w10120216_jwwj,emoo5p1inl,"BOI Norms",1,1,2022-11-30T17:07:20+00:00,13.460259914398,17,"updated stim.csv",Version67.csv,"Version 67","List 67",,,,,,0,Instruct,-,10,"In this section, you will be presented with a series of objects. Please name as many possible uses for this object as you can think of by typing them in the box below each object.",,Instruct1,13299,,,-1,-1,,,,,1
w10120216_jwwj,emoo5p1inl,"BOI Norms",1,2,2022-11-30T17:07:41+00:00,20.721455097198,17,"updated stim.csv",Version67.csv,"Version 67","List 67",,,,,,0,Instruct,-,10,"Please keep in mind that a single object will have more than one use. For example, a ball can be thrown or can be bounced or even stepped on. When listing multiple uses for one object, please separate each use with a comma (i.e., thrown, bounced, stepped on)",,Instruct2,20446,,,-1,-1,,,,,1
w10120216_jwwj,emoo5p1inl,"BOI Norms",1,3,2022-11-30T17:07:46+00:00,4.9216470718384,17,"updated stim.csv",Version67.csv,"Version 67","List 67",,,,,,0,Instruct,-,-,"Before starting the experiment, you will complete a short practice sesstion. Press ENTER when you are ready to begin.",,Instruct3,4764,,,-1,-1,,,,,1
w10120216_jwwj,emoo5p1inl,"BOI Norms",1,4,2022-11-30T17:08:16+00:00,29.85741686821,17,"updated stim.csv",Version67.csv,"Version 67","List 67",spaghetti,,3003,6,2461,3004,BOI,-,-,"Please name all of the ways you could use this object. Keep in mind that one object can have many uses. Separate your responses with a comma.",,n,29481,,,8332,28232,,,,"made, cooked, eaten, burned, thrown away",1
w10120216_jwwj,emoo5p1inl,"BOI Norms",1,5,2022-11-30T17:08:40+00:00,24.493153095245,17,"updated stim.csv",Version67.csv,"Version 67","List 67",grain,,3004,5.217391304,1143,3005,BOI,-,-,"Please name all of the ways you could use this object. Keep in mind that one object can have many uses. Separate your responses with a comma.",,n,24223,,,3621,23853,,,,"tossed, mixed, kneeded",1
w10120216_jwwj,emoo5p1inl,"BOI Norms",1,6,2022-11-30T17:08:51+00:00,10.265570878983,17,"updated stim.csv",Version67.csv,"Version 67","List 67",shortening,,3002,4.92,2358,3003,BOI,-,-,"Please name all of the ways you could use this object. Keep in mind that one object can have many uses. Separate your responses with a comma.",,n,10100,,,5155,9151,,,,"added, mixed, cooked",1
w10120216_jwwj,emoo5p1inl,"BOI Norms",1,7,2022-11-30T17:09:19+00:00,28.675065994263,17,"updated stim.csv",Version67.csv,"Version 67","List 67",saucer,,3005,5.777777778,2249,3006,BOI,-,-,"Please name all of the ways you could use this object. Keep in mind that one object can have many uses. Separate your responses with a comma.",,n,28373,,,6266,25637,,,,"given, tossed, thrown, placed, flying",1
w10120216_jwwj,emoo5p1inl,"BOI Norms",1,8,2022-11-30T17:10:15+00:00,55.914262056351,17,"updated stim.csv",Version67.csv,"Version 67","List 67",paperwork,,3001,5.625,1866,3002,BOI,-,-,"Please name all of the ways you could use this object. Keep in mind that one object can have many uses. Separate your responses with a comma.",,n,55650,,,3943,54827,,,,"handled, signed, thrown away, disposed, shredded, filed, held ",1
w10120216_jwwj,emoo5p1inl,"BOI Norms",1,9,2022-11-30T17:10:17+00:00,1.6701240539551,17,"updated stim.csv",Version67.csv,"Version 67","List 67",,,,,,0,Instruct,-,-,"You have completed this section. Press ENTER to continue",,"Instruct 5",1520,,,-1,-1,,,,,1
w10120216_jwwj,emoo5p1inl,"BOI Norms",1,10,2022-11-30T17:10:19+00:00,2.2662899494171,17,"updated stim.csv",Version67.csv,"Version 67","List 67",,,,,,0,Instruct,-,-,"You will now start the full experiment. Press ENTER when you are ready to begin.",,,2082,,,-1,-1,,,,,1
w10120216_jwwj,emoo5p1inl,"BOI Norms",1,11,2022-11-30T17:10:47+00:00,28.102710962296,17,"updated stim.csv",Version67.csv,"Version 67","List 67",suds,,1986,4.652173913,2578,1987,BOI,-,-,"Please name all of the ways you could use this object. Keep in mind that one object can have many uses. Separate your responses with a comma.",,y,27911,,,4633,26131,,,,"wiped, scrubbed, washed",1
w10120216_jwwj,emoo5p1inl,"BOI Norms",1,12,2022-11-30T17:11:30+00:00,42.382230997086,17,"updated stim.csv",Version67.csv,"Version 67","List 67",hairdo,,1983,5.08,1211,1984,BOI,-,-,"Please name all of the ways you could use this object. Keep in mind that one object can have many uses. Separate your responses with a comma.",,y,42189,,,9964,40802,,,,"curl, straightened, crinkled, colored, cut, braided, slicked",1
w10120216_jwwj,emoo5p1inl,"BOI Norms",1,13,2022-11-30T17:12:37+00:00,67.45064997673,17,"updated stim.csv",Version67.csv,"Version 67","List 67",shoulder,,1998,5.869565217,2362,1999,BOI,-,-,"Please name all of the ways you could use this object. Keep in mind that one object can have many uses. Separate your responses with a comma.",,y,67106,,,19170,64722,,,,"throw, shrug, hump",1
w10120216_jwwj,emoo5p1inl,"BOI Norms",1,14,2022-11-30T17:14:04+00:00,87.269690990448,17,"updated stim.csv",Version67.csv,"Version 67","List 67",female,,1994,5.689655172,960,1995,BOI,-,-,"Please name all of the ways you could use this object. Keep in mind that one object can have many uses. Separate your responses with a comma.",,y,86932,,,4820,86423,,,,"kiss, pick up, respect, impregnate, hug, disrespect",1
w10120216_jwwj,emoo5p1inl,"BOI Norms",1,15,2022-11-30T17:14:09+00:00,4.4122681617737,17,"updated stim.csv",Version67.csv,"Version 67","List 67",grater,,2006,4.92,1162,2007,BOI,-,-,"Please name all of the ways you could use this object. Keep in mind that one object can have many uses. Separate your responses with a comma.",,y,4249,,,2953,3648,,,,grate,1
w10120216_jwwj,emoo5p1inl,"BOI Norms",1,16,2022-11-30T17:14:39+00:00,30.331555843353,17,"updated stim.csv",Version67.csv,"Version 67","List 67",volleyball,,2003,6.52,2873,2004,BOI,-,-,"Please name all of the ways you could use this object. Keep in mind that one object can have many uses. Separate your responses with a comma.",,y,30104,,,1463,29154,,,,"toss, bounce, step on, throw, hit, grab, spike, hold, roll",1
w10120216_jwwj,emoo5p1inl,"BOI Norms",1,17,2022-11-30T17:14:50+00:00,11.112171173096,17,"updated stim.csv",Version67.csv,"Version 67","List 67",cauldron,,1982,4.8,465,1983,BOI,-,-,"Please name all of the ways you could use this object. Keep in mind that one object can have many uses. Separate your responses with a comma.",,y,10893,,,1531,7480,,,,"stir, mix, cook,",1
w10120216_jwwj,emoo5p1inl,"BOI Norms",1,18,2022-11-30T17:15:38+00:00,47.804480791092,17,"updated stim.csv",Version67.csv,"Version 67","List 67",magnolia,,1991,5.416666667,1573,1992,BOI,-,-,"Please name all of the ways you could use this object. Keep in mind that one object can have many uses. Separate your responses with a comma.",,y,47620,,,5187,14112,,,,"plant, paint, color, grow,",1
w10120216_jwwj,emoo5p1inl,"BOI Norms",1,19,2022-11-30T17:16:20+00:00,42.136272192001,17,"updated stim.csv",Version67.csv,"Version 67","List 67",nightclub,,1988,4.409090909,1768,1989,BOI,-,-,"Please name all of the ways you could use this object. Keep in mind that one object can have many uses. Separate your responses with a comma.",,y,41927,,,7697,41039,,,,"open, own, close, dance in, drink in, eat in, meet people in,",1
w10120216_jwwj,emoo5p1inl,"BOI Norms",1,20,2022-11-30T17:16:39+00:00,18.649271965027,17,"updated stim.csv",Version67.csv,"Version 67","List 67",editor,,1993,4.5,889,1994,BOI,-,-,"Please name all of the ways you could use this object. Keep in mind that one object can have many uses. Separate your responses with a comma.",,y,18389,,,3208,14958,,,,"meet, become, trust, ",1
w10120216_jwwj,emoo5p1inl,"BOI Norms",1,21,2022-11-30T17:18:12+00:00,93.703256845474,17,"updated stim.csv",Version67.csv,"Version 67","List 67",spacesuit,,1989,4.814814815,2459,1990,BOI,-,-,"Please name all of the ways you could use this object. Keep in mind that one object can have many uses. Separate your responses with a comma.",,y,93349,,,2073,3845,,,,"wear, ",1
w10120216_jwwj,emoo5p1inl,"BOI Norms",1,22,2022-11-30T17:18:55+00:00,42.239623069763,17,"updated stim.csv",Version67.csv,"Version 67","List 67",tableware,,1997,6.083333333,2620,1998,BOI,-,-,"Please name all of the ways you could use this object. Keep in mind that one object can have many uses. Separate your responses with a comma.",,y,41998,,,1399,12894,,,,"set, clean , change, eat on, ",1
w10120216_jwwj,emoo5p1inl,"BOI Norms",1,23,2022-11-30T17:23:43+00:00,288.14746904373,17,"updated stim.csv",Version67.csv,"Version 67","List 67",pizza,,1990,6.541666667,1982,1991,BOI,-,-,"Please name all of the ways you could use this object. Keep in mind that one object can have many uses. Separate your responses with a comma.",,y,287814,,,21802,286945,,,,"eat, make, cut, slice, toss",1
w10120216_jwwj,emoo5p1inl,"BOI Norms",1,24,2022-11-30T17:23:51+00:00,7.728061914444,17,"updated stim.csv",Version67.csv,"Version 67","List 67",shopkeeper,,2010,4.555555556,2353,2011,BOI,-,-,"Please name all of the ways you could use this object. Keep in mind that one object can have many uses. Separate your responses with a comma.",,y,7556,,,5298,6897,,,,"keep the shop",1
w10120216_jwwj,emoo5p1inl,"BOI Norms",1,25,2022-11-30T17:24:05+00:00,14.802608966827,17,"updated stim.csv",Version67.csv,"Version 67","List 67",skeleton,,2007,4.347826087,2392,2008,BOI,-,-,"Please name all of the ways you could use this object. Keep in mind that one object can have many uses. Separate your responses with a comma.",,y,14578,,,3986,7444,,,,"use, move, ",1
w10120216_jwwj,emoo5p1inl,"BOI Norms",1,26,2022-11-30T17:24:14+00:00,8.5603361129761,17,"updated stim.csv",Version67.csv,"Version 67","List 67",catalogue,,2009,5.916666667,456,2010,BOI,-,-,"Please name all of the ways you could use this object. Keep in mind that one object can have many uses. Separate your responses with a comma.",,y,8379,,,1448,5365,,,,"read, fan, toss, fold",1
w10120216_jwwj,emoo5p1inl,"BOI Norms",1,27,2022-11-30T17:24:39+00:00,25.129352092743,17,"updated stim.csv",Version67.csv,"Version 67","List 67",road,,1987,5.896551724,2176,1988,BOI,-,-,"Please name all of the ways you could use this object. Keep in mind that one object can have many uses. Separate your responses with a comma.",,y,24745,,,1118,23475,,,,"drive on, fix, press, paint",1
w10120216_jwwj,emoo5p1inl,"BOI Norms",1,28,2022-11-30T17:24:49+00:00,9.9680709838867,17,"updated stim.csv",Version67.csv,"Version 67","List 67",whiskey,,2000,6.08,2930,2001,BOI,-,-,"Please name all of the ways you could use this object. Keep in mind that one object can have many uses. Separate your responses with a comma.",,y,9577,,,1195,6040,,,,"drink, cook, mix,",1
w10120216_jwwj,emoo5p1inl,"BOI Norms",1,29,2022-11-30T17:24:54+00:00,5.3572549819946,17,"updated stim.csv",Version67.csv,"Version 67","List 67",medics,,2008,4.28,1639,2009,BOI,-,-,"Please name all of the ways you could use this object. Keep in mind that one object can have many uses. Separate your responses with a comma.",,y,5155,,,2143,3225,,,,"use,",1
w10120216_jwwj,emoo5p1inl,"BOI Norms",1,30,2022-11-30T17:25:58+00:00,63.630173921585,17,"updated stim.csv",Version67.csv,"Version 67","List 67",milk,,2001,5.956521739,1660,2002,BOI,-,-,"Please name all of the ways you could use this object. Keep in mind that one object can have many uses. Separate your responses with a comma.",,y,63413,,,1255,63017,,,,"drink, mix, pour, boil, cure, spoil",1
w10120216_jwwj,emoo5p1inl,"BOI Norms",1,31,2022-11-30T17:26:05+00:00,6.9328470230103,17,"updated stim.csv",Version67.csv,"Version 67","List 67",footwear,,2005,6.434782609,1040,2006,BOI,-,-,"Please name all of the ways you could use this object. Keep in mind that one object can have many uses. Separate your responses with a comma.",,y,6486,,,1005,5852,,,,"wear, cut, run in,",1
w10120216_jwwj,emoo5p1inl,"BOI Norms",1,32,2022-11-30T17:26:14+00:00,8.8127379417419,17,"updated stim.csv",Version67.csv,"Version 67","List 67",pennant,,2002,5.153846154,1916,2003,BOI,-,-,"Please name all of the ways you could use this object. Keep in mind that one object can have many uses. Separate your responses with a comma.",,y,8662,,,1430,7694,,,,"wear, change, take off, ",1
w10120216_jwwj,emoo5p1inl,"BOI Norms",1,33,2022-11-30T17:26:20+00:00,5.8536190986633,17,"updated stim.csv",Version67.csv,"Version 67","List 67",chauffeur,,2004,4.84,498,2005,BOI,-,-,"Please name all of the ways you could use this object. Keep in mind that one object can have many uses. Separate your responses with a comma.",,y,5702,,,4594,5035,,,,ride,1
w10120216_jwwj,emoo5p1inl,"BOI Norms",1,34,2022-11-30T17:26:46+00:00,26.145909070969,17,"updated stim.csv",Version67.csv,"Version 67","List 67",leg,,1981,5.875,1486,1982,BOI,-,-,"Please name all of the ways you could use this object. Keep in mind that one object can have many uses. Separate your responses with a comma.",,y,25891,,,2030,23680,,,,"tattoo, rub, lotion up, shave, run, jog, walk",1
w10120216_jwwj,emoo5p1inl,"BOI Norms",1,35,2022-11-30T17:26:59+00:00,13.062927961349,17,"updated stim.csv",Version67.csv,"Version 67","List 67",crane,,1985,4.695652174,681,1986,BOI,-,-,"Please name all of the ways you could use this object. Keep in mind that one object can have many uses. Separate your responses with a comma.",,y,12717,,,2075,11921,,,,"watch, operate, pick up things,",1
w10120216_jwwj,emoo5p1inl,"BOI Norms",1,36,2022-11-30T17:27:42+00:00,42.991353034973,17,"updated stim.csv",Version67.csv,"Version 67","List 67",peg,,1995,4.391304348,1908,1996,BOI,-,-,"Please name all of the ways you could use this object. Keep in mind that one object can have many uses. Separate your responses with a comma.",,y,42683,,,-1,-1,,,,,1
w10120216_jwwj,emoo5p1inl,"BOI Norms",1,37,2022-11-30T17:28:19+00:00,37.456218957901,17,"updated stim.csv",Version67.csv,"Version 67","List 67",street,,1992,4.708333333,2563,1993,BOI,-,-,"Please name all of the ways you could use this object. Keep in mind that one object can have many uses. Separate your responses with a comma.",,y,37140,,,1297,36717,,,,"walk, paint, run in, jog in, lay in, drive in , die in, beat in ",1
w10120216_jwwj,emoo5p1inl,"BOI Norms",1,38,2022-11-30T17:28:26+00:00,6.5234019756317,17,"updated stim.csv",Version67.csv,"Version 67","List 67",tartar,,1999,4.48,2636,2000,BOI,-,-,"Please name all of the ways you could use this object. Keep in mind that one object can have many uses. Separate your responses with a comma.",,y,6303,,,3229,6075,,,,"dip, eat",1
w10120216_jwwj,emoo5p1inl,"BOI Norms",1,39,2022-11-30T17:28:36+00:00,10.08881688118,17,"updated stim.csv",Version67.csv,"Version 67","List 67",plexiglas,,1984,5.041666667,2006,1985,BOI,-,-,"Please name all of the ways you could use this object. Keep in mind that one object can have many uses. Separate your responses with a comma.",,y,9674,,,1506,9412,,,,"use, apply, lay",1
w10120216_jwwj,emoo5p1inl,"BOI Norms",1,40,2022-11-30T17:28:46+00:00,10.667714118958,17,"updated stim.csv",Version67.csv,"Version 67","List 67",doorstop,,1996,5.260869565,829,1997,BOI,-,-,"Please name all of the ways you could use this object. Keep in mind that one object can have many uses. Separate your responses with a comma.",,y,10297,,,3169,9259,,,,"stop, leave",1
w10120216_jwwj,emoo5p1inl,"BOI Norms",1,41,2022-11-30T17:28:55+00:00,8.4567348957062,17,"updated stim.csv",Version67.csv,"Version 67","List 67",,,,,,0,Instruct,,,"You will now be asked a few questions about your experience today.",,"Instruct 4",8281,,,-1,-1,,,,,1
