Username,ID,ExperimentName,Session,Trial,Date,TimeDif,"Condition Number","Stimuli File","Order File","Condition Description","Condition Notes",Stimuli*Cue,Stimuli*Answer,Stimuli*Shuffle,"Stimuli*Stimuli Notes",Stimuli*Value,Stimuli*Rand,Procedure*Item,"Procedure*Trial Type","Procedure*Max Time","Procedure*Min Time",Procedure*Text,"Procedure*Procedure Notes",Procedure*Shuffle,Response*RT,Response*Response,Response*Accuracy,Response*RTfirst,Response*RTlast,Response*strictAcc,Response*lenientAcc,Response*focus,Response*JOL,Response*Focus
5f1594065b06710629a4c197,milwe3tayl,"Affordance Norms_Prolific",1,1,2023-01-25T03:23:39+00:00,508.88356518745,15,"updated stim.csv",Version15.csv,"Version 15","List 15",,,,,,,0,Instruct,-,10,"In this section, you will be presented with a series of objects. Please name as many possible uses for this object as you can think of by typing them in the box below each object.",,Instruct1,508354,,,-1,-1,,,,,0.072
5f1594065b06710629a4c197,milwe3tayl,"Affordance Norms_Prolific",1,2,2023-01-25T03:23:52+00:00,12.653239011765,15,"updated stim.csv",Version15.csv,"Version 15","List 15",,,,,,,0,Instruct,-,10,"Please keep in mind that a single object will have more than one use. For example, a ball can be thrown or can be bounced or even stepped on. When listing multiple uses for one object, please separate each use with a comma (i.e., thrown, bounced, stepped on)",,Instruct2,12269,,,-1,-1,,,,,1
5f1594065b06710629a4c197,milwe3tayl,"Affordance Norms_Prolific",1,3,2023-01-25T03:23:55+00:00,3.2604458332062,15,"updated stim.csv",Version15.csv,"Version 15","List 15",,,,,,,0,Instruct,-,-,"Before starting the experiment, you will complete a short practice sesstion. Press ENTER when you are ready to begin.",,Instruct3,2891,,,-1,-1,,,,,1
5f1594065b06710629a4c197,milwe3tayl,"Affordance Norms_Prolific",1,4,2023-01-25T03:24:27+00:00,31.566828012466,15,"updated stim.csv",Version15.csv,"Version 15","List 15",saucer,,3005,5.777777778,2249,0.304808074,3006,BOI,-,-,"Please name all of the ways you could use this object. Keep in mind that one object can have many uses. Separate your responses with a comma.",,n,30935,,,6526,17645,,,,"cooking, weapon, exercise",1
5f1594065b06710629a4c197,milwe3tayl,"Affordance Norms_Prolific",1,5,2023-01-25T03:25:11+00:00,44.530960083008,15,"updated stim.csv",Version15.csv,"Version 15","List 15",shortening,,3002,4.92,2358,0.604328482,3003,BOI,-,-,"Please name all of the ways you could use this object. Keep in mind that one object can have many uses. Separate your responses with a comma.",,n,43897,,,8937,42785,,,,"clothing, food, age",1
5f1594065b06710629a4c197,milwe3tayl,"Affordance Norms_Prolific",1,6,2023-01-25T03:25:35+00:00,23.481138944626,15,"updated stim.csv",Version15.csv,"Version 15","List 15",spaghetti,,3003,6,2461,0.090379998,3004,BOI,-,-,"Please name all of the ways you could use this object. Keep in mind that one object can have many uses. Separate your responses with a comma.",,n,22845,,,4491,17217,,,,"food, measuring",1
5f1594065b06710629a4c197,milwe3tayl,"Affordance Norms_Prolific",1,7,2023-01-25T03:25:59+00:00,23.589528083801,15,"updated stim.csv",Version15.csv,"Version 15","List 15",grain,,3004,5.217391304,1143,0.226863762,3005,BOI,-,-,"Please name all of the ways you could use this object. Keep in mind that one object can have many uses. Separate your responses with a comma.",,n,22957,,,3161,21641,,,,"cooking, feeding, filling",1
5f1594065b06710629a4c197,milwe3tayl,"Affordance Norms_Prolific",1,8,2023-01-25T03:26:09+00:00,10.159545898438,15,"updated stim.csv",Version15.csv,"Version 15","List 15",paperwork,,3001,5.625,1866,0.124284162,3002,BOI,-,-,"Please name all of the ways you could use this object. Keep in mind that one object can have many uses. Separate your responses with a comma.",,n,9780,,,2050,7324,,,,"writing, reading, storing",1
5f1594065b06710629a4c197,milwe3tayl,"Affordance Norms_Prolific",1,9,2023-01-25T03:26:11+00:00,2.7900581359863,15,"updated stim.csv",Version15.csv,"Version 15","List 15",,,,,,,0,Instruct,-,-,"You have completed this section. Press ENTER to continue",,"Instruct 5",2420,,,-1,-1,,,,,1
5f1594065b06710629a4c197,milwe3tayl,"Affordance Norms_Prolific",1,10,2023-01-25T03:26:15+00:00,3.142413854599,15,"updated stim.csv",Version15.csv,"Version 15","List 15",,,,,,,0,Instruct,-,-,"You will now start the full experiment. Press ENTER when you are ready to begin.",,,2769,,,-1,-1,,,,,1
5f1594065b06710629a4c197,milwe3tayl,"Affordance Norms_Prolific",1,11,2023-01-25T03:26:36+00:00,21.491214036942,15,"updated stim.csv",Version15.csv,"Version 15","List 15",pooch,,446,5.045454545,2031,0.306327361,447,BOI,-,-,"Please name all of the ways you could use this object. Keep in mind that one object can have many uses. Separate your responses with a comma.",,y,20871,,,4375,19861,,,,"walking, petting, talking to, helping",1
5f1594065b06710629a4c197,milwe3tayl,"Affordance Norms_Prolific",1,12,2023-01-25T03:26:59+00:00,23.210410118103,15,"updated stim.csv",Version15.csv,"Version 15","List 15",refrigerator,,435,5.851851852,2152,0.017631805,436,BOI,-,-,"Please name all of the ways you could use this object. Keep in mind that one object can have many uses. Separate your responses with a comma.",,y,22586,,,1687,15842,,,,"storing, repairing, opening, closing, lifting",1
5f1594065b06710629a4c197,milwe3tayl,"Affordance Norms_Prolific",1,13,2023-01-25T03:27:36+00:00,36.898466825485,15,"updated stim.csv",Version15.csv,"Version 15","List 15",keyboard,,445,6.08,1412,0.85415253,446,BOI,-,-,"Please name all of the ways you could use this object. Keep in mind that one object can have many uses. Separate your responses with a comma.",,y,36268,,,2161,35206,,,,"typing, buying, cleaning",1
5f1594065b06710629a4c197,milwe3tayl,"Affordance Norms_Prolific",1,14,2023-01-25T03:27:47+00:00,11.030464172363,15,"updated stim.csv",Version15.csv,"Version 15","List 15",cake,,440,6.086956522,399,0.792412943,441,BOI,-,-,"Please name all of the ways you could use this object. Keep in mind that one object can have many uses. Separate your responses with a comma.",,y,10650,,,1858,9233,,,,"eating, baking, gifting, celebrating",1
5f1594065b06710629a4c197,milwe3tayl,"Affordance Norms_Prolific",1,15,2023-01-25T03:28:07+00:00,19.835783004761,15,"updated stim.csv",Version15.csv,"Version 15","List 15",racket,,436,5.24,2120,0.111236528,437,BOI,-,-,"Please name all of the ways you could use this object. Keep in mind that one object can have many uses. Separate your responses with a comma.",,y,19464,,,3239,18349,,,,"sports, making noise, weapon",1
5f1594065b06710629a4c197,milwe3tayl,"Affordance Norms_Prolific",1,16,2023-01-25T03:28:27+00:00,20.005507946014,15,"updated stim.csv",Version15.csv,"Version 15","List 15",storekeeper,,442,4.75,2552,0.711529641,443,BOI,-,-,"Please name all of the ways you could use this object. Keep in mind that one object can have many uses. Separate your responses with a comma.",,y,19631,,,3754,18418,,,,"haggling, buying, selling, asking",1
5f1594065b06710629a4c197,milwe3tayl,"Affordance Norms_Prolific",1,17,2023-01-25T03:28:41+00:00,13.697447061539,15,"updated stim.csv",Version15.csv,"Version 15","List 15",flounder,,432,4.52173913,1013,0.365858235,433,BOI,-,-,"Please name all of the ways you could use this object. Keep in mind that one object can have many uses. Separate your responses with a comma.",,y,13320,,,2770,12391,,,,"fishing, cooking, eating, pet",1
5f1594065b06710629a4c197,milwe3tayl,"Affordance Norms_Prolific",1,18,2023-01-25T03:28:53+00:00,12.372236967087,15,"updated stim.csv",Version15.csv,"Version 15","List 15",essay,,439,4.333333333,922,0.993576252,440,BOI,-,-,"Please name all of the ways you could use this object. Keep in mind that one object can have many uses. Separate your responses with a comma.",,y,11987,,,1769,10693,,,,"writing, reading, marking",1
5f1594065b06710629a4c197,milwe3tayl,"Affordance Norms_Prolific",1,19,2023-01-25T03:29:11+00:00,17.523272037506,15,"updated stim.csv",Version15.csv,"Version 15","List 15",apartment,,431,4.6,55,0.282470897,432,BOI,-,-,"Please name all of the ways you could use this object. Keep in mind that one object can have many uses. Separate your responses with a comma.",,y,17155,,,1608,16307,,,,"living, buying, selling, looking, saftey",1
5f1594065b06710629a4c197,milwe3tayl,"Affordance Norms_Prolific",1,20,2023-01-25T03:29:26+00:00,14.832103967667,15,"updated stim.csv",Version15.csv,"Version 15","List 15",rod,,438,4.454545455,2185,0.868683002,439,BOI,-,-,"Please name all of the ways you could use this object. Keep in mind that one object can have many uses. Separate your responses with a comma.",,y,14463,,,1671,13122,,,,"fishing, punishing, measuring, weapon",1
5f1594065b06710629a4c197,milwe3tayl,"Affordance Norms_Prolific",1,21,2023-01-25T03:29:53+00:00,27.430032014847,15,"updated stim.csv",Version15.csv,"Version 15","List 15",grandma,,448,5.769230769,1148,0.122398019,449,BOI,-,-,"Please name all of the ways you could use this object. Keep in mind that one object can have many uses. Separate your responses with a comma.",,y,26793,,,1994,25610,,,,"talking, hugging, recieving gifts, giving",1
5f1594065b06710629a4c197,milwe3tayl,"Affordance Norms_Prolific",1,22,2023-01-25T03:30:10+00:00,17.336241960526,15,"updated stim.csv",Version15.csv,"Version 15","List 15",thermometer,,429,5.56,2676,0.363619709,430,BOI,-,-,"Please name all of the ways you could use this object. Keep in mind that one object can have many uses. Separate your responses with a comma.",,y,16955,,,4301,11636,,,,"temperaturing measuring, buying",1
5f1594065b06710629a4c197,milwe3tayl,"Affordance Norms_Prolific",1,23,2023-01-25T03:30:30+00:00,19.368577003479,15,"updated stim.csv",Version15.csv,"Version 15","List 15",sundeck,,421,4.5,2586,0.114183625,422,BOI,-,-,"Please name all of the ways you could use this object. Keep in mind that one object can have many uses. Separate your responses with a comma.",,y,18995,,,4150,17769,,,,"sun bathing, relaxing, showing off",1
5f1594065b06710629a4c197,milwe3tayl,"Affordance Norms_Prolific",1,24,2023-01-25T03:30:38+00:00,8.586580991745,15,"updated stim.csv",Version15.csv,"Version 15","List 15",trapeze,,428,4.958333333,2763,0.021755234,429,BOI,-,-,"Please name all of the ways you could use this object. Keep in mind that one object can have many uses. Separate your responses with a comma.",,y,8211,,,2164,6153,,,,"jumping, doing moves",1
5f1594065b06710629a4c197,milwe3tayl,"Affordance Norms_Prolific",1,25,2023-01-25T03:30:59+00:00,21.033103942871,15,"updated stim.csv",Version15.csv,"Version 15","List 15",burger,,444,6.111111111,365,0.030114514,445,BOI,-,-,"Please name all of the ways you could use this object. Keep in mind that one object can have many uses. Separate your responses with a comma.",,y,20412,,,1168,19628,,,,"eating, cooking, selling, feeding others",1
5f1594065b06710629a4c197,milwe3tayl,"Affordance Norms_Prolific",1,26,2023-01-25T03:31:13+00:00,13.297003030777,15,"updated stim.csv",Version15.csv,"Version 15","List 15",cap,,427,5.826086957,422,0.328762048,428,BOI,-,-,"Please name all of the ways you could use this object. Keep in mind that one object can have many uses. Separate your responses with a comma.",,y,12915,,,1946,11420,,,,"wearing, as a lid",1
5f1594065b06710629a4c197,milwe3tayl,"Affordance Norms_Prolific",1,27,2023-01-25T03:31:40+00:00,27.475409030914,15,"updated stim.csv",Version15.csv,"Version 15","List 15",newlyweds,,447,4.772727273,1754,0.905080051,448,BOI,-,-,"Please name all of the ways you could use this object. Keep in mind that one object can have many uses. Separate your responses with a comma.",,y,26848,,,2802,25992,,,,"loving, photographing, divorcing, talking, congratulating",1
5f1594065b06710629a4c197,milwe3tayl,"Affordance Norms_Prolific",1,28,2023-01-25T03:32:01+00:00,20.597779989243,15,"updated stim.csv",Version15.csv,"Version 15","List 15",tongs,,449,5.826086957,2727,0.638758823,450,BOI,-,-,"Please name all of the ways you could use this object. Keep in mind that one object can have many uses. Separate your responses with a comma.",,y,19961,,,5388,15447,,,,"getting salad, tossing food",1
5f1594065b06710629a4c197,milwe3tayl,"Affordance Norms_Prolific",1,29,2023-01-25T03:32:26+00:00,25.221163988113,15,"updated stim.csv",Version15.csv,"Version 15","List 15",investigator,,422,4.888888889,1367,0.47461087,423,BOI,-,-,"Please name all of the ways you could use this object. Keep in mind that one object can have many uses. Separate your responses with a comma.",,y,24579,,,5174,23273,,,,"discovering, insurance work",1
5f1594065b06710629a4c197,milwe3tayl,"Affordance Norms_Prolific",1,30,2023-01-25T03:32:47+00:00,20.743069887161,15,"updated stim.csv",Version15.csv,"Version 15","List 15",restaurant,,434,5.275862069,2159,0.75962687,435,BOI,-,-,"Please name all of the ways you could use this object. Keep in mind that one object can have many uses. Separate your responses with a comma.",,y,20117,,,1913,19410,,,,"eating, selling, relaxing, bragging",1
5f1594065b06710629a4c197,milwe3tayl,"Affordance Norms_Prolific",1,31,2023-01-25T03:33:10+00:00,22.985141992569,15,"updated stim.csv",Version15.csv,"Version 15","List 15",parachutist,,437,4.6,1869,0.022813055,438,BOI,-,-,"Please name all of the ways you could use this object. Keep in mind that one object can have many uses. Separate your responses with a comma.",,y,22358,,,9247,20912,,,,"talking, learning, going parachuting",1
5f1594065b06710629a4c197,milwe3tayl,"Affordance Norms_Prolific",1,32,2023-01-25T03:33:30+00:00,20.813146114349,15,"updated stim.csv",Version15.csv,"Version 15","List 15",sibling,,424,5.04,2373,0.526230235,425,BOI,-,-,"Please name all of the ways you could use this object. Keep in mind that one object can have many uses. Separate your responses with a comma.",,y,20177,,,2255,14207,,,,"talking, fighting, stealing from each other",1
5f1594065b06710629a4c197,milwe3tayl,"Affordance Norms_Prolific",1,33,2023-01-25T03:33:51+00:00,20.531883955002,15,"updated stim.csv",Version15.csv,"Version 15","List 15",lifeboat,,443,5.333333333,1504,0.414036557,444,BOI,-,-,"Please name all of the ways you could use this object. Keep in mind that one object can have many uses. Separate your responses with a comma.",,y,19904,,,1772,12010,,,,"saving lives, sailing",1
5f1594065b06710629a4c197,milwe3tayl,"Affordance Norms_Prolific",1,34,2023-01-25T03:34:09+00:00,18.465892076492,15,"updated stim.csv",Version15.csv,"Version 15","List 15",corridor,,441,4.5,651,0.966954402,442,BOI,-,-,"Please name all of the ways you could use this object. Keep in mind that one object can have many uses. Separate your responses with a comma.",,y,18087,,,1999,17309,,,,"walking down, building it, seperating rooms",1
5f1594065b06710629a4c197,milwe3tayl,"Affordance Norms_Prolific",1,35,2023-01-25T03:34:19+00:00,9.1754899024963,15,"updated stim.csv",Version15.csv,"Version 15","List 15",oceanographer,,430,4.44,1800,0.127937549,431,BOI,-,-,"Please name all of the ways you could use this object. Keep in mind that one object can have many uses. Separate your responses with a comma.",,y,8802,,,2708,7635,,,,"talking, discovering, learning",1
5f1594065b06710629a4c197,milwe3tayl,"Affordance Norms_Prolific",1,36,2023-01-25T03:34:35+00:00,16.142163038254,15,"updated stim.csv",Version15.csv,"Version 15","List 15",newsstand,,426,5.458333333,1764,0.165548754,427,BOI,-,-,"Please name all of the ways you could use this object. Keep in mind that one object can have many uses. Separate your responses with a comma.",,y,15759,,,2997,15051,,,,"getting a paper, selling, buying, seeing news",1
5f1594065b06710629a4c197,milwe3tayl,"Affordance Norms_Prolific",1,37,2023-01-25T03:34:57+00:00,21.89303612709,15,"updated stim.csv",Version15.csv,"Version 15","List 15",slut,,433,4.652173913,2420,0.469760498,434,BOI,-,-,"Please name all of the ways you could use this object. Keep in mind that one object can have many uses. Separate your responses with a comma.",,y,21263,,,2957,19439,,,,"spanking, sex, dirty talk, attraction",1
5f1594065b06710629a4c197,milwe3tayl,"Affordance Norms_Prolific",1,38,2023-01-25T03:35:19+00:00,22.749129772186,15,"updated stim.csv",Version15.csv,"Version 15","List 15",claw,,423,4.391304348,550,0.085968356,424,BOI,-,-,"Please name all of the ways you could use this object. Keep in mind that one object can have many uses. Separate your responses with a comma.",,y,22121,,,2273,21241,,,,"slashing, grabbing, danger signalling, making tools",1
5f1594065b06710629a4c197,milwe3tayl,"Affordance Norms_Prolific",1,39,2023-01-25T03:35:40+00:00,20.772570133209,15,"updated stim.csv",Version15.csv,"Version 15","List 15",teapot,,450,6.2,2649,0.536720356,451,BOI,-,-,"Please name all of the ways you could use this object. Keep in mind that one object can have many uses. Separate your responses with a comma.",,y,20136,,,2297,19397,,,,"making tea, cleaning it, making a tea pot, smashing it",1
5f1594065b06710629a4c197,milwe3tayl,"Affordance Norms_Prolific",1,40,2023-01-25T03:35:51+00:00,10.786160945892,15,"updated stim.csv",Version15.csv,"Version 15","List 15",money,,425,6.291666667,1677,0.69421982,426,BOI,-,-,"Please name all of the ways you could use this object. Keep in mind that one object can have many uses. Separate your responses with a comma.",,y,10411,,,3813,9521,,,,"buying, selling, burning, toilet paper",1
5f1594065b06710629a4c197,milwe3tayl,"Affordance Norms_Prolific",1,41,2023-01-25T03:35:54+00:00,2.8973729610443,15,"updated stim.csv",Version15.csv,"Version 15","List 15",,,,,,,0,Instruct,,,"You will now be asked a few questions about your experience today.",,"Instruct 4",2524,,,-1,-1,,,,,1
