Username,ID,ExperimentName,Session,Trial,Date,TimeDif,"Condition Number","Stimuli File","Order File","Condition Description","Condition Notes",Stimuli*Cue,Stimuli*Answer,Stimuli*Shuffle,"Stimuli*Stimuli Notes",Stimuli*Value,Stimuli*Rand,Procedure*Item,"Procedure*Trial Type","Procedure*Max Time","Procedure*Min Time",Procedure*Text,"Procedure*Procedure Notes",Procedure*Shuffle,Response*RT,Response*Response,Response*Accuracy,Response*RTfirst,Response*RTlast,Response*strictAcc,Response*lenientAcc,Response*focus,Response*JOL,Response*Focus
63d007388da4ef5b301762f9,ua336dmxao,"Affordance Norms_Prolific",1,1,2023-01-25T02:27:58+00:00,11.148845911026,13,"updated stim.csv",Version13.csv,"Version 13","List 13",,,,,,,0,Instruct,-,10,"In this section, you will be presented with a series of objects. Please name as many possible uses for this object as you can think of by typing them in the box below each object.",,Instruct1,11028,,,-1,-1,,,,,1
63d007388da4ef5b301762f9,ua336dmxao,"Affordance Norms_Prolific",1,2,2023-01-25T02:28:10+00:00,12.096633911133,13,"updated stim.csv",Version13.csv,"Version 13","List 13",,,,,,,0,Instruct,-,10,"Please keep in mind that a single object will have more than one use. For example, a ball can be thrown or can be bounced or even stepped on. When listing multiple uses for one object, please separate each use with a comma (i.e., thrown, bounced, stepped on)",,Instruct2,11854,,,-1,-1,,,,,1
63d007388da4ef5b301762f9,ua336dmxao,"Affordance Norms_Prolific",1,3,2023-01-25T02:28:16+00:00,5.6168789863586,13,"updated stim.csv",Version13.csv,"Version 13","List 13",,,,,,,0,Instruct,-,-,"Before starting the experiment, you will complete a short practice sesstion. Press ENTER when you are ready to begin.",,Instruct3,5390,,,-1,-1,,,,,1
63d007388da4ef5b301762f9,ua336dmxao,"Affordance Norms_Prolific",1,4,2023-01-25T02:30:29+00:00,133.50771212578,13,"updated stim.csv",Version13.csv,"Version 13","List 13",grain,,3004,5.217391304,1143,0.226863762,3005,BOI,-,-,"Please name all of the ways you could use this object. Keep in mind that one object can have many uses. Separate your responses with a comma.",,n,133154,,,4016,130237,,,,"eat,step on it, bake,watering it",1
63d007388da4ef5b301762f9,ua336dmxao,"Affordance Norms_Prolific",1,5,2023-01-25T02:31:39+00:00,69.976311922073,13,"updated stim.csv",Version13.csv,"Version 13","List 13",saucer,,3005,5.777777778,2249,0.304808074,3006,BOI,-,-,"Please name all of the ways you could use this object. Keep in mind that one object can have many uses. Separate your responses with a comma.",,n,69709,,,21447,67951,,,,"pouring,drinking,serving,throw it, break it",1
63d007388da4ef5b301762f9,ua336dmxao,"Affordance Norms_Prolific",1,6,2023-01-25T02:32:48+00:00,69.073148012161,13,"updated stim.csv",Version13.csv,"Version 13","List 13",paperwork,,3001,5.625,1866,0.124284162,3002,BOI,-,-,"Please name all of the ways you could use this object. Keep in mind that one object can have many uses. Separate your responses with a comma.",,n,68848,,,2525,66016,,,,"shredding,filing,write on it, crumple it, oragami, folding,chewing",1
63d007388da4ef5b301762f9,ua336dmxao,"Affordance Norms_Prolific",1,7,2023-01-25T02:35:01+00:00,133.02445292473,13,"updated stim.csv",Version13.csv,"Version 13","List 13",spaghetti,,3003,6,2461,0.090379998,3004,BOI,-,-,"Please name all of the ways you could use this object. Keep in mind that one object can have many uses. Separate your responses with a comma.",,n,132745,,,5814,89174,,,,"eat it,mix it, leftovers,",1
63d007388da4ef5b301762f9,ua336dmxao,"Affordance Norms_Prolific",1,8,2023-01-25T02:37:22+00:00,141.15078401566,13,"updated stim.csv",Version13.csv,"Version 13","List 13",shortening,,3002,4.92,2358,0.604328482,3003,BOI,-,-,"Please name all of the ways you could use this object. Keep in mind that one object can have many uses. Separate your responses with a comma.",,n,140641,,,56475,128897,,,,"baking, scoop it out, measure it,",1
63d007388da4ef5b301762f9,ua336dmxao,"Affordance Norms_Prolific",1,9,2023-01-25T02:37:26+00:00,3.1013469696045,13,"updated stim.csv",Version13.csv,"Version 13","List 13",,,,,,,0,Instruct,-,-,"You have completed this section. Press ENTER to continue",,"Instruct 5",2879,,,-1,-1,,,,,1
63d007388da4ef5b301762f9,ua336dmxao,"Affordance Norms_Prolific",1,10,2023-01-25T02:37:28+00:00,2.321934223175,13,"updated stim.csv",Version13.csv,"Version 13","List 13",,,,,,,0,Instruct,-,-,"You will now start the full experiment. Press ENTER when you are ready to begin.",,,2027,,,-1,-1,,,,,1
63d007388da4ef5b301762f9,ua336dmxao,"Affordance Norms_Prolific",1,11,2023-01-25T02:39:27+00:00,119.4691388607,13,"updated stim.csv",Version13.csv,"Version 13","List 13",rake,,385,6.136363636,2135,0.130502969,386,BOI,-,-,"Please name all of the ways you could use this object. Keep in mind that one object can have many uses. Separate your responses with a comma.",,y,119068,,,2118,93280,,,,"gardening,gathering leaves,level the ground, hitting someone",1
63d007388da4ef5b301762f9,ua336dmxao,"Affordance Norms_Prolific",1,12,2023-01-25T02:40:41+00:00,73.709677934647,13,"updated stim.csv",Version13.csv,"Version 13","List 13",spareribs,,387,4.869565217,2462,0.762225704,388,BOI,-,-,"Please name all of the ways you could use this object. Keep in mind that one object can have many uses. Separate your responses with a comma.",,y,73353,,,5591,46124,,,,"eat them,cook them, smoking, marinating, ",1
63d007388da4ef5b301762f9,ua336dmxao,"Affordance Norms_Prolific",1,13,2023-01-25T02:41:49+00:00,68.349450111389,13,"updated stim.csv",Version13.csv,"Version 13","List 13",blackberry,,375,5.416666667,227,0.420605991,376,BOI,-,-,"Please name all of the ways you could use this object. Keep in mind that one object can have many uses. Separate your responses with a comma.",,y,68064,,,4555,64819,,,,"eat them, pick them, washing,smash them,mix it together,juicing them",1
63d007388da4ef5b301762f9,ua336dmxao,"Affordance Norms_Prolific",1,14,2023-01-25T02:42:48+00:00,58.34132194519,13,"updated stim.csv",Version13.csv,"Version 13","List 13",vein,,367,4.44,2845,0.79635902,368,BOI,-,-,"Please name all of the ways you could use this object. Keep in mind that one object can have many uses. Separate your responses with a comma.",,y,57919,,,11114,52616,,,,"touch it,poke it,squeeze them",1
63d007388da4ef5b301762f9,ua336dmxao,"Affordance Norms_Prolific",1,15,2023-01-25T02:44:31+00:00,102.81022310257,13,"updated stim.csv",Version13.csv,"Version 13","List 13",addict,,366,4.391304348,14,0.936846179,367,BOI,-,-,"Please name all of the ways you could use this object. Keep in mind that one object can have many uses. Separate your responses with a comma.",,y,102370,,,13844,100005,,,,"guide them,talk to them,refer them to someone",1
63d007388da4ef5b301762f9,ua336dmxao,"Affordance Norms_Prolific",1,16,2023-01-25T02:45:44+00:00,73.9132168293,13,"updated stim.csv",Version13.csv,"Version 13","List 13",soil,,380,5.703703704,2445,0.661757319,381,BOI,-,-,"Please name all of the ways you could use this object. Keep in mind that one object can have many uses. Separate your responses with a comma.",,y,73680,,,3489,71089,,,,"planting,landscaping soil,watering,growing fruits",0.867
63d007388da4ef5b301762f9,ua336dmxao,"Affordance Norms_Prolific",1,17,2023-01-25T02:46:55+00:00,70.367727041245,13,"updated stim.csv",Version13.csv,"Version 13","List 13",playroom,,361,4.52,2002,0.997042581,362,BOI,-,-,"Please name all of the ways you could use this object. Keep in mind that one object can have many uses. Separate your responses with a comma.",,y,69922,,,37509,66870,,,,"interacting,playing with toys,coloring,drawing",0.991
63d007388da4ef5b301762f9,ua336dmxao,"Affordance Norms_Prolific",1,18,2023-01-25T02:49:16+00:00,141.14818000793,13,"updated stim.csv",Version13.csv,"Version 13","List 13",pharmacist,,386,5.041666667,1938,0.613609609,387,BOI,-,-,"Please name all of the ways you could use this object. Keep in mind that one object can have many uses. Separate your responses with a comma.",,y,140667,,,18878,139876,,,,"ask for medication,ask for in depth information,",1
63d007388da4ef5b301762f9,ua336dmxao,"Affordance Norms_Prolific",1,19,2023-01-25T02:50:26+00:00,70.060856103897,13,"updated stim.csv",Version13.csv,"Version 13","List 13",jogger,,377,5,1388,0.230792378,378,BOI,-,-,"Please name all of the ways you could use this object. Keep in mind that one object can have many uses. Separate your responses with a comma.",,y,69831,,,1782,64181,,,,"exercise with them,compare lap times,interact with them",1
63d007388da4ef5b301762f9,ua336dmxao,"Affordance Norms_Prolific",1,20,2023-01-25T02:51:39+00:00,73.349141836166,13,"updated stim.csv",Version13.csv,"Version 13","List 13",glycerine,,382,4.434782609,1119,0.669574034,383,BOI,-,-,"Please name all of the ways you could use this object. Keep in mind that one object can have many uses. Separate your responses with a comma.",,y,73140,,,20586,45386,,,,"washing face, moisturize skin",0.997
63d007388da4ef5b301762f9,ua336dmxao,"Affordance Norms_Prolific",1,21,2023-01-25T02:52:47+00:00,67.664805173874,13,"updated stim.csv",Version13.csv,"Version 13","List 13",menu,,381,5.869565217,1646,0.96657729,382,BOI,-,-,"Please name all of the ways you could use this object. Keep in mind that one object can have many uses. Separate your responses with a comma.",,y,67384,,,4617,65906,,,,"looking at it,take a picture,sharing,ordering from it",1
63d007388da4ef5b301762f9,ua336dmxao,"Affordance Norms_Prolific",1,22,2023-01-25T02:54:13+00:00,86.091959953308,13,"updated stim.csv",Version13.csv,"Version 13","List 13",vine,,362,5,2861,0.61166655,363,BOI,-,-,"Please name all of the ways you could use this object. Keep in mind that one object can have many uses. Separate your responses with a comma.",,y,85674,,,13552,83745,,,,"cut it,move it around,tying it up,trim it",1
63d007388da4ef5b301762f9,ua336dmxao,"Affordance Norms_Prolific",1,23,2023-01-25T02:55:30+00:00,76.538573980331,13,"updated stim.csv",Version13.csv,"Version 13","List 13",copybook,,388,5,639,0.154773771,389,BOI,-,-,"Please name all of the ways you could use this object. Keep in mind that one object can have many uses. Separate your responses with a comma.",,y,76314,,,13475,74410,,,,"study it,share it,put it on a bookshelf",1
63d007388da4ef5b301762f9,ua336dmxao,"Affordance Norms_Prolific",1,24,2023-01-25T02:56:16+00:00,46.343349933624,13,"updated stim.csv",Version13.csv,"Version 13","List 13",panhandler,,374,4.92,1857,0.743916508,375,BOI,-,-,"Please name all of the ways you could use this object. Keep in mind that one object can have many uses. Separate your responses with a comma.",,y,45931,,,6381,44510,,,,"give them food,give them money,ask about them,help them",1
63d007388da4ef5b301762f9,ua336dmxao,"Affordance Norms_Prolific",1,25,2023-01-25T02:57:18+00:00,61.834336996078,13,"updated stim.csv",Version13.csv,"Version 13","List 13",testes,,376,5.083333333,2670,0.365065355,377,BOI,-,-,"Please name all of the ways you could use this object. Keep in mind that one object can have many uses. Separate your responses with a comma.",,y,61637,,,11459,58549,,,,"feel them,play with them,have someone else play with them",1
63d007388da4ef5b301762f9,ua336dmxao,"Affordance Norms_Prolific",1,26,2023-01-25T02:57:53+00:00,35.372019052505,13,"updated stim.csv",Version13.csv,"Version 13","List 13",vest,,378,6,2853,0.512853941,379,BOI,-,-,"Please name all of the ways you could use this object. Keep in mind that one object can have many uses. Separate your responses with a comma.",,y,35012,,,3656,33673,,,,"wear it,maintain it,ironing, cleaning it",1
63d007388da4ef5b301762f9,ua336dmxao,"Affordance Norms_Prolific",1,27,2023-01-25T02:58:55+00:00,61.684653997421,13,"updated stim.csv",Version13.csv,"Version 13","List 13",eraser,,384,5.791666667,918,0.580572305,385,BOI,-,-,"Please name all of the ways you could use this object. Keep in mind that one object can have many uses. Separate your responses with a comma.",,y,61517,,,6277,60093,,,,"clearing up mistakes,cleaning smudges,throw it,step on it,gift it to a friend",1
63d007388da4ef5b301762f9,ua336dmxao,"Affordance Norms_Prolific",1,28,2023-01-25T03:00:05+00:00,69.575729131699,13,"updated stim.csv",Version13.csv,"Version 13","List 13",trinket,,371,4.791666667,2777,0.513796891,372,BOI,-,-,"Please name all of the ways you could use this object. Keep in mind that one object can have many uses. Separate your responses with a comma.",,y,69315,,,21476,67228,,,,"dust it off,display in a glass case,put it in storage,wrap it in newspaper",1
63d007388da4ef5b301762f9,ua336dmxao,"Affordance Norms_Prolific",1,29,2023-01-25T03:01:35+00:00,90.104183912277,13,"updated stim.csv",Version13.csv,"Version 13","List 13",kitty,,365,6.043478261,1429,0.453664291,366,BOI,-,-,"Please name all of the ways you could use this object. Keep in mind that one object can have many uses. Separate your responses with a comma.",,y,89886,,,2601,83365,,,,"play with it,feeding it,adopting,training it,grooming it",0.991
63d007388da4ef5b301762f9,ua336dmxao,"Affordance Norms_Prolific",1,30,2023-01-25T03:02:28+00:00,53.620246887207,13,"updated stim.csv",Version13.csv,"Version 13","List 13",oxtail,,363,4.444444444,1833,0.689826492,364,BOI,-,-,"Please name all of the ways you could use this object. Keep in mind that one object can have many uses. Separate your responses with a comma.",,y,53191,,,2171,51741,,,,"cooking, gifting it,eating,cutting,mixing it",1
63d007388da4ef5b301762f9,ua336dmxao,"Affordance Norms_Prolific",1,31,2023-01-25T03:03:17+00:00,48.845435142517,13,"updated stim.csv",Version13.csv,"Version 13","List 13",amulet,,368,5.291666667,38,0.945444984,369,BOI,-,-,"Please name all of the ways you could use this object. Keep in mind that one object can have many uses. Separate your responses with a comma.",,y,48465,,,2390,42164,,,,"wearing it,gifting it,throwing it,maintainence",1
63d007388da4ef5b301762f9,ua336dmxao,"Affordance Norms_Prolific",1,32,2023-01-25T03:04:38+00:00,80.522150993347,13,"updated stim.csv",Version13.csv,"Version 13","List 13",cotton,,379,5.28,660,0.699170843,380,BOI,-,-,"Please name all of the ways you could use this object. Keep in mind that one object can have many uses. Separate your responses with a comma.",,y,80246,,,14202,78515,,,,"cleaning nails,making clothing,making fabrics",1
63d007388da4ef5b301762f9,ua336dmxao,"Affordance Norms_Prolific",1,33,2023-01-25T03:05:00+00:00,22.630666017532,13,"updated stim.csv",Version13.csv,"Version 13","List 13",crawfish,,383,4.666666667,685,0.801608849,384,BOI,-,-,"Please name all of the ways you could use this object. Keep in mind that one object can have many uses. Separate your responses with a comma.",,y,22256,,,2039,18965,,,,"eating,seasoning,cooking,catching",1
63d007388da4ef5b301762f9,ua336dmxao,"Affordance Norms_Prolific",1,34,2023-01-25T03:06:38+00:00,97.553390026093,13,"updated stim.csv",Version13.csv,"Version 13","List 13",topsoil,,369,4.92,2736,0.060076604,370,BOI,-,-,"Please name all of the ways you could use this object. Keep in mind that one object can have many uses. Separate your responses with a comma.",,y,97150,,,21399,79059,,,,"maintainence,use it for plants,",1
63d007388da4ef5b301762f9,ua336dmxao,"Affordance Norms_Prolific",1,35,2023-01-25T03:07:50+00:00,72.171775817871,13,"updated stim.csv",Version13.csv,"Version 13","List 13",kelp,,373,4.826086957,1405,0.939151548,374,BOI,-,-,"Please name all of the ways you could use this object. Keep in mind that one object can have many uses. Separate your responses with a comma.",,y,71909,,,26485,69547,,,,"cooking it,eating it,gathering it,cutting it,turn it into powder",1
63d007388da4ef5b301762f9,ua336dmxao,"Affordance Norms_Prolific",1,36,2023-01-25T03:08:51+00:00,60.662464141846,13,"updated stim.csv",Version13.csv,"Version 13","List 13",anus,,370,5.16,53,0.855006191,371,BOI,-,-,"Please name all of the ways you could use this object. Keep in mind that one object can have many uses. Separate your responses with a comma.",,y,60377,,,8563,49134,,,,"taking a poop,colonoscopy,scratching it,",1
63d007388da4ef5b301762f9,ua336dmxao,"Affordance Norms_Prolific",1,37,2023-01-25T03:09:26+00:00,35.413050889969,13,"updated stim.csv",Version13.csv,"Version 13","List 13",squirrel,,389,4.346153846,2494,0.26351966,390,BOI,-,-,"Please name all of the ways you could use this object. Keep in mind that one object can have many uses. Separate your responses with a comma.",,y,35001,,,5544,32850,,,,"hunting them,chasing them,cooking them,skinning",1
63d007388da4ef5b301762f9,ua336dmxao,"Affordance Norms_Prolific",1,38,2023-01-25T03:10:09+00:00,42.798282146454,13,"updated stim.csv",Version13.csv,"Version 13","List 13",cabinet,,390,5.64,389,0.578190345,391,BOI,-,-,"Please name all of the ways you could use this object. Keep in mind that one object can have many uses. Separate your responses with a comma.",,y,42382,,,7744,40293,,,,"storing items,move it around",1
63d007388da4ef5b301762f9,ua336dmxao,"Affordance Norms_Prolific",1,39,2023-01-25T03:10:47+00:00,37.928381919861,13,"updated stim.csv",Version13.csv,"Version 13","List 13",wagon,,364,5.375,2879,0.532098663,365,BOI,-,-,"Please name all of the ways you could use this object. Keep in mind that one object can have many uses. Separate your responses with a comma.",,y,37501,,,5090,23646,,,,"placing items on it,moving it,riding it,",1
63d007388da4ef5b301762f9,ua336dmxao,"Affordance Norms_Prolific",1,40,2023-01-25T03:11:19+00:00,32.243096113205,13,"updated stim.csv",Version13.csv,"Version 13","List 13",liqueur,,372,5.666666667,1523,0.514690223,373,BOI,-,-,"Please name all of the ways you could use this object. Keep in mind that one object can have many uses. Separate your responses with a comma.",,y,32046,,,3325,22426,,,,"drinking it,storing it,sharing with friends,",0.987
63d007388da4ef5b301762f9,ua336dmxao,"Affordance Norms_Prolific",1,41,2023-01-25T03:11:21+00:00,1.8857867717743,13,"updated stim.csv",Version13.csv,"Version 13","List 13",,,,,,,0,Instruct,,,"You will now be asked a few questions about your experience today.",,"Instruct 4",1687,,,-1,-1,,,,,1
