Username,ID,ExperimentName,Session,Trial,Date,TimeDif,"Condition Number","Stimuli File","Order File","Condition Description","Condition Notes",Stimuli*Cue,Stimuli*Answer,Stimuli*Shuffle,"Stimuli*Stimuli Notes",Stimuli*Value,Stimuli*Rand,Procedure*Item,"Procedure*Trial Type","Procedure*Max Time","Procedure*Min Time",Procedure*Text,"Procedure*Procedure Notes",Procedure*Shuffle,Response*RT,Response*Response,Response*Accuracy,Response*RTfirst,Response*RTlast,Response*strictAcc,Response*lenientAcc,Response*focus,Response*JOL,Response*Focus
5daa828510839e0016aa193b_1,l51yebhjw8,"Affordance Norms_Prolific",1,1,2023-01-20T23:01:12+00:00,11.258023023605,98,"updated stim.csv",Version98.csv,"Version 98","List 98",,,,,,,0,Instruct,-,10,"In this section, you will be presented with a series of objects. Please name as many possible uses for this object as you can think of by typing them in the box below each object.",,Instruct1,10912,,,-1,-1,,,,,0.981
5daa828510839e0016aa193b_1,l51yebhjw8,"Affordance Norms_Prolific",1,2,2023-01-20T23:01:23+00:00,10.910238981247,98,"updated stim.csv",Version98.csv,"Version 98","List 98",,,,,,,0,Instruct,-,10,"Please keep in mind that a single object will have more than one use. For example, a ball can be thrown or can be bounced or even stepped on. When listing multiple uses for one object, please separate each use with a comma (i.e., thrown, bounced, stepped on)",,Instruct2,10482,,,-1,-1,,,,,0.83
5daa828510839e0016aa193b_1,l51yebhjw8,"Affordance Norms_Prolific",1,3,2023-01-20T23:01:25+00:00,1.882835149765,98,"updated stim.csv",Version98.csv,"Version 98","List 98",,,,,,,0,Instruct,-,-,"Before starting the experiment, you will complete a short practice sesstion. Press ENTER when you are ready to begin.",,Instruct3,1611,,,-1,-1,,,,,1
5daa828510839e0016aa193b_1,l51yebhjw8,"Affordance Norms_Prolific",1,4,2023-01-20T23:01:55+00:00,30.098155975342,98,"updated stim.csv",Version98.csv,"Version 98","List 98",paperwork,,3001,5.625,1866,0.124284162,3002,BOI,-,-,"Please name all of the ways you could use this object. Keep in mind that one object can have many uses. Separate your responses with a comma.",,n,29686,,,1515,28718,,,,"written, organized, shredded, torn, handed to, put away, , ",1
5daa828510839e0016aa193b_1,l51yebhjw8,"Affordance Norms_Prolific",1,5,2023-01-20T23:02:21+00:00,26.285336971283,98,"updated stim.csv",Version98.csv,"Version 98","List 98",saucer,,3005,5.777777778,2249,0.304808074,3006,BOI,-,-,"Please name all of the ways you could use this object. Keep in mind that one object can have many uses. Separate your responses with a comma.",,n,25616,,,6819,24877,,,,"stacked with others, paired with tea cups, cleaned, wiped",1
5daa828510839e0016aa193b_1,l51yebhjw8,"Affordance Norms_Prolific",1,6,2023-01-20T23:02:35+00:00,14.042142868042,98,"updated stim.csv",Version98.csv,"Version 98","List 98",shortening,,3002,4.92,2358,0.604328482,3003,BOI,-,-,"Please name all of the ways you could use this object. Keep in mind that one object can have many uses. Separate your responses with a comma.",,n,13727,,,2606,11549,,,,"put away, measured, sifted",1
5daa828510839e0016aa193b_1,l51yebhjw8,"Affordance Norms_Prolific",1,7,2023-01-20T23:02:46+00:00,11.207190990448,98,"updated stim.csv",Version98.csv,"Version 98","List 98",spaghetti,,3003,6,2461,0.090379998,3004,BOI,-,-,"Please name all of the ways you could use this object. Keep in mind that one object can have many uses. Separate your responses with a comma.",,n,10760,,,1968,9621,,,,"eaten, cooked, thrown away, dropped",1
5daa828510839e0016aa193b_1,l51yebhjw8,"Affordance Norms_Prolific",1,8,2023-01-20T23:03:31+00:00,44.918097019196,98,"updated stim.csv",Version98.csv,"Version 98","List 98",grain,,3004,5.217391304,1143,0.226863762,3005,BOI,-,-,"Please name all of the ways you could use this object. Keep in mind that one object can have many uses. Separate your responses with a comma.",,n,44231,,,2149,42925,,,,"grinded, harvested, sold, milled",1
5daa828510839e0016aa193b_1,l51yebhjw8,"Affordance Norms_Prolific",1,9,2023-01-20T23:04:11+00:00,40.085247993469,98,"updated stim.csv",Version98.csv,"Version 98","List 98",,,,,,,0,Instruct,-,-,"You have completed this section. Press ENTER to continue",,"Instruct 5",39625,,,-1,-1,,,,,0.308
5daa828510839e0016aa193b_1,l51yebhjw8,"Affordance Norms_Prolific",1,10,2023-01-20T23:06:05+00:00,113.12972521782,98,"updated stim.csv",Version98.csv,"Version 98","List 98",,,,,,,0,Instruct,-,-,"You will now start the full experiment. Press ENTER when you are ready to begin.",,,112552,,,-1,-1,,,,,0.319
5daa828510839e0016aa193b_1,l51yebhjw8,"Affordance Norms_Prolific",1,11,2023-01-20T23:06:46+00:00,41.046989917755,98,"updated stim.csv",Version98.csv,"Version 98","List 98",hiker,,2927,5.260869565,1287,0.92806903,2928,BOI,-,-,"Please name all of the ways you could use this object. Keep in mind that one object can have many uses. Separate your responses with a comma.",,y,40587,,,2996,37212,,,,"purchase hiking gear, visit hiking trails",0.973
5daa828510839e0016aa193b_1,l51yebhjw8,"Affordance Norms_Prolific",1,12,2023-01-20T23:07:55+00:00,69.502096891403,98,"updated stim.csv",Version98.csv,"Version 98","List 98",gynecologist,,2911,4.833333333,1206,0.619827361,2912,BOI,-,-,"Please name all of the ways you could use this object. Keep in mind that one object can have many uses. Separate your responses with a comma.",,y,68975,,,18816,67700,,,,"perform examinations, diagnose patients, write up referrals and prescriptions",0.932
5daa828510839e0016aa193b_1,l51yebhjw8,"Affordance Norms_Prolific",1,13,2023-01-20T23:08:22+00:00,26.712671995163,98,"updated stim.csv",Version98.csv,"Version 98","List 98",kale,,2912,5.652173913,1399,0.821322935,2913,BOI,-,-,"Please name all of the ways you could use this object. Keep in mind that one object can have many uses. Separate your responses with a comma.",,y,26243,,,7190,23385,,,,"blended, harvested, transported, sold, sautéed ",1
5daa828510839e0016aa193b_1,l51yebhjw8,"Affordance Norms_Prolific",1,14,2023-01-20T23:08:46+00:00,23.672196149826,98,"updated stim.csv",Version98.csv,"Version 98","List 98",pinball,,2925,5.782608696,1968,0.714828883,2926,BOI,-,-,"Please name all of the ways you could use this object. Keep in mind that one object can have many uses. Separate your responses with a comma.",,y,23204,,,14108,18790,,,,"play, transport",0.907
5daa828510839e0016aa193b_1,l51yebhjw8,"Affordance Norms_Prolific",1,15,2023-01-20T23:10:04+00:00,78.785239934921,98,"updated stim.csv",Version98.csv,"Version 98","List 98",astronaut,,2919,4.357142857,91,0.893971995,2920,BOI,-,-,"Please name all of the ways you could use this object. Keep in mind that one object can have many uses. Separate your responses with a comma.",,y,78054,,,45093,77017,,,,"fly into space, exercise, perform routine checks, discover new species, conduct research, produce papers",0.833
5daa828510839e0016aa193b_1,l51yebhjw8,"Affordance Norms_Prolific",1,16,2023-01-20T23:10:24+00:00,19.472547054291,98,"updated stim.csv",Version98.csv,"Version 98","List 98",noose,,2929,4.708333333,1778,0.255189322,2930,BOI,-,-,"Please name all of the ways you could use this object. Keep in mind that one object can have many uses. Separate your responses with a comma.",,y,19110,,,3616,17114,,,,"tied, used to unalive someone, cut, ripped, ",1
5daa828510839e0016aa193b_1,l51yebhjw8,"Affordance Norms_Prolific",1,17,2023-01-20T23:11:04+00:00,40.397749900818,98,"updated stim.csv",Version98.csv,"Version 98","List 98",document,,2915,4.818181818,810,0.333726906,2916,BOI,-,-,"Please name all of the ways you could use this object. Keep in mind that one object can have many uses. Separate your responses with a comma.",,y,39898,,,4807,33688,,,,"filed, put away, organized, sent, email, shred, fax, scan, print, modify, revise ",1
5daa828510839e0016aa193b_1,l51yebhjw8,"Affordance Norms_Prolific",1,18,2023-01-20T23:11:21+00:00,16.717036008835,98,"updated stim.csv",Version98.csv,"Version 98","List 98",quarterback,,2938,4.346153846,2111,0.92141009,2939,BOI,-,-,"Please name all of the ways you could use this object. Keep in mind that one object can have many uses. Separate your responses with a comma.",,y,16231,,,3158,8099,,,,"play football, exercise",1
5daa828510839e0016aa193b_1,l51yebhjw8,"Affordance Norms_Prolific",1,19,2023-01-20T23:11:44+00:00,23.260088920593,98,"updated stim.csv",Version98.csv,"Version 98","List 98",harness,,2913,4.4,1252,0.31028418,2914,BOI,-,-,"Please name all of the ways you could use this object. Keep in mind that one object can have many uses. Separate your responses with a comma.",,y,22791,,,1790,21481,,,,"strap onto an object or person, clip onto another component",1
5daa828510839e0016aa193b_1,l51yebhjw8,"Affordance Norms_Prolific",1,20,2023-01-20T23:12:04+00:00,20.225083112717,98,"updated stim.csv",Version98.csv,"Version 98","List 98",lens,,2917,5.115384615,1491,0.892237614,2918,BOI,-,-,"Please name all of the ways you could use this object. Keep in mind that one object can have many uses. Separate your responses with a comma.",,y,19753,,,1645,16845,,,,"wiped, crack, replace, bend",1
5daa828510839e0016aa193b_1,l51yebhjw8,"Affordance Norms_Prolific",1,21,2023-01-20T23:12:18+00:00,13.901489973068,98,"updated stim.csv",Version98.csv,"Version 98","List 98",knot,,2916,5.76,1438,0.1654516,2917,BOI,-,-,"Please name all of the ways you could use this object. Keep in mind that one object can have many uses. Separate your responses with a comma.",,y,13435,,,4065,12467,,,,"tie, untie, rip, cut",1
5daa828510839e0016aa193b_1,l51yebhjw8,"Affordance Norms_Prolific",1,22,2023-01-20T23:12:42+00:00,23.269675970078,98,"updated stim.csv",Version98.csv,"Version 98","List 98",cowhide,,2922,4.6,672,0.757206935,2923,BOI,-,-,"Please name all of the ways you could use this object. Keep in mind that one object can have many uses. Separate your responses with a comma.",,y,22613,,,4843,21661,,,,"skin, display, sell, create other items with",0.981
5daa828510839e0016aa193b_1,l51yebhjw8,"Affordance Norms_Prolific",1,23,2023-01-20T23:12:58+00:00,16.787708044052,98,"updated stim.csv",Version98.csv,"Version 98","List 98",clothes,,2939,6.08,569,0.103271373,2940,BOI,-,-,"Please name all of the ways you could use this object. Keep in mind that one object can have many uses. Separate your responses with a comma.",,y,16303,,,1926,15537,,,,"wear, sell, buy, trade, fold, iron, rip, burn, recycle, donate",1
5daa828510839e0016aa193b_1,l51yebhjw8,"Affordance Norms_Prolific",1,24,2023-01-20T23:13:10+00:00,11.265840053558,98,"updated stim.csv",Version98.csv,"Version 98","List 98",aluminum,,2930,5.083333333,32,0.365405735,2931,BOI,-,-,"Please name all of the ways you could use this object. Keep in mind that one object can have many uses. Separate your responses with a comma.",,y,10817,,,1376,7313,,,,"bent, folded, melted, heated",1
5daa828510839e0016aa193b_1,l51yebhjw8,"Affordance Norms_Prolific",1,25,2023-01-20T23:13:27+00:00,17.375196933746,98,"updated stim.csv",Version98.csv,"Version 98","List 98",hostel,,2924,4.708333333,1320,0.131291702,2925,BOI,-,-,"Please name all of the ways you could use this object. Keep in mind that one object can have many uses. Separate your responses with a comma.",,y,16903,,,1781,16185,,,,"visit, check in, clean, employee people",1
5daa828510839e0016aa193b_1,l51yebhjw8,"Affordance Norms_Prolific",1,26,2023-01-20T23:13:46+00:00,18.816256046295,98,"updated stim.csv",Version98.csv,"Version 98","List 98",meteorologist,,2935,4.875,1652,0.069900815,2936,BOI,-,-,"Please name all of the ways you could use this object. Keep in mind that one object can have many uses. Separate your responses with a comma.",,y,18314,,,3284,17096,,,,"research the weather patterns, tell local community weather findings",1
5daa828510839e0016aa193b_1,l51yebhjw8,"Affordance Norms_Prolific",1,27,2023-01-20T23:14:30+00:00,43.862874984741,98,"updated stim.csv",Version98.csv,"Version 98","List 98",scallop,,2921,5.48,2261,0.651086409,2922,BOI,-,-,"Please name all of the ways you could use this object. Keep in mind that one object can have many uses. Separate your responses with a comma.",,y,43381,,,3249,8921,,,,"slice, cut, cook, boil",1
5daa828510839e0016aa193b_1,l51yebhjw8,"Affordance Norms_Prolific",1,28,2023-01-20T23:14:44+00:00,14.111531019211,98,"updated stim.csv",Version98.csv,"Version 98","List 98",gun,,2923,6.12,1198,0.920800727,2924,BOI,-,-,"Please name all of the ways you could use this object. Keep in mind that one object can have many uses. Separate your responses with a comma.",,y,13615,,,1556,11827,,,,"shoot, reload, drop, buy",1
5daa828510839e0016aa193b_1,l51yebhjw8,"Affordance Norms_Prolific",1,29,2023-01-20T23:14:52+00:00,8.5491049289703,98,"updated stim.csv",Version98.csv,"Version 98","List 98",plaque,,2914,4.52,1992,0.48570991,2915,BOI,-,-,"Please name all of the ways you could use this object. Keep in mind that one object can have many uses. Separate your responses with a comma.",,y,7832,,,1604,7021,,,,"display, engrave",1
5daa828510839e0016aa193b_1,l51yebhjw8,"Affordance Norms_Prolific",1,30,2023-01-20T23:15:13+00:00,20.702263116837,98,"updated stim.csv",Version98.csv,"Version 98","List 98",fender,,2926,4.791666667,963,0.828326282,2927,BOI,-,-,"Please name all of the ways you could use this object. Keep in mind that one object can have many uses. Separate your responses with a comma.",,y,20195,,,15570,19195,,,,"protect vehicle",0.774
5daa828510839e0016aa193b_1,l51yebhjw8,"Affordance Norms_Prolific",1,31,2023-01-20T23:15:31+00:00,18.22767496109,98,"updated stim.csv",Version98.csv,"Version 98","List 98",townspeople,,2928,4.909090909,2749,0.45854506,2929,BOI,-,-,"Please name all of the ways you could use this object. Keep in mind that one object can have many uses. Separate your responses with a comma.",,y,17732,,,2315,15130,,,,"organize, conduct meetings with, talk to",1
5daa828510839e0016aa193b_1,l51yebhjw8,"Affordance Norms_Prolific",1,32,2023-01-20T23:15:49+00:00,18.01860499382,98,"updated stim.csv",Version98.csv,"Version 98","List 98",busman,,2931,4.68,372,0.326679348,2932,BOI,-,-,"Please name all of the ways you could use this object. Keep in mind that one object can have many uses. Separate your responses with a comma.",,y,17541,,,1458,14842,,,,"drive local route, provide directions within local area",1
5daa828510839e0016aa193b_1,l51yebhjw8,"Affordance Norms_Prolific",1,33,2023-01-20T23:16:09+00:00,20.011028051376,98,"updated stim.csv",Version98.csv,"Version 98","List 98",nipple,,2934,5.625,1775,0.831899049,2935,BOI,-,-,"Please name all of the ways you could use this object. Keep in mind that one object can have many uses. Separate your responses with a comma.",,y,19509,,,6109,18086,,,,"feed baby, get piercings",1
5daa828510839e0016aa193b_1,l51yebhjw8,"Affordance Norms_Prolific",1,34,2023-01-20T23:16:17+00:00,7.5568239688873,98,"updated stim.csv",Version98.csv,"Version 98","List 98",wrestler,,2920,4.96,2981,0.7759085,2921,BOI,-,-,"Please name all of the ways you could use this object. Keep in mind that one object can have many uses. Separate your responses with a comma.",,y,7076,,,4403,6055,,,,"watch on tv",1
5daa828510839e0016aa193b_1,l51yebhjw8,"Affordance Norms_Prolific",1,35,2023-01-20T23:16:38+00:00,20.926172971725,98,"updated stim.csv",Version98.csv,"Version 98","List 98",magnet,,2940,5.615384615,1572,0.02160949,2941,BOI,-,-,"Please name all of the ways you could use this object. Keep in mind that one object can have many uses. Separate your responses with a comma.",,y,20485,,,3605,19513,,,,"attract objects, hold objects together",1
5daa828510839e0016aa193b_1,l51yebhjw8,"Affordance Norms_Prolific",1,36,2023-01-20T23:16:52+00:00,14.223948001862,98,"updated stim.csv",Version98.csv,"Version 98","List 98",companion,,2936,5.739130435,611,0.366189046,2937,BOI,-,-,"Please name all of the ways you could use this object. Keep in mind that one object can have many uses. Separate your responses with a comma.",,y,13762,,,2387,12391,,,,"nurture, assure basic needs are met",1
5daa828510839e0016aa193b_1,l51yebhjw8,"Affordance Norms_Prolific",1,37,2023-01-20T23:17:00+00:00,7.6571400165558,98,"updated stim.csv",Version98.csv,"Version 98","List 98",tutu,,2932,5.413793103,2808,0.812200993,2933,BOI,-,-,"Please name all of the ways you could use this object. Keep in mind that one object can have many uses. Separate your responses with a comma.",,y,7136,,,1900,6014,,,,"wear, display, buy",1
5daa828510839e0016aa193b_1,l51yebhjw8,"Affordance Norms_Prolific",1,38,2023-01-20T23:17:20+00:00,20.161198854446,98,"updated stim.csv",Version98.csv,"Version 98","List 98",sand,,2937,5.956521739,2231,0.220118467,2938,BOI,-,-,"Please name all of the ways you could use this object. Keep in mind that one object can have many uses. Separate your responses with a comma.",,y,19641,,,1931,18053,,,,"bottle up, build a sandcastle, create glass",1
5daa828510839e0016aa193b_1,l51yebhjw8,"Affordance Norms_Prolific",1,39,2023-01-20T23:17:36+00:00,15.720989227295,98,"updated stim.csv",Version98.csv,"Version 98","List 98",buttercup,,2933,5.48,376,0.021029908,2934,BOI,-,-,"Please name all of the ways you could use this object. Keep in mind that one object can have many uses. Separate your responses with a comma.",,y,15206,,,7219,12534,,,,"pick, display",0.955
5daa828510839e0016aa193b_1,l51yebhjw8,"Affordance Norms_Prolific",1,40,2023-01-20T23:17:48+00:00,12.536061763763,98,"updated stim.csv",Version98.csv,"Version 98","List 98",schoolwork,,2918,4.5,2273,0.112705622,2919,BOI,-,-,"Please name all of the ways you could use this object. Keep in mind that one object can have many uses. Separate your responses with a comma.",,y,12076,,,1869,10012,,,,"finish, assign, forget",1
5daa828510839e0016aa193b_1,l51yebhjw8,"Affordance Norms_Prolific",1,41,2023-01-20T23:21:40+00:00,232.38711309433,98,"updated stim.csv",Version98.csv,"Version 98","List 98",,,,,,,0,Instruct,,,"You will now be asked a few questions about your experience today.",,"Instruct 4",231913,,,-1,-1,,,,,0.037
