Username,ID,ExperimentName,Session,Trial,Date,TimeDif,"Condition Number","Stimuli File","Order File","Condition Description","Condition Notes",Stimuli*Cue,Stimuli*Answer,Stimuli*Shuffle,"Stimuli*Stimuli Notes",Stimuli*Value,Stimuli*Rand,Procedure*Item,"Procedure*Trial Type","Procedure*Max Time","Procedure*Min Time",Procedure*Text,"Procedure*Procedure Notes",Procedure*Shuffle,Response*RT,Response*Response,Response*Accuracy,Response*RTfirst,Response*RTlast,Response*strictAcc,Response*lenientAcc,Response*focus,Response*JOL,Response*Focus
5da74e9437d4210016492810,68kdea2jk5,"Affordance Norms_Prolific",1,1,2023-01-20T22:44:45+00:00,13.226318836212,91,"updated stim.csv",Version91.csv,"Version 91","List 91",,,,,,,0,Instruct,-,10,"In this section, you will be presented with a series of objects. Please name as many possible uses for this object as you can think of by typing them in the box below each object.",,Instruct1,12313,,,-1,-1,,,,,1
5da74e9437d4210016492810,68kdea2jk5,"Affordance Norms_Prolific",1,2,2023-01-20T22:44:59+00:00,13.879509210587,91,"updated stim.csv",Version91.csv,"Version 91","List 91",,,,,,,0,Instruct,-,10,"Please keep in mind that a single object will have more than one use. For example, a ball can be thrown or can be bounced or even stepped on. When listing multiple uses for one object, please separate each use with a comma (i.e., thrown, bounced, stepped on)",,Instruct2,12945,,,-1,-1,,,,,1
5da74e9437d4210016492810,68kdea2jk5,"Affordance Norms_Prolific",1,3,2023-01-20T22:45:17+00:00,18.476189851761,91,"updated stim.csv",Version91.csv,"Version 91","List 91",,,,,,,0,Instruct,-,-,"Before starting the experiment, you will complete a short practice sesstion. Press ENTER when you are ready to begin.",,Instruct3,17635,,,-1,-1,,,,,1
5da74e9437d4210016492810,68kdea2jk5,"Affordance Norms_Prolific",1,4,2023-01-20T22:46:05+00:00,47.411748170853,91,"updated stim.csv",Version91.csv,"Version 91","List 91",grain,,3004,5.217391304,1143,0.226863762,3005,BOI,-,-,"Please name all of the ways you could use this object. Keep in mind that one object can have many uses. Separate your responses with a comma.",,n,46394,,,-1,-1,,,,"Plant, cook, eat, ",1
5da74e9437d4210016492810,68kdea2jk5,"Affordance Norms_Prolific",1,5,2023-01-20T22:47:12+00:00,67.08744096756,91,"updated stim.csv",Version91.csv,"Version 91","List 91",paperwork,,3001,5.625,1866,0.124284162,3002,BOI,-,-,"Please name all of the ways you could use this object. Keep in mind that one object can have many uses. Separate your responses with a comma.",,n,66122,,,-1,-1,,,,"Burn, file, wipe, make origami, read",1
5da74e9437d4210016492810,68kdea2jk5,"Affordance Norms_Prolific",1,6,2023-01-20T22:48:01+00:00,49.523954868317,91,"updated stim.csv",Version91.csv,"Version 91","List 91",spaghetti,,3003,6,2461,0.090379998,3004,BOI,-,-,"Please name all of the ways you could use this object. Keep in mind that one object can have many uses. Separate your responses with a comma.",,n,48572,,,-1,-1,,,,"Eat, cook, share, season, donate",1
5da74e9437d4210016492810,68kdea2jk5,"Affordance Norms_Prolific",1,7,2023-01-20T22:48:54+00:00,52.624907016754,91,"updated stim.csv",Version91.csv,"Version 91","List 91",shortening,,3002,4.92,2358,0.604328482,3003,BOI,-,-,"Please name all of the ways you could use this object. Keep in mind that one object can have many uses. Separate your responses with a comma.",,n,51628,,,-1,-1,,,,"Buy, cook, bake, lubricate, throw",1
5da74e9437d4210016492810,68kdea2jk5,"Affordance Norms_Prolific",1,8,2023-01-20T22:49:57+00:00,63.050305128098,91,"updated stim.csv",Version91.csv,"Version 91","List 91",saucer,,3005,5.777777778,2249,0.304808074,3006,BOI,-,-,"Please name all of the ways you could use this object. Keep in mind that one object can have many uses. Separate your responses with a comma.",,n,61973,,,-1,-1,,,,"Wash, buy, store, give, break, place",1
5da74e9437d4210016492810,68kdea2jk5,"Affordance Norms_Prolific",1,9,2023-01-20T22:50:00+00:00,3.333340883255,91,"updated stim.csv",Version91.csv,"Version 91","List 91",,,,,,,0,Instruct,-,-,"You have completed this section. Press ENTER to continue",,"Instruct 5",2568,,,-1,-1,,,,,1
5da74e9437d4210016492810,68kdea2jk5,"Affordance Norms_Prolific",1,10,2023-01-20T22:50:04+00:00,3.7666840553284,91,"updated stim.csv",Version91.csv,"Version 91","List 91",,,,,,,0,Instruct,-,-,"You will now start the full experiment. Press ENTER when you are ready to begin.",,,2984,,,-1,-1,,,,,1
5da74e9437d4210016492810,68kdea2jk5,"Affordance Norms_Prolific",1,11,2023-01-20T22:51:10+00:00,65.407377004623,91,"updated stim.csv",Version91.csv,"Version 91","List 91",record,,2725,4.75,2147,0.795554894,2726,BOI,-,-,"Please name all of the ways you could use this object. Keep in mind that one object can have many uses. Separate your responses with a comma.",,y,64517,,,-1,-1,,,,"Break, play, sell, store, fling, buy, listen",1
5da74e9437d4210016492810,68kdea2jk5,"Affordance Norms_Prolific",1,12,2023-01-20T22:52:12+00:00,62.154479026794,91,"updated stim.csv",Version91.csv,"Version 91","List 91",flyswatter,,2726,5.703703704,1022,0.30903365,2727,BOI,-,-,"Please name all of the ways you could use this object. Keep in mind that one object can have many uses. Separate your responses with a comma.",,y,61121,,,-1,-1,,,,"Swat, kill, hang, clean, purchase, give",1
5da74e9437d4210016492810,68kdea2jk5,"Affordance Norms_Prolific",1,13,2023-01-20T22:53:27+00:00,74.939538002014,91,"updated stim.csv",Version91.csv,"Version 91","List 91",clothesline,,2704,5.333333333,570,0.725946553,2705,BOI,-,-,"Please name all of the ways you could use this object. Keep in mind that one object can have many uses. Separate your responses with a comma.",,y,73983,,,-1,-1,,,,"Hang, tie, pull, whip, restrain, sell, ",1
5da74e9437d4210016492810,68kdea2jk5,"Affordance Norms_Prolific",1,14,2023-01-20T22:54:12+00:00,45.31896686554,91,"updated stim.csv",Version91.csv,"Version 91","List 91",moustache,,2719,5.347826087,1704,0.723940671,2720,BOI,-,-,"Please name all of the ways you could use this object. Keep in mind that one object can have many uses. Separate your responses with a comma.",,y,44375,,,-1,-1,,,,"Trim, grow, shave, dye, groom, comb",1
5da74e9437d4210016492810,68kdea2jk5,"Affordance Norms_Prolific",1,15,2023-01-20T22:55:13+00:00,61.356230020523,91,"updated stim.csv",Version91.csv,"Version 91","List 91",pedicurist,,2716,5.137931034,1903,0.617861066,2717,BOI,-,-,"Please name all of the ways you could use this object. Keep in mind that one object can have many uses. Separate your responses with a comma.",,y,60277,,,-1,-1,,,,"Pay, talk, watch, admire, call",1
5da74e9437d4210016492810,68kdea2jk5,"Affordance Norms_Prolific",1,16,2023-01-20T22:56:13+00:00,59.413732051849,91,"updated stim.csv",Version91.csv,"Version 91","List 91",pelvis,,2703,5.72,1911,0.367160384,2704,BOI,-,-,"Please name all of the ways you could use this object. Keep in mind that one object can have many uses. Separate your responses with a comma.",,y,58471,,,-1,-1,,,,"Thrust, massage, feel, love",1
5da74e9437d4210016492810,68kdea2jk5,"Affordance Norms_Prolific",1,17,2023-01-20T22:57:29+00:00,76.362364053726,91,"updated stim.csv",Version91.csv,"Version 91","List 91",car,,2727,6.035714286,428,0.210032637,2728,BOI,-,-,"Please name all of the ways you could use this object. Keep in mind that one object can have many uses. Separate your responses with a comma.",,y,75334,,,-1,-1,,,,"Drive, buy, insure, paint, fuel, sell, fix",1
5da74e9437d4210016492810,68kdea2jk5,"Affordance Norms_Prolific",1,18,2023-01-20T22:58:26+00:00,56.838238954544,91,"updated stim.csv",Version91.csv,"Version 91","List 91",crocodile,,2724,4.291666667,698,0.576043853,2725,BOI,-,-,"Please name all of the ways you could use this object. Keep in mind that one object can have many uses. Separate your responses with a comma.",,y,55921,,,-1,-1,,,,"Shoot, eat, watch, scare, hunt, trap",1
5da74e9437d4210016492810,68kdea2jk5,"Affordance Norms_Prolific",1,19,2023-01-20T22:59:28+00:00,61.745579004288,91,"updated stim.csv",Version91.csv,"Version 91","List 91",chopstick,,2707,5.625,533,0.944337853,2708,BOI,-,-,"Please name all of the ways you could use this object. Keep in mind that one object can have many uses. Separate your responses with a comma.",,y,60690,,,-1,-1,,,,"Buy, carve, give, throw",1
5da74e9437d4210016492810,68kdea2jk5,"Affordance Norms_Prolific",1,20,2023-01-20T23:01:13+00:00,105.54917407036,91,"updated stim.csv",Version91.csv,"Version 91","List 91",acrobat,,2705,5.043478261,9,0.473646521,2706,BOI,-,-,"Please name all of the ways you could use this object. Keep in mind that one object can have many uses. Separate your responses with a comma.",,y,104532,,,-1,-1,,,,"Watch, cheer, applaud, photograph, video, smell",1
5da74e9437d4210016492810,68kdea2jk5,"Affordance Norms_Prolific",1,21,2023-01-20T23:02:47+00:00,93.48743891716,91,"updated stim.csv",Version91.csv,"Version 91","List 91",goulash,,2712,4.846153846,1140,0.300977167,2713,BOI,-,-,"Please name all of the ways you could use this object. Keep in mind that one object can have many uses. Separate your responses with a comma.",,y,92496,,,77440,90201,,,,"Eat, purchase, spit, season, salt, heat, refrigerate, freeze",1
5da74e9437d4210016492810,68kdea2jk5,"Affordance Norms_Prolific",1,22,2023-01-20T23:04:13+00:00,86.03520989418,91,"updated stim.csv",Version91.csv,"Version 91","List 91",nugget,,2701,4.826086957,1784,0.565120674,2702,BOI,-,-,"Please name all of the ways you could use this object. Keep in mind that one object can have many uses. Separate your responses with a comma.",,y,84824,,,4422,82057,,,,"sell, eat, find, hide, search, throw",1
5da74e9437d4210016492810,68kdea2jk5,"Affordance Norms_Prolific",1,23,2023-01-20T23:05:16+00:00,62.739831209183,91,"updated stim.csv",Version91.csv,"Version 91","List 91",physiologist,,2709,4.75,1946,0.533639944,2710,BOI,-,-,"Please name all of the ways you could use this object. Keep in mind that one object can have many uses. Separate your responses with a comma.",,y,61764,,,3807,50596,,,,"call, see, pay, thank, touch",1
5da74e9437d4210016492810,68kdea2jk5,"Affordance Norms_Prolific",1,24,2023-01-20T23:06:25+00:00,69.069866895676,91,"updated stim.csv",Version91.csv,"Version 91","List 91",housewife,,2729,5.2,1333,0.450696717,2730,BOI,-,-,"Please name all of the ways you could use this object. Keep in mind that one object can have many uses. Separate your responses with a comma.",,y,68114,,,6617,59218,,,,"appreciate, thank, respect, revere, enjoy, help",1
5da74e9437d4210016492810,68kdea2jk5,"Affordance Norms_Prolific",1,25,2023-01-20T23:07:40+00:00,74.951903104782,91,"updated stim.csv",Version91.csv,"Version 91","List 91",horse,,2706,5.88,1312,0.28910975,2707,BOI,-,-,"Please name all of the ways you could use this object. Keep in mind that one object can have many uses. Separate your responses with a comma.",,y,73944,,,2599,68499,,,,"ride, feed, pet, massage, smell, clean, treat, greet, touch",1
5da74e9437d4210016492810,68kdea2jk5,"Affordance Norms_Prolific",1,26,2023-01-20T23:09:00+00:00,80.415671825409,91,"updated stim.csv",Version91.csv,"Version 91","List 91",penthouse,,2715,4.333333333,1918,0.574224431,2716,BOI,-,-,"Please name all of the ways you could use this object. Keep in mind that one object can have many uses. Separate your responses with a comma.",,y,79395,,,2362,18800,,,,"rent, purchase, clean, visit, stay, burn, leave",1
5da74e9437d4210016492810,68kdea2jk5,"Affordance Norms_Prolific",1,27,2023-01-20T23:10:00+00:00,59.743144989014,91,"updated stim.csv",Version91.csv,"Version 91","List 91",kleenex,,2723,6.043478261,1431,0.903319587,2724,BOI,-,-,"Please name all of the ways you could use this object. Keep in mind that one object can have many uses. Separate your responses with a comma.",,y,58667,,,-1,-1,,,,"Buy, wipe, blow, flush, burn, give",1
5da74e9437d4210016492810,68kdea2jk5,"Affordance Norms_Prolific",1,28,2023-01-20T23:11:09+00:00,69.45992398262,91,"updated stim.csv",Version91.csv,"Version 91","List 91",present,,2721,4.32,2060,0.47598815,2722,BOI,-,-,"Please name all of the ways you could use this object. Keep in mind that one object can have many uses. Separate your responses with a comma.",,y,68383,,,-1,-1,,,,"Give, purchase, wrap, hide, break, burn",1
5da74e9437d4210016492810,68kdea2jk5,"Affordance Norms_Prolific",1,29,2023-01-20T23:12:44+00:00,95.000688076019,91,"updated stim.csv",Version91.csv,"Version 91","List 91",gin,,2717,5.074074074,1103,0.01373338,2718,BOI,-,-,"Please name all of the ways you could use this object. Keep in mind that one object can have many uses. Separate your responses with a comma.",,y,94095,,,-1,-1,,,,"Drink, buy, share, store, smell, taste, spill, vomit",1
5da74e9437d4210016492810,68kdea2jk5,"Affordance Norms_Prolific",1,30,2023-01-20T23:13:57+00:00,72.799750089645,91,"updated stim.csv",Version91.csv,"Version 91","List 91",hailstone,,2722,5,1208,0.564230675,2723,BOI,-,-,"Please name all of the ways you could use this object. Keep in mind that one object can have many uses. Separate your responses with a comma.",,y,71783,,,-1,-1,,,,"Break, melt, step on, throw, dodge",1
5da74e9437d4210016492810,68kdea2jk5,"Affordance Norms_Prolific",1,31,2023-01-20T23:14:58+00:00,61.226733922958,91,"updated stim.csv",Version91.csv,"Version 91","List 91",stepsister,,2713,5.333333333,2529,0.9206728,2714,BOI,-,-,"Please name all of the ways you could use this object. Keep in mind that one object can have many uses. Separate your responses with a comma.",,y,60251,,,-1,-1,,,,"Greet, avoid, help",1
5da74e9437d4210016492810,68kdea2jk5,"Affordance Norms_Prolific",1,32,2023-01-20T23:15:49+00:00,50.746413946152,91,"updated stim.csv",Version91.csv,"Version 91","List 91",blackhead,,2720,4.739130435,229,0.930375226,2721,BOI,-,-,"Please name all of the ways you could use this object. Keep in mind that one object can have many uses. Separate your responses with a comma.",,y,49816,,,-1,-1,,,,"Pop, find, squeeze, show, pierce",1
5da74e9437d4210016492810,68kdea2jk5,"Affordance Norms_Prolific",1,33,2023-01-20T23:17:33+00:00,104.22783398628,91,"updated stim.csv",Version91.csv,"Version 91","List 91",trainer,,2728,5.357142857,2758,0.201211991,2729,BOI,-,-,"Please name all of the ways you could use this object. Keep in mind that one object can have many uses. Separate your responses with a comma.",,y,103233,,,-1,-1,,,,"Pay, thank, greet, cooperate with, trip, push, ignore, touch",1
5da74e9437d4210016492810,68kdea2jk5,"Affordance Norms_Prolific",1,34,2023-01-20T23:18:42+00:00,68.830996990204,91,"updated stim.csv",Version91.csv,"Version 91","List 91",hairstylist,,2711,5.041666667,1218,0.528817723,2712,BOI,-,-,"Please name all of the ways you could use this object. Keep in mind that one object can have many uses. Separate your responses with a comma.",,y,67756,,,-1,-1,,,,"Pay, greet, admire, touch, soothe, enjoy",1
5da74e9437d4210016492810,68kdea2jk5,"Affordance Norms_Prolific",1,35,2023-01-20T23:19:52+00:00,70.241194009781,91,"updated stim.csv",Version91.csv,"Version 91","List 91",practitioner,,2718,4.5,2057,0.084673005,2719,BOI,-,-,"Please name all of the ways you could use this object. Keep in mind that one object can have many uses. Separate your responses with a comma.",,y,69059,,,-1,-1,,,,"Pay, hire, enlist, call, respect, greet",1
5da74e9437d4210016492810,68kdea2jk5,"Affordance Norms_Prolific",1,36,2023-01-20T23:21:06+00:00,73.577316045761,91,"updated stim.csv",Version91.csv,"Version 91","List 91",ant,,2714,4.84,45,0.196570531,2715,BOI,-,-,"Please name all of the ways you could use this object. Keep in mind that one object can have many uses. Separate your responses with a comma.",,y,72534,,,-1,-1,,,,"Squish, study, analyze, eat, follow, magnify",1
5da74e9437d4210016492810,68kdea2jk5,"Affordance Norms_Prolific",1,37,2023-01-20T23:22:31+00:00,84.69366312027,91,"updated stim.csv",Version91.csv,"Version 91","List 91",wigwam,,2710,4.888888889,2937,0.352006909,2711,BOI,-,-,"Please name all of the ways you could use this object. Keep in mind that one object can have many uses. Separate your responses with a comma.",,y,83780,,,-1,-1,,,,"Build, break, burn, fix, study, admire, dismantle",1
5da74e9437d4210016492810,68kdea2jk5,"Affordance Norms_Prolific",1,38,2023-01-20T23:24:04+00:00,93.501801013947,91,"updated stim.csv",Version91.csv,"Version 91","List 91",midget,,2708,4.821428571,1657,0.005998145,2709,BOI,-,-,"Please name all of the ways you could use this object. Keep in mind that one object can have many uses. Separate your responses with a comma.",,y,92419,,,-1,-1,,,,"Greet, date, tease, photograph, help, question, touch, lift, support",1
5da74e9437d4210016492810,68kdea2jk5,"Affordance Norms_Prolific",1,39,2023-01-20T23:25:11+00:00,67.236630916595,91,"updated stim.csv",Version91.csv,"Version 91","List 91",sister,,2730,4.8,2387,0.181723275,2731,BOI,-,-,"Please name all of the ways you could use this object. Keep in mind that one object can have many uses. Separate your responses with a comma.",,y,66088,,,-1,-1,,,,"Call, greet, admire, ignore, help,",1
5da74e9437d4210016492810,68kdea2jk5,"Affordance Norms_Prolific",1,40,2023-01-20T23:25:51+00:00,39.994554042816,91,"updated stim.csv",Version91.csv,"Version 91","List 91",shirtsleeve,,2702,6.125,2347,0.794932287,2703,BOI,-,-,"Please name all of the ways you could use this object. Keep in mind that one object can have many uses. Separate your responses with a comma.",,y,38970,,,-1,-1,,,,"Tear, cut, wash, sew, burn",1
5da74e9437d4210016492810,68kdea2jk5,"Affordance Norms_Prolific",1,41,2023-01-20T23:25:55+00:00,3.5387148857117,91,"updated stim.csv",Version91.csv,"Version 91","List 91",,,,,,,0,Instruct,,,"You will now be asked a few questions about your experience today.",,"Instruct 4",2699,,,-1,-1,,,,,1
