Username,ID,ExperimentName,Session,Trial,Date,TimeDif,"Condition Number","Stimuli File","Order File","Condition Description","Condition Notes",Stimuli*Cue,Stimuli*Answer,Stimuli*Shuffle,"Stimuli*Stimuli Notes",Stimuli*Value,Procedure*Item,"Procedure*Trial Type","Procedure*Max Time","Procedure*Min Time",Procedure*Text,"Procedure*Procedure Notes",Procedure*Shuffle,Response*RT,Response*Response,Response*Accuracy,Response*RTfirst,Response*RTlast,Response*strictAcc,Response*lenientAcc,Response*focus,Response*JOL,Response*Focus
sydney.vis@hope.edu,kd6bprfuu9,Affordances_Hope,1,1,2022-11-13T01:42:11+00:00,10.972887992859,19,"updated stim.csv",Version44.csv,"Version 44","List 44",,,,,,0,Instruct,-,10,"In this section, you will be presented with a series of objects. Please name as many possible uses for this object as you can think of by typing them in the box below each object.",,Instruct1,10441,,,-1,-1,,,,,1
sydney.vis@hope.edu,kd6bprfuu9,Affordances_Hope,1,2,2022-11-13T01:42:23+00:00,11.801015853882,19,"updated stim.csv",Version44.csv,"Version 44","List 44",,,,,,0,Instruct,-,10,"Please keep in mind that a single object will have more than one use. For example, a ball can be thrown or can be bounced or even stepped on. When listing multiple uses for one object, please separate each use with a comma (i.e., thrown, bounced, stepped on)",,Instruct2,10928,,,-1,-1,,,,,1
sydney.vis@hope.edu,kd6bprfuu9,Affordances_Hope,1,3,2022-11-13T01:42:26+00:00,3.3677921295166,19,"updated stim.csv",Version44.csv,"Version 44","List 44",,,,,,0,Instruct,-,-,"Before starting the experiment, you will complete a short practice sesstion. Press ENTER when you are ready to begin.",,Instruct3,2781,,,-1,-1,,,,,1
sydney.vis@hope.edu,kd6bprfuu9,Affordances_Hope,1,4,2022-11-13T01:42:56+00:00,30.10092997551,19,"updated stim.csv",Version44.csv,"Version 44","List 44",paperwork,,3001,5.625,1866,3002,BOI,-,-,"Please name all of the ways you could use this object. Keep in mind that one object can have many uses. Separate your responses with a comma.",,n,29057,,,2663,26581,,,,"hand-in, write-on, rip, crumple",1
sydney.vis@hope.edu,kd6bprfuu9,Affordances_Hope,1,5,2022-11-13T01:43:10+00:00,14.463270902634,19,"updated stim.csv",Version44.csv,"Version 44","List 44",grain,,3004,5.217391304,1143,3005,BOI,-,-,"Please name all of the ways you could use this object. Keep in mind that one object can have many uses. Separate your responses with a comma.",,n,13557,,,10119,12703,,,,"wheat, whole",1
sydney.vis@hope.edu,kd6bprfuu9,Affordances_Hope,1,6,2022-11-13T01:43:24+00:00,13.794831991196,19,"updated stim.csv",Version44.csv,"Version 44","List 44",spaghetti,,3003,6,2461,3004,BOI,-,-,"Please name all of the ways you could use this object. Keep in mind that one object can have many uses. Separate your responses with a comma.",,n,12983,,,2145,11981,,,,"eat, cook, mix, pour ",1
sydney.vis@hope.edu,kd6bprfuu9,Affordances_Hope,1,7,2022-11-13T01:43:47+00:00,22.327510118484,19,"updated stim.csv",Version44.csv,"Version 44","List 44",saucer,,3005,5.777777778,2249,3006,BOI,-,-,"Please name all of the ways you could use this object. Keep in mind that one object can have many uses. Separate your responses with a comma.",,n,21632,,,3641,10875,,,,"throw, catch, step on",1
sydney.vis@hope.edu,kd6bprfuu9,Affordances_Hope,1,8,2022-11-13T01:43:56+00:00,9.2764489650726,19,"updated stim.csv",Version44.csv,"Version 44","List 44",shortening,,3002,4.92,2358,3003,BOI,-,-,"Please name all of the ways you could use this object. Keep in mind that one object can have many uses. Separate your responses with a comma.",,n,8401,,,2444,7544,,,,"bake, spill, cook",1
sydney.vis@hope.edu,kd6bprfuu9,Affordances_Hope,1,9,2022-11-13T01:43:58+00:00,2.5903449058533,19,"updated stim.csv",Version44.csv,"Version 44","List 44",,,,,,0,Instruct,-,-,"You have completed this section. Press ENTER to continue",,"Instruct 5",1996,,,-1,-1,,,,,1
sydney.vis@hope.edu,kd6bprfuu9,Affordances_Hope,1,10,2022-11-13T01:44:01+00:00,2.9211220741272,19,"updated stim.csv",Version44.csv,"Version 44","List 44",,,,,,0,Instruct,-,-,"You will now start the full experiment. Press ENTER when you are ready to begin.",,,2112,,,-1,-1,,,,,1
sydney.vis@hope.edu,kd6bprfuu9,Affordances_Hope,1,11,2022-11-13T01:44:21+00:00,20.104063987732,19,"updated stim.csv",Version44.csv,"Version 44","List 44",cellophane,,1315,4.703703704,475,1316,BOI,-,-,"Please name all of the ways you could use this object. Keep in mind that one object can have many uses. Separate your responses with a comma.",,y,19319,,,11081,18278,,,,"wrap, cover, drop, kick ",1
sydney.vis@hope.edu,kd6bprfuu9,Affordances_Hope,1,12,2022-11-13T01:44:33+00:00,11.435021877289,19,"updated stim.csv",Version44.csv,"Version 44","List 44",caviar,,1307,4.818181818,468,1308,BOI,-,-,"Please name all of the ways you could use this object. Keep in mind that one object can have many uses. Separate your responses with a comma.",,y,10606,,,1714,9799,,,,"eat, spill, buy",1
sydney.vis@hope.edu,kd6bprfuu9,Affordances_Hope,1,13,2022-11-13T01:44:49+00:00,16.032163143158,19,"updated stim.csv",Version44.csv,"Version 44","List 44",racehorse,,1292,5.208333333,2118,1293,BOI,-,-,"Please name all of the ways you could use this object. Keep in mind that one object can have many uses. Separate your responses with a comma.",,y,15229,,,2538,14289,,,,"bid, buy, run, watch ",1
sydney.vis@hope.edu,kd6bprfuu9,Affordances_Hope,1,14,2022-11-13T01:45:11+00:00,21.595642089844,19,"updated stim.csv",Version44.csv,"Version 44","List 44",residence,,1304,4.333333333,2157,1305,BOI,-,-,"Please name all of the ways you could use this object. Keep in mind that one object can have many uses. Separate your responses with a comma.",,y,20965,,,2128,19095,,,,"see, take care of, talk to",1
sydney.vis@hope.edu,kd6bprfuu9,Affordances_Hope,1,15,2022-11-13T01:45:49+00:00,38.273152828217,19,"updated stim.csv",Version44.csv,"Version 44","List 44",glassware,,1303,5.964285714,1113,1304,BOI,-,-,"Please name all of the ways you could use this object. Keep in mind that one object can have many uses. Separate your responses with a comma.",,y,37670,,,1987,36764,,,,"drop, break, drink ",0.873
sydney.vis@hope.edu,kd6bprfuu9,Affordances_Hope,1,16,2022-11-13T01:46:38+00:00,49.595524072647,19,"updated stim.csv",Version44.csv,"Version 44","List 44",cow,,1320,5.434782609,671,1321,BOI,-,-,"Please name all of the ways you could use this object. Keep in mind that one object can have many uses. Separate your responses with a comma.",,y,48829,,,2037,47222,,,,"eat, grow, pick",1
sydney.vis@hope.edu,kd6bprfuu9,Affordances_Hope,1,17,2022-11-13T01:47:18+00:00,39.625575065613,19,"updated stim.csv",Version44.csv,"Version 44","List 44",porch,,1313,4.44,2036,1314,BOI,-,-,"Please name all of the ways you could use this object. Keep in mind that one object can have many uses. Separate your responses with a comma.",,y,39053,,,1920,38297,,,,"sit, watch, sleep",1
sydney.vis@hope.edu,kd6bprfuu9,Affordances_Hope,1,18,2022-11-13T01:47:59+00:00,40.8607609272,19,"updated stim.csv",Version44.csv,"Version 44","List 44",cabin,,1316,4.56,388,1317,BOI,-,-,"Please name all of the ways you could use this object. Keep in mind that one object can have many uses. Separate your responses with a comma.",,y,40106,,,2632,38879,,,,"stay, sleep, eat",1
sydney.vis@hope.edu,kd6bprfuu9,Affordances_Hope,1,19,2022-11-13T01:48:24+00:00,25.073559999466,19,"updated stim.csv",Version44.csv,"Version 44","List 44",oregano,,1302,5.64,1819,1303,BOI,-,-,"Please name all of the ways you could use this object. Keep in mind that one object can have many uses. Separate your responses with a comma.",,y,24201,,,1955,23447,,,,"bake, est",1
sydney.vis@hope.edu,kd6bprfuu9,Affordances_Hope,1,20,2022-11-13T01:48:50+00:00,26.365950107574,19,"updated stim.csv",Version44.csv,"Version 44","List 44",divorcee,,1301,4.5,807,1302,BOI,-,-,"Please name all of the ways you could use this object. Keep in mind that one object can have many uses. Separate your responses with a comma.",,y,25749,,,20776,24593,,,,"talk, slap",1
sydney.vis@hope.edu,kd6bprfuu9,Affordances_Hope,1,21,2022-11-13T01:49:09+00:00,19.119650840759,19,"updated stim.csv",Version44.csv,"Version 44","List 44",vodka,,1312,5.56,2872,1313,BOI,-,-,"Please name all of the ways you could use this object. Keep in mind that one object can have many uses. Separate your responses with a comma.",,y,18100,,,7616,17344,,,,"drink, spill, puke, throw ",1
sydney.vis@hope.edu,kd6bprfuu9,Affordances_Hope,1,22,2022-11-13T01:49:23+00:00,13.759869098663,19,"updated stim.csv",Version44.csv,"Version 44","List 44",footstool,,1311,6.304347826,1039,1312,BOI,-,-,"Please name all of the ways you could use this object. Keep in mind that one object can have many uses. Separate your responses with a comma.",,y,12708,,,2088,11637,,,,"sit, rest, prop your feet ",1
sydney.vis@hope.edu,kd6bprfuu9,Affordances_Hope,1,23,2022-11-13T01:49:39+00:00,15.465437889099,19,"updated stim.csv",Version44.csv,"Version 44","List 44",barricade,,1319,4.28,155,1320,BOI,-,-,"Please name all of the ways you could use this object. Keep in mind that one object can have many uses. Separate your responses with a comma.",,y,14418,,,4380,12047,,,,"run in to, break",1
sydney.vis@hope.edu,kd6bprfuu9,Affordances_Hope,1,24,2022-11-13T01:50:04+00:00,24.970304012299,19,"updated stim.csv",Version44.csv,"Version 44","List 44",sauna,,1295,5.363636364,2251,1296,BOI,-,-,"Please name all of the ways you could use this object. Keep in mind that one object can have many uses. Separate your responses with a comma.",,y,24392,,,1623,23604,,,,"sit, sweat, talk, sleep",1
sydney.vis@hope.edu,kd6bprfuu9,Affordances_Hope,1,25,2022-11-13T01:50:57+00:00,53.40527510643,19,"updated stim.csv",Version44.csv,"Version 44","List 44",lyre,,1317,4.45,1561,1318,BOI,-,-,"Please name all of the ways you could use this object. Keep in mind that one object can have many uses. Separate your responses with a comma.",,y,52797,,,44957,51972,,,,"play, listen",1
sydney.vis@hope.edu,kd6bprfuu9,Affordances_Hope,1,26,2022-11-13T01:51:15+00:00,17.49195098877,19,"updated stim.csv",Version44.csv,"Version 44","List 44",carpeting,,1297,5.115384615,438,1298,BOI,-,-,"Please name all of the ways you could use this object. Keep in mind that one object can have many uses. Separate your responses with a comma.",,y,16900,,,5914,16098,,,,"put in, sit on, walk on, spill on",1
sydney.vis@hope.edu,kd6bprfuu9,Affordances_Hope,1,27,2022-11-13T01:51:52+00:00,36.968757867813,19,"updated stim.csv",Version44.csv,"Version 44","List 44",newsman,,1310,4.285714286,1759,1311,BOI,-,-,"Please name all of the ways you could use this object. Keep in mind that one object can have many uses. Separate your responses with a comma.",,y,36239,,,2020,33522,,,,"talk, recieve",1
sydney.vis@hope.edu,kd6bprfuu9,Affordances_Hope,1,28,2022-11-13T01:51:59+00:00,7.4596281051636,19,"updated stim.csv",Version44.csv,"Version 44","List 44",extinguisher,,1296,5.043478261,928,1297,BOI,-,-,"Please name all of the ways you could use this object. Keep in mind that one object can have many uses. Separate your responses with a comma.",,y,6742,,,2741,4472,,,,"drop, kick",1
sydney.vis@hope.edu,kd6bprfuu9,Affordances_Hope,1,29,2022-11-13T01:52:32+00:00,32.701448917389,19,"updated stim.csv",Version44.csv,"Version 44","List 44",handbag,,1293,6,1229,1294,BOI,-,-,"Please name all of the ways you could use this object. Keep in mind that one object can have many uses. Separate your responses with a comma.",,y,31894,,,4022,30740,,,,"hold, drop",1
sydney.vis@hope.edu,kd6bprfuu9,Affordances_Hope,1,30,2022-11-13T01:52:46+00:00,14.071437120438,19,"updated stim.csv",Version44.csv,"Version 44","List 44",braid,,1318,5.64,301,1319,BOI,-,-,"Please name all of the ways you could use this object. Keep in mind that one object can have many uses. Separate your responses with a comma.",,y,13224,,,10053,12402,,,,"cut, chop",1
sydney.vis@hope.edu,kd6bprfuu9,Affordances_Hope,1,31,2022-11-13T01:53:13+00:00,26.800588846207,19,"updated stim.csv",Version44.csv,"Version 44","List 44",pepper,,1298,5.875,1921,1299,BOI,-,-,"Please name all of the ways you could use this object. Keep in mind that one object can have many uses. Separate your responses with a comma.",,y,26083,,,19580,25395,,,,"eat, smell, lick",1
sydney.vis@hope.edu,kd6bprfuu9,Affordances_Hope,1,32,2022-11-13T01:53:21+00:00,8.5541110038757,19,"updated stim.csv",Version44.csv,"Version 44","List 44",yearbook,,1294,5.56,2992,1295,BOI,-,-,"Please name all of the ways you could use this object. Keep in mind that one object can have many uses. Separate your responses with a comma.",,y,7994,,,1524,6125,,,,"look, sign, open",1
sydney.vis@hope.edu,kd6bprfuu9,Affordances_Hope,1,33,2022-11-13T01:53:33+00:00,11.868203163147,19,"updated stim.csv",Version44.csv,"Version 44","List 44",watermelon,,1291,5.869565217,2911,1292,BOI,-,-,"Please name all of the ways you could use this object. Keep in mind that one object can have many uses. Separate your responses with a comma.",,y,11299,,,1491,10426,,,,"eat, cut, drink, srop",1
sydney.vis@hope.edu,kd6bprfuu9,Affordances_Hope,1,34,2022-11-13T01:53:51+00:00,17.672230005264,19,"updated stim.csv",Version44.csv,"Version 44","List 44",pliers,,1300,6.086956522,2007,1301,BOI,-,-,"Please name all of the ways you could use this object. Keep in mind that one object can have many uses. Separate your responses with a comma.",,y,16709,,,2485,15952,,,,"drop, close, hold ",1
sydney.vis@hope.edu,kd6bprfuu9,Affordances_Hope,1,35,2022-11-13T01:54:04+00:00,12.930809020996,19,"updated stim.csv",Version44.csv,"Version 44","List 44",pillar,,1299,5.041666667,1961,1300,BOI,-,-,"Please name all of the ways you could use this object. Keep in mind that one object can have many uses. Separate your responses with a comma.",,y,12340,,,2414,11702,,,,"stand on, cut",1
sydney.vis@hope.edu,kd6bprfuu9,Affordances_Hope,1,36,2022-11-13T01:54:10+00:00,5.960343837738,19,"updated stim.csv",Version44.csv,"Version 44","List 44",shortbread,,1314,5.416666667,2356,1315,BOI,-,-,"Please name all of the ways you could use this object. Keep in mind that one object can have many uses. Separate your responses with a comma.",,y,5356,,,1481,4683,,,,"eat, drop, smell",1
sydney.vis@hope.edu,kd6bprfuu9,Affordances_Hope,1,37,2022-11-13T01:54:34+00:00,24.933647155762,19,"updated stim.csv",Version44.csv,"Version 44","List 44",beer,,1309,5.791666667,192,1310,BOI,-,-,"Please name all of the ways you could use this object. Keep in mind that one object can have many uses. Separate your responses with a comma.",,y,24366,,,14502,23559,,,,"drink, throw up",1
sydney.vis@hope.edu,kd6bprfuu9,Affordances_Hope,1,38,2022-11-13T01:54:54+00:00,19.450585842133,19,"updated stim.csv",Version44.csv,"Version 44","List 44",compass,,1308,5.538461538,612,1309,BOI,-,-,"Please name all of the ways you could use this object. Keep in mind that one object can have many uses. Separate your responses with a comma.",,y,18569,,,2046,17713,,,,"see, analyze, drop, step on",1
sydney.vis@hope.edu,kd6bprfuu9,Affordances_Hope,1,39,2022-11-13T01:55:13+00:00,18.760758161545,19,"updated stim.csv",Version44.csv,"Version 44","List 44",headdress,,1305,5.541666667,1265,1306,BOI,-,-,"Please name all of the ways you could use this object. Keep in mind that one object can have many uses. Separate your responses with a comma.",,y,18158,,,3954,17453,,,,"hold, smell",1
sydney.vis@hope.edu,kd6bprfuu9,Affordances_Hope,1,40,2022-11-13T01:55:23+00:00,10.716642856598,19,"updated stim.csv",Version44.csv,"Version 44","List 44",cradle,,1306,5.652173913,678,1307,BOI,-,-,"Please name all of the ways you could use this object. Keep in mind that one object can have many uses. Separate your responses with a comma.",,y,10110,,,2906,9339,,,,"throw, spin, drop",1
sydney.vis@hope.edu,kd6bprfuu9,Affordances_Hope,1,41,2022-11-13T01:55:27+00:00,3.8550860881805,19,"updated stim.csv",Version44.csv,"Version 44","List 44",,,,,,0,Instruct,,,"You will now be asked a few questions about your experience today.",,"Instruct 4",3043,,,-1,-1,,,,,1
