Username,ID,ExperimentName,Session,Trial,Date,TimeDif,"Condition Number","Stimuli File","Order File","Condition Description","Condition Notes",Stimuli*Cue,Stimuli*Answer,Stimuli*Shuffle,"Stimuli*Stimuli Notes",Stimuli*Value,Procedure*Item,"Procedure*Trial Type","Procedure*Max Time","Procedure*Min Time",Procedure*Text,"Procedure*Procedure Notes",Procedure*Shuffle,Response*RT,Response*Response,Response*Accuracy,Response*RTfirst,Response*RTlast,Response*strictAcc,Response*lenientAcc,Response*focus,Response*JOL,Response*Focus
grace.kelly@hope.edu,rasb9t8a1o,Affordances_Hope,1,1,2022-11-10T21:17:31+00:00,11.219283103943,15,"updated stim.csv",Version40.csv,"Version 40","List 40",,,,,,0,Instruct,-,10,"In this section, you will be presented with a series of objects. Please name as many possible uses for this object as you can think of by typing them in the box below each object.",,Instruct1,11116,,,-1,-1,,,,,1
grace.kelly@hope.edu,rasb9t8a1o,Affordances_Hope,1,2,2022-11-10T21:17:43+00:00,12.394258975983,15,"updated stim.csv",Version40.csv,"Version 40","List 40",,,,,,0,Instruct,-,10,"Please keep in mind that a single object will have more than one use. For example, a ball can be thrown or can be bounced or even stepped on. When listing multiple uses for one object, please separate each use with a comma (i.e., thrown, bounced, stepped on)",,Instruct2,12247,,,-1,-1,,,,,1
grace.kelly@hope.edu,rasb9t8a1o,Affordances_Hope,1,3,2022-11-10T21:17:48+00:00,4.9851319789886,15,"updated stim.csv",Version40.csv,"Version 40","List 40",,,,,,0,Instruct,-,-,"Before starting the experiment, you will complete a short practice sesstion. Press ENTER when you are ready to begin.",,Instruct3,4832,,,-1,-1,,,,,1
grace.kelly@hope.edu,rasb9t8a1o,Affordances_Hope,1,4,2022-11-10T21:18:31+00:00,42.192875862122,15,"updated stim.csv",Version40.csv,"Version 40","List 40",grain,,3004,5.217391304,1143,3005,BOI,-,-,"Please name all of the ways you could use this object. Keep in mind that one object can have many uses. Separate your responses with a comma.",,n,41954,,,15126,32968,,,,"eaten, thrown, grown",1
grace.kelly@hope.edu,rasb9t8a1o,Affordances_Hope,1,5,2022-11-10T21:19:48+00:00,77.380573987961,15,"updated stim.csv",Version40.csv,"Version 40","List 40",saucer,,3005,5.777777778,2249,3006,BOI,-,-,"Please name all of the ways you could use this object. Keep in mind that one object can have many uses. Separate your responses with a comma.",,n,77132,,,15223,65889,,,,"cup holder, plate for food, decoration",1
grace.kelly@hope.edu,rasb9t8a1o,Affordances_Hope,1,6,2022-11-10T21:21:05+00:00,76.947968006134,15,"updated stim.csv",Version40.csv,"Version 40","List 40",spaghetti,,3003,6,2461,3004,BOI,-,-,"Please name all of the ways you could use this object. Keep in mind that one object can have many uses. Separate your responses with a comma.",,n,76688,,,9494,75167,,,,"food, art/crafts, experiments, food fights",1
grace.kelly@hope.edu,rasb9t8a1o,Affordances_Hope,1,7,2022-11-10T21:22:05+00:00,59.977144002914,15,"updated stim.csv",Version40.csv,"Version 40","List 40",shortening,,3002,4.92,2358,3003,BOI,-,-,"Please name all of the ways you could use this object. Keep in mind that one object can have many uses. Separate your responses with a comma.",,n,59710,,,3297,54453,,,,"baking/cooking, grease",1
grace.kelly@hope.edu,rasb9t8a1o,Affordances_Hope,1,8,2022-11-10T21:23:14+00:00,68.687920093536,15,"updated stim.csv",Version40.csv,"Version 40","List 40",paperwork,,3001,5.625,1866,3002,BOI,-,-,"Please name all of the ways you could use this object. Keep in mind that one object can have many uses. Separate your responses with a comma.",,n,68434,,,23212,51148,,,,"writing, work, tracking information",1
grace.kelly@hope.edu,rasb9t8a1o,Affordances_Hope,1,9,2022-11-10T21:23:20+00:00,6.808758020401,15,"updated stim.csv",Version40.csv,"Version 40","List 40",,,,,,0,Instruct,-,-,"You have completed this section. Press ENTER to continue",,"Instruct 5",6660,,,-1,-1,,,,,1
grace.kelly@hope.edu,rasb9t8a1o,Affordances_Hope,1,10,2022-11-10T21:23:25+00:00,4.9113819599152,15,"updated stim.csv",Version40.csv,"Version 40","List 40",,,,,,0,Instruct,-,-,"You will now start the full experiment. Press ENTER when you are ready to begin.",,,4771,,,-1,-1,,,,,1
grace.kelly@hope.edu,rasb9t8a1o,Affordances_Hope,1,11,2022-11-10T21:25:10+00:00,104.31546711922,15,"updated stim.csv",Version40.csv,"Version 40","List 40",oilcan,,1200,4.782608696,1802,1201,BOI,-,-,"Please name all of the ways you could use this object. Keep in mind that one object can have many uses. Separate your responses with a comma.",,y,104072,,,38925,95300,,,,"store oil, hold flowers, throw",1
grace.kelly@hope.edu,rasb9t8a1o,Affordances_Hope,1,12,2022-11-10T21:26:42+00:00,92.485465764999,15,"updated stim.csv",Version40.csv,"Version 40","List 40",straitjacket,,1187,5.037037037,2558,1188,BOI,-,-,"Please name all of the ways you could use this object. Keep in mind that one object can have many uses. Separate your responses with a comma.",,y,92247,,,5308,69106,,,,"hold someone's arms down, keep warm",1
grace.kelly@hope.edu,rasb9t8a1o,Affordances_Hope,1,13,2022-11-10T21:27:54+00:00,71.582804203033,15,"updated stim.csv",Version40.csv,"Version 40","List 40",baklava,,1171,5.454545455,126,1172,BOI,-,-,"Please name all of the ways you could use this object. Keep in mind that one object can have many uses. Separate your responses with a comma.",,y,71324,,,25284,66217,,,,"food, help learn to bake, gift",1
grace.kelly@hope.edu,rasb9t8a1o,Affordances_Hope,1,14,2022-11-10T21:28:53+00:00,59.393360853195,15,"updated stim.csv",Version40.csv,"Version 40","List 40",denims,,1181,5.541666667,774,1182,BOI,-,-,"Please name all of the ways you could use this object. Keep in mind that one object can have many uses. Separate your responses with a comma.",,y,59154,,,2778,56214,,,,"clothing, purse, apron, crafts",1
grace.kelly@hope.edu,rasb9t8a1o,Affordances_Hope,1,15,2022-11-10T21:29:17+00:00,23.866368055344,15,"updated stim.csv",Version40.csv,"Version 40","List 40",trombone,,1194,5.75,2781,1195,BOI,-,-,"Please name all of the ways you could use this object. Keep in mind that one object can have many uses. Separate your responses with a comma.",,y,23610,,,2218,21809,,,,"music, decoration, weapon",1
grace.kelly@hope.edu,rasb9t8a1o,Affordances_Hope,1,16,2022-11-10T21:30:27+00:00,69.750067949295,15,"updated stim.csv",Version40.csv,"Version 40","List 40",tank,,1173,4.608695652,2631,1174,BOI,-,-,"Please name all of the ways you could use this object. Keep in mind that one object can have many uses. Separate your responses with a comma.",,y,69515,,,4042,66109,,,,"hold fish/animals, get dunked in, swim in, hold plants",1
grace.kelly@hope.edu,rasb9t8a1o,Affordances_Hope,1,17,2022-11-10T21:31:12+00:00,44.87459397316,15,"updated stim.csv",Version40.csv,"Version 40","List 40",signpost,,1198,5.25,2380,1199,BOI,-,-,"Please name all of the ways you could use this object. Keep in mind that one object can have many uses. Separate your responses with a comma.",,y,44635,,,2791,36476,,,,"hold a sign, give directions",1
grace.kelly@hope.edu,rasb9t8a1o,Affordances_Hope,1,18,2022-11-10T21:31:51+00:00,39.498610019684,15,"updated stim.csv",Version40.csv,"Version 40","List 40",bleacher,,1196,5.083333333,235,1197,BOI,-,-,"Please name all of the ways you could use this object. Keep in mind that one object can have many uses. Separate your responses with a comma.",,y,39260,,,6012,31085,,,,"seating, roof, exercise tool",1
grace.kelly@hope.edu,rasb9t8a1o,Affordances_Hope,1,19,2022-11-10T21:32:47+00:00,55.81581902504,15,"updated stim.csv",Version40.csv,"Version 40","List 40",dance,,1180,4.44,753,1181,BOI,-,-,"Please name all of the ways you could use this object. Keep in mind that one object can have many uses. Separate your responses with a comma.",,y,55577,,,5573,26297,,,,"fun, exercise, learning",1
grace.kelly@hope.edu,rasb9t8a1o,Affordances_Hope,1,20,2022-11-10T21:33:43+00:00,55.909722089767,15,"updated stim.csv",Version40.csv,"Version 40","List 40",newspaperman,,1195,4.48,1761,1196,BOI,-,-,"Please name all of the ways you could use this object. Keep in mind that one object can have many uses. Separate your responses with a comma.",,y,55673,,,8426,49225,,,,"give newspapers, talk to",1
grace.kelly@hope.edu,rasb9t8a1o,Affordances_Hope,1,21,2022-11-10T21:35:00+00:00,77.280961036682,15,"updated stim.csv",Version40.csv,"Version 40","List 40",piccolo,,1182,4.956521739,1948,1183,BOI,-,-,"Please name all of the ways you could use this object. Keep in mind that one object can have many uses. Separate your responses with a comma.",,y,77040,,,2859,74176,,,,"music, baton",1
grace.kelly@hope.edu,rasb9t8a1o,Affordances_Hope,1,22,2022-11-10T21:35:40+00:00,40.035612821579,15,"updated stim.csv",Version40.csv,"Version 40","List 40",sushi,,1199,5.708333333,2597,1200,BOI,-,-,"Please name all of the ways you could use this object. Keep in mind that one object can have many uses. Separate your responses with a comma.",,y,39799,,,1417,29757,,,,"food, cooking education, social connection",1
grace.kelly@hope.edu,rasb9t8a1o,Affordances_Hope,1,23,2022-11-10T21:37:45+00:00,124.88785505295,15,"updated stim.csv",Version40.csv,"Version 40","List 40",clitoris,,1172,6.090909091,564,1173,BOI,-,-,"Please name all of the ways you could use this object. Keep in mind that one object can have many uses. Separate your responses with a comma.",,y,124648,,,98188,121909,,,,examining,1
grace.kelly@hope.edu,rasb9t8a1o,Affordances_Hope,1,24,2022-11-10T21:38:48+00:00,62.950242042542,15,"updated stim.csv",Version40.csv,"Version 40","List 40",epidermis,,1191,5.636363636,916,1192,BOI,-,-,"Please name all of the ways you could use this object. Keep in mind that one object can have many uses. Separate your responses with a comma.",,y,62699,,,36897,50200,,,,"touch, burn, peel",1
grace.kelly@hope.edu,rasb9t8a1o,Affordances_Hope,1,25,2022-11-10T21:39:06+00:00,17.801311969757,15,"updated stim.csv",Version40.csv,"Version 40","List 40",gyroscope,,1189,4.814814815,1207,1190,BOI,-,-,"Please name all of the ways you could use this object. Keep in mind that one object can have many uses. Separate your responses with a comma.",,y,17647,,,-1,-1,,,,,1
grace.kelly@hope.edu,rasb9t8a1o,Affordances_Hope,1,26,2022-11-10T21:39:52+00:00,46.621858119965,15,"updated stim.csv",Version40.csv,"Version 40","List 40",pie,,1178,5.869565217,1953,1179,BOI,-,-,"Please name all of the ways you could use this object. Keep in mind that one object can have many uses. Separate your responses with a comma.",,y,46381,,,2511,42926,,,,"food, throwing, baking education, happiness",1
grace.kelly@hope.edu,rasb9t8a1o,Affordances_Hope,1,27,2022-11-10T21:40:32+00:00,39.977907896042,15,"updated stim.csv",Version40.csv,"Version 40","List 40",monk,,1176,5.173913043,1680,1177,BOI,-,-,"Please name all of the ways you could use this object. Keep in mind that one object can have many uses. Separate your responses with a comma.",,y,39733,,,32871,38168,,,,"talk to, learn from",1
grace.kelly@hope.edu,rasb9t8a1o,Affordances_Hope,1,28,2022-11-10T21:42:01+00:00,88.755947113037,15,"updated stim.csv",Version40.csv,"Version 40","List 40",makeup,,1186,6,1580,1187,BOI,-,-,"Please name all of the ways you could use this object. Keep in mind that one object can have many uses. Separate your responses with a comma.",,y,88527,,,5246,85100,,,,"cover parts of face, decorate parts of face, express oneself, gift ",1
grace.kelly@hope.edu,rasb9t8a1o,Affordances_Hope,1,29,2022-11-10T21:42:38+00:00,36.998915910721,15,"updated stim.csv",Version40.csv,"Version 40","List 40",walker,,1179,5.181818182,2885,1180,BOI,-,-,"Please name all of the ways you could use this object. Keep in mind that one object can have many uses. Separate your responses with a comma.",,y,36749,,,5811,27319,,,,"help someone walk, help someone stand up",1
grace.kelly@hope.edu,rasb9t8a1o,Affordances_Hope,1,30,2022-11-10T21:43:15+00:00,36.730453014374,15,"updated stim.csv",Version40.csv,"Version 40","List 40",porridge,,1190,4.80952381,2038,1191,BOI,-,-,"Please name all of the ways you could use this object. Keep in mind that one object can have many uses. Separate your responses with a comma.",,y,36475,,,1723,6619,,,,"food, warmth",1
grace.kelly@hope.edu,rasb9t8a1o,Affordances_Hope,1,31,2022-11-10T21:44:06+00:00,51.360190868378,15,"updated stim.csv",Version40.csv,"Version 40","List 40",bedspread,,1174,6.08,188,1175,BOI,-,-,"Please name all of the ways you could use this object. Keep in mind that one object can have many uses. Separate your responses with a comma.",,y,51109,,,2755,49246,,,,"warmth, decoration, blanket fort, picnic blanket",1
grace.kelly@hope.edu,rasb9t8a1o,Affordances_Hope,1,32,2022-11-10T21:45:17+00:00,71.252368211746,15,"updated stim.csv",Version40.csv,"Version 40","List 40",piercing,,1184,5,1954,1185,BOI,-,-,"Please name all of the ways you could use this object. Keep in mind that one object can have many uses. Separate your responses with a comma.",,y,71011,,,10328,59994,,,,"self-expression, weapon",1
grace.kelly@hope.edu,rasb9t8a1o,Affordances_Hope,1,33,2022-11-10T21:46:00+00:00,42.978031873703,15,"updated stim.csv",Version40.csv,"Version 40","List 40",buckle,,1188,4.846153846,342,1189,BOI,-,-,"Please name all of the ways you could use this object. Keep in mind that one object can have many uses. Separate your responses with a comma.",,y,42737,,,5019,35686,,,,"connect a belt",1
grace.kelly@hope.edu,rasb9t8a1o,Affordances_Hope,1,34,2022-11-10T21:47:11+00:00,70.269005060196,15,"updated stim.csv",Version40.csv,"Version 40","List 40",goldsmith,,1193,4.375,1134,1194,BOI,-,-,"Please name all of the ways you could use this object. Keep in mind that one object can have many uses. Separate your responses with a comma.",,y,70028,,,19554,68462,,,,"buy gold/jewelry from, talk to, learn from",1
grace.kelly@hope.edu,rasb9t8a1o,Affordances_Hope,1,35,2022-11-10T21:47:37+00:00,26.254622936249,15,"updated stim.csv",Version40.csv,"Version 40","List 40",stopwatch,,1185,6.041666667,2549,1186,BOI,-,-,"Please name all of the ways you could use this object. Keep in mind that one object can have many uses. Separate your responses with a comma.",,y,26016,,,5208,16264,,,,"track time",1
grace.kelly@hope.edu,rasb9t8a1o,Affordances_Hope,1,36,2022-11-10T21:48:17+00:00,39.805931091309,15,"updated stim.csv",Version40.csv,"Version 40","List 40",bat,,1192,5.041666667,166,1193,BOI,-,-,"Please name all of the ways you could use this object. Keep in mind that one object can have many uses. Separate your responses with a comma.",,y,39563,,,6708,35800,,,,"hit a ball, weapon, cane",1
grace.kelly@hope.edu,rasb9t8a1o,Affordances_Hope,1,37,2022-11-10T21:49:44+00:00,87.605512857437,15,"updated stim.csv",Version40.csv,"Version 40","List 40",canteen,,1183,5.607142857,419,1184,BOI,-,-,"Please name all of the ways you could use this object. Keep in mind that one object can have many uses. Separate your responses with a comma.",,y,87369,,,2066,70686,,,,"hold a drink/food, hold flowers, weapon",1
grace.kelly@hope.edu,rasb9t8a1o,Affordances_Hope,1,38,2022-11-10T21:50:15+00:00,30.710489988327,15,"updated stim.csv",Version40.csv,"Version 40","List 40",salad,,1175,6.111111111,2218,1176,BOI,-,-,"Please name all of the ways you could use this object. Keep in mind that one object can have many uses. Separate your responses with a comma.",,y,30444,,,1894,16619,,,,"food, food fight",1
grace.kelly@hope.edu,rasb9t8a1o,Affordances_Hope,1,39,2022-11-10T21:51:14+00:00,58.622011184692,15,"updated stim.csv",Version40.csv,"Version 40","List 40",acorn,,1197,5.28,8,1198,BOI,-,-,"Please name all of the ways you could use this object. Keep in mind that one object can have many uses. Separate your responses with a comma.",,y,58378,,,3943,32872,,,,"food, fall decorations, squirrel bait",1
grace.kelly@hope.edu,rasb9t8a1o,Affordances_Hope,1,40,2022-11-10T21:52:52+00:00,98.077176809311,15,"updated stim.csv",Version40.csv,"Version 40","List 40",twine,,1177,5.5,2812,1178,BOI,-,-,"Please name all of the ways you could use this object. Keep in mind that one object can have many uses. Separate your responses with a comma.",,y,97827,,,6242,77524,,,,"hold things together, wrap around things, hang things up",1
grace.kelly@hope.edu,rasb9t8a1o,Affordances_Hope,1,41,2022-11-10T21:52:57+00:00,5.1344451904297,15,"updated stim.csv",Version40.csv,"Version 40","List 40",,,,,,0,Instruct,,,"You will now be asked a few questions about your experience today.",,"Instruct 4",4969,,,-1,-1,,,,,1
