Username,ID,Trial,Question,Type,RT,Response
test,weo0anccbc,1,"Did the experiment go smoothly or were there problems? (Note: Your compensation will not depend on your answer below, so please be honest.)!!!",Radio,2148,Smooth
test,weo0anccbc,2,"Have you participated in this experiment (or another experiment using the same learning materials) before?",Radio,5251,Naive
test,weo0anccbc,3,"How much fun was this experiment? <p>1 being very fun -- 7 being the MOST FUN EVER</p>",Likert,2240,5
test,weo0anccbc,4,"Were you doing anything else while this experiment was going on? You will get credit no matter how you respond here.",Text,1751,dtews
test,weo0anccbc,5,"Which of the following problems did you have?",Checkbox,1870,none
ML5115,72aqgaagpe,1,"Did the experiment go smoothly or were there problems? (Note: Your compensation will not depend on your answer below, so please be honest.)!!!",Radio,11763,MinorBumps
ML5115,72aqgaagpe,2,"Have you participated in this experiment (or another experiment using the same learning materials) before?",Radio,6470,Naive
ML5115,72aqgaagpe,3,"How much fun was this experiment? <p>1 being very fun -- 7 being the MOST FUN EVER</p>",Likert,26320,2
ML5115,72aqgaagpe,4,"Were you doing anything else while this experiment was going on? You will get credit no matter how you respond here.",Text,31417,"I checked my phone when I got texts. "
ML5115,72aqgaagpe,5,"Which of the following problems did you have?",Checkbox,15731,none
MM9115,8ynb8vwj6c,1,"Did the experiment go smoothly or were there problems? (Note: Your compensation will not depend on your answer below, so please be honest.)!!!",Radio,4892,Smooth
MM9115,8ynb8vwj6c,2,"Have you participated in this experiment (or another experiment using the same learning materials) before?",Radio,3681,Naive
MM9115,8ynb8vwj6c,3,"How much fun was this experiment? <p>1 being very fun -- 7 being the MOST FUN EVER</p>",Likert,7359,2
MM9115,8ynb8vwj6c,4,"Were you doing anything else while this experiment was going on? You will get credit no matter how you respond here.",Text,6110,No
MM9115,8ynb8vwj6c,5,"Which of the following problems did you have?",Checkbox,5358,"internet connectivity problems"
MM9115,8ynb8vwj6c,5,"Which of the following problems did you have?",Checkbox,5358,none
JB1475,9jsxaln5x8,1,"Did the experiment go smoothly or were there problems? (Note: Your compensation will not depend on your answer below, so please be honest.)!!!",Radio,6087,Smooth
JB1475,9jsxaln5x8,2,"Have you participated in this experiment (or another experiment using the same learning materials) before?",Radio,5282,Naive
JB1475,9jsxaln5x8,3,"How much fun was this experiment? <p>1 being very fun -- 7 being the MOST FUN EVER</p>",Likert,5134,4
JB1475,9jsxaln5x8,4,"Were you doing anything else while this experiment was going on? You will get credit no matter how you respond here.",Text,6576,No
JB1475,9jsxaln5x8,5,"Which of the following problems did you have?",Checkbox,8604,"blank page"
JB1475,9jsxaln5x8,5,"Which of the following problems did you have?",Checkbox,8604,"internet connectivity problems"
MW6542,hsyqn5504j,1,"Did the experiment go smoothly or were there problems? (Note: Your compensation will not depend on your answer below, so please be honest.)!!!",Radio,6053,Smooth
MW6542,hsyqn5504j,2,"Have you participated in this experiment (or another experiment using the same learning materials) before?",Radio,7302,Naive
MW6542,hsyqn5504j,3,"How much fun was this experiment? <p>1 being very fun -- 7 being the MOST FUN EVER</p>",Likert,5278,5
MW6542,hsyqn5504j,4,"Were you doing anything else while this experiment was going on? You will get credit no matter how you respond here.",Text,9062,No
MW6542,hsyqn5504j,5,"Which of the following problems did you have?",Checkbox,5848,none
EB2483,9a6a96k1lq,1,"Did the experiment go smoothly or were there problems? (Note: Your compensation will not depend on your answer below, so please be honest.)!!!",Radio,7284,Smooth
EB2483,9a6a96k1lq,2,"Have you participated in this experiment (or another experiment using the same learning materials) before?",Radio,4370,Naive
EB2483,9a6a96k1lq,3,"How much fun was this experiment? <p>1 being very fun -- 7 being the MOST FUN EVER</p>",Likert,4733,4
EB2483,9a6a96k1lq,4,"Were you doing anything else while this experiment was going on? You will get credit no matter how you respond here.",Text,5875,Nope
EB2483,9a6a96k1lq,5,"Which of the following problems did you have?",Checkbox,6528,none
VL8728,wwn89v5rz7,1,"Did the experiment go smoothly or were there problems? (Note: Your compensation will not depend on your answer below, so please be honest.)!!!",Radio,2539,Smooth
VL8728,wwn89v5rz7,2,"Have you participated in this experiment (or another experiment using the same learning materials) before?",Radio,3677,Naive
VL8728,wwn89v5rz7,3,"How much fun was this experiment? <p>1 being very fun -- 7 being the MOST FUN EVER</p>",Likert,4438,5
VL8728,wwn89v5rz7,4,"Were you doing anything else while this experiment was going on? You will get credit no matter how you respond here.",Text,6899,No
VL8728,wwn89v5rz7,5,"Which of the following problems did you have?",Checkbox,2599,none
AU1755,nvjm88b363,1,"Did the experiment go smoothly or were there problems? (Note: Your compensation will not depend on your answer below, so please be honest.)!!!",Radio,17125,Smooth
AU1755,nvjm88b363,2,"Have you participated in this experiment (or another experiment using the same learning materials) before?",Radio,9072,Naive
AU1755,nvjm88b363,3,"How much fun was this experiment? <p>1 being very fun -- 7 being the MOST FUN EVER</p>",Likert,5330,4
AU1755,nvjm88b363,4,"Were you doing anything else while this experiment was going on? You will get credit no matter how you respond here.",Text,10687,No
AU1755,nvjm88b363,5,"Which of the following problems did you have?",Checkbox,6683,none
JanedisColon331.643.2681,hnsz3g0edm,1,"Did the experiment go smoothly or were there problems? (Note: Your compensation will not depend on your answer below, so please be honest.)!!!",Radio,10456,Smooth
JanedisColon331.643.2681,hnsz3g0edm,2,"Have you participated in this experiment (or another experiment using the same learning materials) before?",Radio,6252,Naive
JanedisColon331.643.2681,hnsz3g0edm,3,"How much fun was this experiment? <p>1 being very fun -- 7 being the MOST FUN EVER</p>",Likert,7321,4
JanedisColon331.643.2681,hnsz3g0edm,4,"Were you doing anything else while this experiment was going on? You will get credit no matter how you respond here.",Text,8458,yes
JanedisColon331.643.2681,hnsz3g0edm,5,"Which of the following problems did you have?",Checkbox,13782,"internet connectivity problems"
JB2271,bcq8lduaye,1,"Did the experiment go smoothly or were there problems? (Note: Your compensation will not depend on your answer below, so please be honest.)!!!",Radio,13807,Smooth
JB2271,bcq8lduaye,2,"Have you participated in this experiment (or another experiment using the same learning materials) before?",Radio,21356,Naive
JB2271,bcq8lduaye,3,"How much fun was this experiment? <p>1 being very fun -- 7 being the MOST FUN EVER</p>",Likert,35446,3
JB2271,bcq8lduaye,4,"Were you doing anything else while this experiment was going on? You will get credit no matter how you respond here.",Text,47673,"talked with my roomate "
JB2271,bcq8lduaye,5,"Which of the following problems did you have?",Checkbox,8026,none
EV9981,xetd05sdjs,1,"Did the experiment go smoothly or were there problems? (Note: Your compensation will not depend on your answer below, so please be honest.)!!!",Radio,16315,Smooth
EV9981,xetd05sdjs,2,"Have you participated in this experiment (or another experiment using the same learning materials) before?",Radio,6362,Naive
EV9981,xetd05sdjs,3,"How much fun was this experiment? <p>1 being very fun -- 7 being the MOST FUN EVER</p>",Likert,12427,3
EV9981,xetd05sdjs,4,"Were you doing anything else while this experiment was going on? You will get credit no matter how you respond here.",Text,41342,"I checked my phone a few times and I am listening to music."
EV9981,xetd05sdjs,5,"Which of the following problems did you have?",Checkbox,9025,none
IS1739,bev6dqq07d,1,"Did the experiment go smoothly or were there problems? (Note: Your compensation will not depend on your answer below, so please be honest.)!!!",Radio,6020,MinorBumps
IS1739,bev6dqq07d,2,"Have you participated in this experiment (or another experiment using the same learning materials) before?",Radio,5360,Naive
IS1739,bev6dqq07d,3,"How much fun was this experiment? <p>1 being very fun -- 7 being the MOST FUN EVER</p>",Likert,31414,3
IS1739,bev6dqq07d,4,"Were you doing anything else while this experiment was going on? You will get credit no matter how you respond here.",Text,83438,"watching my friends play spades"
IS1739,bev6dqq07d,5,"Which of the following problems did you have?",Checkbox,6317,"internet connectivity problems"
BK1319,lunf7900ek,1,"Did the experiment go smoothly or were there problems? (Note: Your compensation will not depend on your answer below, so please be honest.)!!!",Radio,4142,Smooth
BK1319,lunf7900ek,2,"Have you participated in this experiment (or another experiment using the same learning materials) before?",Radio,3780,DoneItBefore
BK1319,lunf7900ek,3,"How much fun was this experiment? <p>1 being very fun -- 7 being the MOST FUN EVER</p>",Likert,7670,5
BK1319,lunf7900ek,4,"Were you doing anything else while this experiment was going on? You will get credit no matter how you respond here.",Text,4403,no
BK1319,lunf7900ek,5,"Which of the following problems did you have?",Checkbox,4734,none
JG5590,9df44hqnpw,1,"Did the experiment go smoothly or were there problems? (Note: Your compensation will not depend on your answer below, so please be honest.)!!!",Radio,3835,Smooth
JG5590,9df44hqnpw,2,"Have you participated in this experiment (or another experiment using the same learning materials) before?",Radio,3790,Naive
JG5590,9df44hqnpw,3,"How much fun was this experiment? <p>1 being very fun -- 7 being the MOST FUN EVER</p>",Likert,3495,3
JG5590,9df44hqnpw,4,"Were you doing anything else while this experiment was going on? You will get credit no matter how you respond here.",Text,6806,nope
JG5590,9df44hqnpw,5,"Which of the following problems did you have?",Checkbox,4217,none
AC9772,l9cqvsptm0,1,"Did the experiment go smoothly or were there problems? (Note: Your compensation will not depend on your answer below, so please be honest.)!!!",Radio,7475,Smooth
AC9772,l9cqvsptm0,2,"Have you participated in this experiment (or another experiment using the same learning materials) before?",Radio,3333,Naive
AC9772,l9cqvsptm0,3,"How much fun was this experiment? <p>1 being very fun -- 7 being the MOST FUN EVER</p>",Likert,2923,4
AC9772,l9cqvsptm0,4,"Were you doing anything else while this experiment was going on? You will get credit no matter how you respond here.",Text,6515,Nope!
AC9772,l9cqvsptm0,5,"Which of the following problems did you have?",Checkbox,5068,none
CM1146,tizaif089x,1,"Did the experiment go smoothly or were there problems? (Note: Your compensation will not depend on your answer below, so please be honest.)!!!",Radio,3958,MinorBumps
CM1146,tizaif089x,2,"Have you participated in this experiment (or another experiment using the same learning materials) before?",Radio,2968,Naive
CM1146,tizaif089x,3,"How much fun was this experiment? <p>1 being very fun -- 7 being the MOST FUN EVER</p>",Likert,7258,3
CM1146,tizaif089x,4,"Were you doing anything else while this experiment was going on? You will get credit no matter how you respond here.",Text,9387,no
CM1146,tizaif089x,5,"Which of the following problems did you have?",Checkbox,8772,none
MR8360,4hvyyljwix,1,"Did the experiment go smoothly or were there problems? (Note: Your compensation will not depend on your answer below, so please be honest.)!!!",Radio,3495,Smooth
MR8360,4hvyyljwix,2,"Have you participated in this experiment (or another experiment using the same learning materials) before?",Radio,5188,Naive
MR8360,4hvyyljwix,3,"How much fun was this experiment? <p>1 being very fun -- 7 being the MOST FUN EVER</p>",Likert,4946,3
MR8360,4hvyyljwix,4,"Were you doing anything else while this experiment was going on? You will get credit no matter how you respond here.",Text,8405,"psych class"
MR8360,4hvyyljwix,5,"Which of the following problems did you have?",Checkbox,6900,none
PS1873,el0favuci3,1,"Did the experiment go smoothly or were there problems? (Note: Your compensation will not depend on your answer below, so please be honest.)!!!",Radio,2765,Smooth
PS1873,el0favuci3,2,"Have you participated in this experiment (or another experiment using the same learning materials) before?",Radio,3609,Naive
PS1873,el0favuci3,3,"How much fun was this experiment? <p>1 being very fun -- 7 being the MOST FUN EVER</p>",Likert,3244,5
PS1873,el0favuci3,4,"Were you doing anything else while this experiment was going on? You will get credit no matter how you respond here.",Text,12831,"Just this. "
PS1873,el0favuci3,5,"Which of the following problems did you have?",Checkbox,3416,none
MS3644,fpgewq91c0,1,"Did the experiment go smoothly or were there problems? (Note: Your compensation will not depend on your answer below, so please be honest.)!!!",Radio,7021,MinorBumps
MS3644,fpgewq91c0,2,"Have you participated in this experiment (or another experiment using the same learning materials) before?",Radio,4427,Naive
MS3644,fpgewq91c0,3,"How much fun was this experiment? <p>1 being very fun -- 7 being the MOST FUN EVER</p>",Likert,5967,6
MS3644,fpgewq91c0,4,"Were you doing anything else while this experiment was going on? You will get credit no matter how you respond here.",Text,2626,
MS3644,fpgewq91c0,5,"Which of the following problems did you have?",Checkbox,6290,none
AUR1755,oyqbt8tp9s,1,"Did the experiment go smoothly or were there problems? (Note: Your compensation will not depend on your answer below, so please be honest.)!!!",Radio,2421,Smooth
AUR1755,oyqbt8tp9s,2,"Have you participated in this experiment (or another experiment using the same learning materials) before?",Radio,4183,DoneItBefore
AUR1755,oyqbt8tp9s,3,"How much fun was this experiment? <p>1 being very fun -- 7 being the MOST FUN EVER</p>",Likert,4939,4
AUR1755,oyqbt8tp9s,4,"Were you doing anything else while this experiment was going on? You will get credit no matter how you respond here.",Text,10166,No
AUR1755,oyqbt8tp9s,5,"Which of the following problems did you have?",Checkbox,33987,none
IR5777,skcz78ct8l,1,"Did the experiment go smoothly or were there problems? (Note: Your compensation will not depend on your answer below, so please be honest.)!!!",Radio,4929,Smooth
IR5777,skcz78ct8l,2,"Have you participated in this experiment (or another experiment using the same learning materials) before?",Radio,5056,Naive
IR5777,skcz78ct8l,3,"How much fun was this experiment? <p>1 being very fun -- 7 being the MOST FUN EVER</p>",Likert,7535,4
IR5777,skcz78ct8l,4,"Were you doing anything else while this experiment was going on? You will get credit no matter how you respond here.",Text,8849,no
IR5777,skcz78ct8l,5,"Which of the following problems did you have?",Checkbox,5103,none
BJ9032,dpqy3mg9f1,1,"Did the experiment go smoothly or were there problems? (Note: Your compensation will not depend on your answer below, so please be honest.)!!!",Radio,9059,MinorBumps
BJ9032,dpqy3mg9f1,2,"Have you participated in this experiment (or another experiment using the same learning materials) before?",Radio,9424,DoneItBefore
BJ9032,dpqy3mg9f1,3,"How much fun was this experiment? <p>1 being very fun -- 7 being the MOST FUN EVER</p>",Likert,5303,4
BJ9032,dpqy3mg9f1,4,"Were you doing anything else while this experiment was going on? You will get credit no matter how you respond here.",Text,19800,"I was in class, and already took all notes of what we were learning."
BJ9032,dpqy3mg9f1,5,"Which of the following problems did you have?",Checkbox,15473,none
AC6629,tjzjqi2cc0,1,"Did the experiment go smoothly or were there problems? (Note: Your compensation will not depend on your answer below, so please be honest.)!!!",Radio,7613,Smooth
AC6629,tjzjqi2cc0,2,"Have you participated in this experiment (or another experiment using the same learning materials) before?",Radio,5775,Naive
AC6629,tjzjqi2cc0,3,"How much fun was this experiment? <p>1 being very fun -- 7 being the MOST FUN EVER</p>",Likert,5900,4
AC6629,tjzjqi2cc0,4,"Were you doing anything else while this experiment was going on? You will get credit no matter how you respond here.",Text,6844,No
AC6629,tjzjqi2cc0,5,"Which of the following problems did you have?",Checkbox,8062,none
SG9203,urznoi83pj,1,"Did the experiment go smoothly or were there problems? (Note: Your compensation will not depend on your answer below, so please be honest.)!!!",Radio,7849,Smooth
SG9203,urznoi83pj,2,"Have you participated in this experiment (or another experiment using the same learning materials) before?",Radio,8206,Naive
SG9203,urznoi83pj,3,"How much fun was this experiment? <p>1 being very fun -- 7 being the MOST FUN EVER</p>",Likert,7181,4
SG9203,urznoi83pj,4,"Were you doing anything else while this experiment was going on? You will get credit no matter how you respond here.",Text,10363,"eating a snack"
SG9203,urznoi83pj,5,"Which of the following problems did you have?",Checkbox,11496,"internet connectivity problems"
FE0715,ljbispifxb,1,"Did the experiment go smoothly or were there problems? (Note: Your compensation will not depend on your answer below, so please be honest.)!!!",Radio,9615,MinorBumps
FE0715,ljbispifxb,2,"Have you participated in this experiment (or another experiment using the same learning materials) before?",Radio,6722,Naive
FE0715,ljbispifxb,3,"How much fun was this experiment? <p>1 being very fun -- 7 being the MOST FUN EVER</p>",Likert,8719,5
FE0715,ljbispifxb,4,"Were you doing anything else while this experiment was going on? You will get credit no matter how you respond here.",Text,12367,no
FE0715,ljbispifxb,5,"Which of the following problems did you have?",Checkbox,17024,none
PS9580,j8fet5ug7n,1,"Did the experiment go smoothly or were there problems? (Note: Your compensation will not depend on your answer below, so please be honest.)!!!",Radio,9441,Smooth
PS9580,j8fet5ug7n,2,"Have you participated in this experiment (or another experiment using the same learning materials) before?",Radio,8201,Naive
PS9580,j8fet5ug7n,3,"How much fun was this experiment? <p>1 being very fun -- 7 being the MOST FUN EVER</p>",Likert,6768,5
PS9580,j8fet5ug7n,4,"Were you doing anything else while this experiment was going on? You will get credit no matter how you respond here.",Text,25577,"No, I was just sitting at my desk in my dorm room. "
PS9580,j8fet5ug7n,5,"Which of the following problems did you have?",Checkbox,7571,none
CW5888,hoee3wdo8x,1,"Did the experiment go smoothly or were there problems? (Note: Your compensation will not depend on your answer below, so please be honest.)!!!",Radio,11508,MinorBumps
CW5888,hoee3wdo8x,2,"Have you participated in this experiment (or another experiment using the same learning materials) before?",Radio,4639,Naive
CW5888,hoee3wdo8x,3,"How much fun was this experiment? <p>1 being very fun -- 7 being the MOST FUN EVER</p>",Likert,4017,3
CW5888,hoee3wdo8x,4,"Were you doing anything else while this experiment was going on? You will get credit no matter how you respond here.",Text,14066,"Sitting with a friend"
CW5888,hoee3wdo8x,5,"Which of the following problems did you have?",Checkbox,7265,none
JP9197,08n0aixv5v,1,"Did the experiment go smoothly or were there problems? (Note: Your compensation will not depend on your answer below, so please be honest.)!!!",Radio,5985,Smooth
JP9197,08n0aixv5v,2,"Have you participated in this experiment (or another experiment using the same learning materials) before?",Radio,3243,Naive
JP9197,08n0aixv5v,3,"How much fun was this experiment? <p>1 being very fun -- 7 being the MOST FUN EVER</p>",Likert,4705,4
JP9197,08n0aixv5v,4,"Were you doing anything else while this experiment was going on? You will get credit no matter how you respond here.",Text,9586,cooking
JP9197,08n0aixv5v,5,"Which of the following problems did you have?",Checkbox,5312,none
SV2237,mtb2ztma9i,1,"Did the experiment go smoothly or were there problems? (Note: Your compensation will not depend on your answer below, so please be honest.)!!!",Radio,1998,Smooth
SV2237,mtb2ztma9i,2,"Have you participated in this experiment (or another experiment using the same learning materials) before?",Radio,2786,Naive
SV2237,mtb2ztma9i,3,"How much fun was this experiment? <p>1 being very fun -- 7 being the MOST FUN EVER</p>",Likert,6545,1
SV2237,mtb2ztma9i,4,"Were you doing anything else while this experiment was going on? You will get credit no matter how you respond here.",Text,8675,"listening to music"
SV2237,mtb2ztma9i,5,"Which of the following problems did you have?",Checkbox,5800,none
SW4407,tn3xw38jgo,1,"Did the experiment go smoothly or were there problems? (Note: Your compensation will not depend on your answer below, so please be honest.)!!!",Radio,16052,Smooth
SW4407,tn3xw38jgo,2,"Have you participated in this experiment (or another experiment using the same learning materials) before?",Radio,4149,Naive
SW4407,tn3xw38jgo,3,"How much fun was this experiment? <p>1 being very fun -- 7 being the MOST FUN EVER</p>",Likert,21156,6
SW4407,tn3xw38jgo,4,"Were you doing anything else while this experiment was going on? You will get credit no matter how you respond here.",Text,24747,"consulting my boyfriend "
SW4407,tn3xw38jgo,5,"Which of the following problems did you have?",Checkbox,5509,none
AF6541,stma9x62ul,1,"Did the experiment go smoothly or were there problems? (Note: Your compensation will not depend on your answer below, so please be honest.)!!!",Radio,4350,Smooth
AF6541,stma9x62ul,2,"Have you participated in this experiment (or another experiment using the same learning materials) before?",Radio,4279,Naive
AF6541,stma9x62ul,3,"How much fun was this experiment? <p>1 being very fun -- 7 being the MOST FUN EVER</p>",Likert,6574,6
AF6541,stma9x62ul,4,"Were you doing anything else while this experiment was going on? You will get credit no matter how you respond here.",Text,11715,No
AF6541,stma9x62ul,5,"Which of the following problems did you have?",Checkbox,8306,none
JP2122,tky2n5f19m,1,"Did the experiment go smoothly or were there problems? (Note: Your compensation will not depend on your answer below, so please be honest.)!!!",Radio,9797,Smooth
JP2122,tky2n5f19m,2,"Have you participated in this experiment (or another experiment using the same learning materials) before?",Radio,6124,Naive
JP2122,tky2n5f19m,3,"How much fun was this experiment? <p>1 being very fun -- 7 being the MOST FUN EVER</p>",Likert,33544,3
JP2122,tky2n5f19m,4,"Were you doing anything else while this experiment was going on? You will get credit no matter how you respond here.",Text,23348,"I had to look up some words since I didn't know what they meant"
JP2122,tky2n5f19m,5,"Which of the following problems did you have?",Checkbox,11593,none
LB7205,vycoewwfb8,1,"Did the experiment go smoothly or were there problems? (Note: Your compensation will not depend on your answer below, so please be honest.)!!!",Radio,4148,Smooth
LB7205,vycoewwfb8,2,"Have you participated in this experiment (or another experiment using the same learning materials) before?",Radio,7793,Naive
LB7205,vycoewwfb8,3,"How much fun was this experiment? <p>1 being very fun -- 7 being the MOST FUN EVER</p>",Likert,5432,6
LB7205,vycoewwfb8,4,"Were you doing anything else while this experiment was going on? You will get credit no matter how you respond here.",Text,11703,"I was not"
LB7205,vycoewwfb8,5,"Which of the following problems did you have?",Checkbox,4320,none
JM6264,64kpra3tob,1,"Did the experiment go smoothly or were there problems? (Note: Your compensation will not depend on your answer below, so please be honest.)!!!",Radio,11638,MinorBumps
JM6264,64kpra3tob,2,"Have you participated in this experiment (or another experiment using the same learning materials) before?",Radio,4778,Naive
JM6264,64kpra3tob,3,"How much fun was this experiment? <p>1 being very fun -- 7 being the MOST FUN EVER</p>",Likert,18719,4
JM6264,64kpra3tob,4,"Were you doing anything else while this experiment was going on? You will get credit no matter how you respond here.",Text,20913,"Listening to music "
JM6264,64kpra3tob,5,"Which of the following problems did you have?",Checkbox,4307,none
LH1949,p02g1tzjb9,1,"Did the experiment go smoothly or were there problems? (Note: Your compensation will not depend on your answer below, so please be honest.)!!!",Radio,11870,Smooth
LH1949,p02g1tzjb9,2,"Have you participated in this experiment (or another experiment using the same learning materials) before?",Radio,6724,Naive
LH1949,p02g1tzjb9,3,"How much fun was this experiment? <p>1 being very fun -- 7 being the MOST FUN EVER</p>",Likert,7871,1
LH1949,p02g1tzjb9,4,"Were you doing anything else while this experiment was going on? You will get credit no matter how you respond here.",Text,16808,"I was sitting on my couch talking to my roommate "
LH1949,p02g1tzjb9,5,"Which of the following problems did you have?",Checkbox,10963,none
AR0075,qkrdkpz92n,1,"Did the experiment go smoothly or were there problems? (Note: Your compensation will not depend on your answer below, so please be honest.)!!!",Radio,16802,Smooth
AR0075,qkrdkpz92n,2,"Have you participated in this experiment (or another experiment using the same learning materials) before?",Radio,7494,Naive
AR0075,qkrdkpz92n,3,"How much fun was this experiment? <p>1 being very fun -- 7 being the MOST FUN EVER</p>",Likert,8802,2
AR0075,qkrdkpz92n,4,"Were you doing anything else while this experiment was going on? You will get credit no matter how you respond here.",Text,16798,"watching TV"
AR0075,qkrdkpz92n,5,"Which of the following problems did you have?",Checkbox,11702,none
MT2739,c3p29d97bh,1,"Did the experiment go smoothly or were there problems? (Note: Your compensation will not depend on your answer below, so please be honest.)!!!",Radio,13262,Smooth
MT2739,c3p29d97bh,2,"Have you participated in this experiment (or another experiment using the same learning materials) before?",Radio,6354,Naive
MT2739,c3p29d97bh,3,"How much fun was this experiment? <p>1 being very fun -- 7 being the MOST FUN EVER</p>",Likert,13107,5
MT2739,c3p29d97bh,4,"Were you doing anything else while this experiment was going on? You will get credit no matter how you respond here.",Text,77180,"For the most part, no. However, I did look up the definition of ""beefcake"" on my phone with some...interesting results. "
MT2739,c3p29d97bh,5,"Which of the following problems did you have?",Checkbox,5560,none
7551,j5xhbgobzf,1,"Did the experiment go smoothly or were there problems? (Note: Your compensation will not depend on your answer below, so please be honest.)!!!",Radio,4935,ExcludeMe
7551,j5xhbgobzf,2,"Have you participated in this experiment (or another experiment using the same learning materials) before?",Radio,3438,Naive
7551,j5xhbgobzf,3,"How much fun was this experiment? <p>1 being very fun -- 7 being the MOST FUN EVER</p>",Likert,5058,2
7551,j5xhbgobzf,4,"Were you doing anything else while this experiment was going on? You will get credit no matter how you respond here.",Text,4545,no
7551,j5xhbgobzf,5,"Which of the following problems did you have?",Checkbox,3619,none
SE5217,tmy0aks6wf,1,"Did the experiment go smoothly or were there problems? (Note: Your compensation will not depend on your answer below, so please be honest.)!!!",Radio,2431,Smooth
SE5217,tmy0aks6wf,2,"Have you participated in this experiment (or another experiment using the same learning materials) before?",Radio,2934,Naive
SE5217,tmy0aks6wf,3,"How much fun was this experiment? <p>1 being very fun -- 7 being the MOST FUN EVER</p>",Likert,3600,6
SE5217,tmy0aks6wf,4,"Were you doing anything else while this experiment was going on? You will get credit no matter how you respond here.",Text,27234,nothing
SE5217,tmy0aks6wf,5,"Which of the following problems did you have?",Checkbox,3199,none
KL7604,446ln5upgi,1,"Did the experiment go smoothly or were there problems? (Note: Your compensation will not depend on your answer below, so please be honest.)!!!",Radio,4176,Smooth
KL7604,446ln5upgi,2,"Have you participated in this experiment (or another experiment using the same learning materials) before?",Radio,11822,Naive
KL7604,446ln5upgi,3,"How much fun was this experiment? <p>1 being very fun -- 7 being the MOST FUN EVER</p>",Likert,10262,5
KL7604,446ln5upgi,4,"Were you doing anything else while this experiment was going on? You will get credit no matter how you respond here.",Text,16660,"I was not doing any other tasks"
KL7604,446ln5upgi,5,"Which of the following problems did you have?",Checkbox,9234,none
ac9377,cs19g78fk0,1,"Did the experiment go smoothly or were there problems? (Note: Your compensation will not depend on your answer below, so please be honest.)!!!",Radio,7109,MinorBumps
ac9377,cs19g78fk0,2,"Have you participated in this experiment (or another experiment using the same learning materials) before?",Radio,4521,Naive
ac9377,cs19g78fk0,3,"How much fun was this experiment? <p>1 being very fun -- 7 being the MOST FUN EVER</p>",Likert,15301,3
ac9377,cs19g78fk0,4,"Were you doing anything else while this experiment was going on? You will get credit no matter how you respond here.",Text,26999,no
ac9377,cs19g78fk0,5,"Which of the following problems did you have?",Checkbox,10145,"blank page"
LM8773,40771xbwmp,1,"Did the experiment go smoothly or were there problems? (Note: Your compensation will not depend on your answer below, so please be honest.)!!!",Radio,7582,Smooth
LM8773,40771xbwmp,2,"Have you participated in this experiment (or another experiment using the same learning materials) before?",Radio,4338,Naive
LM8773,40771xbwmp,3,"How much fun was this experiment? <p>1 being very fun -- 7 being the MOST FUN EVER</p>",Likert,5470,2
LM8773,40771xbwmp,4,"Were you doing anything else while this experiment was going on? You will get credit no matter how you respond here.",Text,14156,"No, just was answering them in my room. "
LM8773,40771xbwmp,5,"Which of the following problems did you have?",Checkbox,6214,none
BE3674,hb4idiog66,1,"Did the experiment go smoothly or were there problems? (Note: Your compensation will not depend on your answer below, so please be honest.)!!!",Radio,5815,Smooth
BE3674,hb4idiog66,2,"Have you participated in this experiment (or another experiment using the same learning materials) before?",Radio,5641,Naive
BE3674,hb4idiog66,3,"How much fun was this experiment? <p>1 being very fun -- 7 being the MOST FUN EVER</p>",Likert,13221,2
BE3674,hb4idiog66,4,"Were you doing anything else while this experiment was going on? You will get credit no matter how you respond here.",Text,10056,No
BE3674,hb4idiog66,5,"Which of the following problems did you have?",Checkbox,7171,none
CM1875,b9lsovh45f,1,"Did the experiment go smoothly or were there problems? (Note: Your compensation will not depend on your answer below, so please be honest.)!!!",Radio,4659,Smooth
CM1875,b9lsovh45f,2,"Have you participated in this experiment (or another experiment using the same learning materials) before?",Radio,5314,Naive
CM1875,b9lsovh45f,3,"How much fun was this experiment? <p>1 being very fun -- 7 being the MOST FUN EVER</p>",Likert,8175,6
CM1875,b9lsovh45f,4,"Were you doing anything else while this experiment was going on? You will get credit no matter how you respond here.",Text,9258,"I was on Facetime"
CM1875,b9lsovh45f,5,"Which of the following problems did you have?",Checkbox,8811,reload
NT0985,e3gwd9y0ow,1,"Did the experiment go smoothly or were there problems? (Note: Your compensation will not depend on your answer below, so please be honest.)!!!",Radio,3967,MinorBumps
NT0985,e3gwd9y0ow,2,"Have you participated in this experiment (or another experiment using the same learning materials) before?",Radio,6071,Naive
NT0985,e3gwd9y0ow,3,"How much fun was this experiment? <p>1 being very fun -- 7 being the MOST FUN EVER</p>",Likert,5098,2
NT0985,e3gwd9y0ow,4,"Were you doing anything else while this experiment was going on? You will get credit no matter how you respond here.",Text,7688,no
NT0985,e3gwd9y0ow,5,"Which of the following problems did you have?",Checkbox,9021,none
RH0817,qgckdkvzjq,1,"Did the experiment go smoothly or were there problems? (Note: Your compensation will not depend on your answer below, so please be honest.)!!!",Radio,7417,Smooth
RH0817,qgckdkvzjq,2,"Have you participated in this experiment (or another experiment using the same learning materials) before?",Radio,3934,Naive
RH0817,qgckdkvzjq,3,"How much fun was this experiment? <p>1 being very fun -- 7 being the MOST FUN EVER</p>",Likert,14299,4
RH0817,qgckdkvzjq,4,"Were you doing anything else while this experiment was going on? You will get credit no matter how you respond here.",Text,16222,"Other than talking with my grandma, no"
RH0817,qgckdkvzjq,5,"Which of the following problems did you have?",Checkbox,9456,none
MG8930,xay3aimfd1,1,"Did the experiment go smoothly or were there problems? (Note: Your compensation will not depend on your answer below, so please be honest.)!!!",Radio,11993,MinorBumps
MG8930,xay3aimfd1,2,"Have you participated in this experiment (or another experiment using the same learning materials) before?",Radio,7362,Naive
MG8930,xay3aimfd1,3,"How much fun was this experiment? <p>1 being very fun -- 7 being the MOST FUN EVER</p>",Likert,16796,4
MG8930,xay3aimfd1,4,"Were you doing anything else while this experiment was going on? You will get credit no matter how you respond here.",Text,26343,"I was focused on the experiment, but I had to look up what some of the words meant."
MG8930,xay3aimfd1,5,"Which of the following problems did you have?",Checkbox,16404,none
KM0058,i1c9sr0kht,1,"Did the experiment go smoothly or were there problems? (Note: Your compensation will not depend on your answer below, so please be honest.)!!!",Radio,6995,Smooth
KM0058,i1c9sr0kht,2,"Have you participated in this experiment (or another experiment using the same learning materials) before?",Radio,6908,Naive
KM0058,i1c9sr0kht,3,"How much fun was this experiment? <p>1 being very fun -- 7 being the MOST FUN EVER</p>",Likert,13937,3
KM0058,i1c9sr0kht,4,"Were you doing anything else while this experiment was going on? You will get credit no matter how you respond here.",Text,9821,No
KM0058,i1c9sr0kht,5,"Which of the following problems did you have?",Checkbox,8184,none
IC8818,pfrq8qr8xy,1,"Did the experiment go smoothly or were there problems? (Note: Your compensation will not depend on your answer below, so please be honest.)!!!",Radio,8225,ExcludeMe
IC8818,pfrq8qr8xy,2,"Have you participated in this experiment (or another experiment using the same learning materials) before?",Radio,6621,Naive
IC8818,pfrq8qr8xy,3,"How much fun was this experiment? <p>1 being very fun -- 7 being the MOST FUN EVER</p>",Likert,15172,3
IC8818,pfrq8qr8xy,4,"Were you doing anything else while this experiment was going on? You will get credit no matter how you respond here.",Text,30546,"I did not know what some of the terms were and had to brainstorm on a few of them or skip"
IC8818,pfrq8qr8xy,5,"Which of the following problems did you have?",Checkbox,9461,none
EL2514,mn83axrkkv,1,"Did the experiment go smoothly or were there problems? (Note: Your compensation will not depend on your answer below, so please be honest.)!!!",Radio,7889,Smooth
EL2514,mn83axrkkv,2,"Have you participated in this experiment (or another experiment using the same learning materials) before?",Radio,5806,Naive
EL2514,mn83axrkkv,3,"How much fun was this experiment? <p>1 being very fun -- 7 being the MOST FUN EVER</p>",Likert,23585,5
EL2514,mn83axrkkv,4,"Were you doing anything else while this experiment was going on? You will get credit no matter how you respond here.",Text,11628,No
EL2514,mn83axrkkv,5,"Which of the following problems did you have?",Checkbox,8497,none
HW2231,dxkhk5qbu6,1,"Did the experiment go smoothly or were there problems? (Note: Your compensation will not depend on your answer below, so please be honest.)!!!",Radio,6316,Smooth
HW2231,dxkhk5qbu6,2,"Have you participated in this experiment (or another experiment using the same learning materials) before?",Radio,5799,Naive
HW2231,dxkhk5qbu6,3,"How much fun was this experiment? <p>1 being very fun -- 7 being the MOST FUN EVER</p>",Likert,5464,3
HW2231,dxkhk5qbu6,4,"Were you doing anything else while this experiment was going on? You will get credit no matter how you respond here.",Text,6800,no
HW2231,dxkhk5qbu6,5,"Which of the following problems did you have?",Checkbox,3493,none
MH6227,i1888jwpc4,1,"Did the experiment go smoothly or were there problems? (Note: Your compensation will not depend on your answer below, so please be honest.)!!!",Radio,8006,Smooth
MH6227,i1888jwpc4,2,"Have you participated in this experiment (or another experiment using the same learning materials) before?",Radio,6389,Naive
MH6227,i1888jwpc4,3,"How much fun was this experiment? <p>1 being very fun -- 7 being the MOST FUN EVER</p>",Likert,6388,5
MH6227,i1888jwpc4,4,"Were you doing anything else while this experiment was going on? You will get credit no matter how you respond here.",Text,15315,"Nope, just sitting at my desk reading aloud the questions!"
MH6227,i1888jwpc4,5,"Which of the following problems did you have?",Checkbox,7599,none
GR8655,3o02uwivmx,1,"Did the experiment go smoothly or were there problems? (Note: Your compensation will not depend on your answer below, so please be honest.)!!!",Radio,6750,Smooth
GR8655,3o02uwivmx,2,"Have you participated in this experiment (or another experiment using the same learning materials) before?",Radio,6197,Naive
GR8655,3o02uwivmx,3,"How much fun was this experiment? <p>1 being very fun -- 7 being the MOST FUN EVER</p>",Likert,5767,5
GR8655,3o02uwivmx,4,"Were you doing anything else while this experiment was going on? You will get credit no matter how you respond here.",Text,5758,no
GR8655,3o02uwivmx,5,"Which of the following problems did you have?",Checkbox,8057,none
KF0144,19j8okykhn,1,"Did the experiment go smoothly or were there problems? (Note: Your compensation will not depend on your answer below, so please be honest.)!!!",Radio,10179,Smooth
KF0144,19j8okykhn,2,"Have you participated in this experiment (or another experiment using the same learning materials) before?",Radio,4677,Naive
KF0144,19j8okykhn,3,"How much fun was this experiment? <p>1 being very fun -- 7 being the MOST FUN EVER</p>",Likert,10952,4
KF0144,19j8okykhn,4,"Were you doing anything else while this experiment was going on? You will get credit no matter how you respond here.",Text,23694,"No, I was sitting at my desk with no other stimuli happening."
KF0144,19j8okykhn,5,"Which of the following problems did you have?",Checkbox,3675,none
MN2268,1csh231lkf,1,"Did the experiment go smoothly or were there problems? (Note: Your compensation will not depend on your answer below, so please be honest.)!!!",Radio,17113,Smooth
MN2268,1csh231lkf,2,"Have you participated in this experiment (or another experiment using the same learning materials) before?",Radio,7871,Naive
MN2268,1csh231lkf,3,"How much fun was this experiment? <p>1 being very fun -- 7 being the MOST FUN EVER</p>",Likert,3627,1
MN2268,1csh231lkf,4,"Were you doing anything else while this experiment was going on? You will get credit no matter how you respond here.",Text,12775,"laying in bed with my cat"
MN2268,1csh231lkf,5,"Which of the following problems did you have?",Checkbox,5361,none
AP5326,2ckdckva6o,1,"Did the experiment go smoothly or were there problems? (Note: Your compensation will not depend on your answer below, so please be honest.)!!!",Radio,8748,MinorBumps
AP5326,2ckdckva6o,2,"Have you participated in this experiment (or another experiment using the same learning materials) before?",Radio,6199,Naive
AP5326,2ckdckva6o,3,"How much fun was this experiment? <p>1 being very fun -- 7 being the MOST FUN EVER</p>",Likert,8639,3
AP5326,2ckdckva6o,4,"Were you doing anything else while this experiment was going on? You will get credit no matter how you respond here.",Text,9422,Laundry
AP5326,2ckdckva6o,5,"Which of the following problems did you have?",Checkbox,9148,none
RS8261,vssqcr086n,1,"Did the experiment go smoothly or were there problems? (Note: Your compensation will not depend on your answer below, so please be honest.)!!!",Radio,12550,Smooth
RS8261,vssqcr086n,2,"Have you participated in this experiment (or another experiment using the same learning materials) before?",Radio,6376,Naive
RS8261,vssqcr086n,3,"How much fun was this experiment? <p>1 being very fun -- 7 being the MOST FUN EVER</p>",Likert,18381,2
RS8261,vssqcr086n,4,"Were you doing anything else while this experiment was going on? You will get credit no matter how you respond here.",Text,20949,"I was listening to some music."
RS8261,vssqcr086n,5,"Which of the following problems did you have?",Checkbox,13976,none
JC1307,2n294ro2fm,1,"Did the experiment go smoothly or were there problems? (Note: Your compensation will not depend on your answer below, so please be honest.)!!!",Radio,7601,Smooth
JC1307,2n294ro2fm,2,"Have you participated in this experiment (or another experiment using the same learning materials) before?",Radio,3063,Naive
JC1307,2n294ro2fm,3,"How much fun was this experiment? <p>1 being very fun -- 7 being the MOST FUN EVER</p>",Likert,5508,5
JC1307,2n294ro2fm,4,"Were you doing anything else while this experiment was going on? You will get credit no matter how you respond here.",Text,3406,No
JC1307,2n294ro2fm,5,"Which of the following problems did you have?",Checkbox,6098,none
SL1979,si4kx4az2g,1,"Did the experiment go smoothly or were there problems? (Note: Your compensation will not depend on your answer below, so please be honest.)!!!",Radio,8776,Smooth
SL1979,si4kx4az2g,2,"Have you participated in this experiment (or another experiment using the same learning materials) before?",Radio,2769,Naive
SL1979,si4kx4az2g,3,"How much fun was this experiment? <p>1 being very fun -- 7 being the MOST FUN EVER</p>",Likert,4741,4
SL1979,si4kx4az2g,4,"Were you doing anything else while this experiment was going on? You will get credit no matter how you respond here.",Text,12498,"I am just sitting in a coffee shop. "
SL1979,si4kx4az2g,5,"Which of the following problems did you have?",Checkbox,4870,none
cs2074,qj1gmbv076,1,"Did the experiment go smoothly or were there problems? (Note: Your compensation will not depend on your answer below, so please be honest.)!!!",Radio,3695,Smooth
cs2074,qj1gmbv076,2,"Have you participated in this experiment (or another experiment using the same learning materials) before?",Radio,3225,Naive
cs2074,qj1gmbv076,3,"How much fun was this experiment? <p>1 being very fun -- 7 being the MOST FUN EVER</p>",Likert,5183,5
cs2074,qj1gmbv076,4,"Were you doing anything else while this experiment was going on? You will get credit no matter how you respond here.",Text,35294,"I had to look one work up on my phone, otherwise no. "
cs2074,qj1gmbv076,5,"Which of the following problems did you have?",Checkbox,7827,none
IR6461,cggohoqd5k,1,"Did the experiment go smoothly or were there problems? (Note: Your compensation will not depend on your answer below, so please be honest.)!!!",Radio,4391,Smooth
IR6461,cggohoqd5k,2,"Have you participated in this experiment (or another experiment using the same learning materials) before?",Radio,5616,Naive
IR6461,cggohoqd5k,3,"How much fun was this experiment? <p>1 being very fun -- 7 being the MOST FUN EVER</p>",Likert,5454,4
IR6461,cggohoqd5k,4,"Were you doing anything else while this experiment was going on? You will get credit no matter how you respond here.",Text,10976,nope
IR6461,cggohoqd5k,5,"Which of the following problems did you have?",Checkbox,10452,reload
IR6461,cggohoqd5k,5,"Which of the following problems did you have?",Checkbox,10452,"blank page"
MK0365,n3687p9odt,1,"Did the experiment go smoothly or were there problems? (Note: Your compensation will not depend on your answer below, so please be honest.)!!!",Radio,6595,MinorBumps
MK0365,n3687p9odt,2,"Have you participated in this experiment (or another experiment using the same learning materials) before?",Radio,4429,Naive
MK0365,n3687p9odt,3,"How much fun was this experiment? <p>1 being very fun -- 7 being the MOST FUN EVER</p>",Likert,4000,3
MK0365,n3687p9odt,4,"Were you doing anything else while this experiment was going on? You will get credit no matter how you respond here.",Text,6267,no
MK0365,n3687p9odt,5,"Which of the following problems did you have?",Checkbox,6813,none
BC2326,r0j9kssh6o,1,"Did the experiment go smoothly or were there problems? (Note: Your compensation will not depend on your answer below, so please be honest.)!!!",Radio,7715,MinorBumps
BC2326,r0j9kssh6o,2,"Have you participated in this experiment (or another experiment using the same learning materials) before?",Radio,4022,Naive
BC2326,r0j9kssh6o,3,"How much fun was this experiment? <p>1 being very fun -- 7 being the MOST FUN EVER</p>",Likert,4361,3
BC2326,r0j9kssh6o,4,"Were you doing anything else while this experiment was going on? You will get credit no matter how you respond here.",Text,9050,"Listening to music"
BC2326,r0j9kssh6o,5,"Which of the following problems did you have?",Checkbox,7040,none
HO7749,3mkza5x0z4,1,"Did the experiment go smoothly or were there problems? (Note: Your compensation will not depend on your answer below, so please be honest.)!!!",Radio,19021,Smooth
HO7749,3mkza5x0z4,2,"Have you participated in this experiment (or another experiment using the same learning materials) before?",Radio,8562,Naive
HO7749,3mkza5x0z4,3,"How much fun was this experiment? <p>1 being very fun -- 7 being the MOST FUN EVER</p>",Likert,9569,1
HO7749,3mkza5x0z4,4,"Were you doing anything else while this experiment was going on? You will get credit no matter how you respond here.",Text,6629,no
HO7749,3mkza5x0z4,5,"Which of the following problems did you have?",Checkbox,22748,none
ZK2203,ce1gkq3r9h,1,"Did the experiment go smoothly or were there problems? (Note: Your compensation will not depend on your answer below, so please be honest.)!!!",Radio,6215,Smooth
ZK2203,ce1gkq3r9h,2,"Have you participated in this experiment (or another experiment using the same learning materials) before?",Radio,3944,Naive
ZK2203,ce1gkq3r9h,3,"How much fun was this experiment? <p>1 being very fun -- 7 being the MOST FUN EVER</p>",Likert,4096,5
ZK2203,ce1gkq3r9h,4,"Were you doing anything else while this experiment was going on? You will get credit no matter how you respond here.",Text,21255,"watching the new Netflix reenactment of Jeffrey Dauhmer"
ZK2203,ce1gkq3r9h,5,"Which of the following problems did you have?",Checkbox,6888,none
JC3326,jcd3xhjx8b,1,"Did the experiment go smoothly or were there problems? (Note: Your compensation will not depend on your answer below, so please be honest.)!!!",Radio,4185,Smooth
JC3326,jcd3xhjx8b,2,"Have you participated in this experiment (or another experiment using the same learning materials) before?",Radio,4162,Naive
JC3326,jcd3xhjx8b,3,"How much fun was this experiment? <p>1 being very fun -- 7 being the MOST FUN EVER</p>",Likert,6816,5
JC3326,jcd3xhjx8b,4,"Were you doing anything else while this experiment was going on? You will get credit no matter how you respond here.",Text,6360,No
JC3326,jcd3xhjx8b,5,"Which of the following problems did you have?",Checkbox,5717,none
CPB1188,fqf10joprd,1,"Did the experiment go smoothly or were there problems? (Note: Your compensation will not depend on your answer below, so please be honest.)!!!",Radio,3618,Smooth
CPB1188,fqf10joprd,2,"Have you participated in this experiment (or another experiment using the same learning materials) before?",Radio,4033,Naive
CPB1188,fqf10joprd,3,"How much fun was this experiment? <p>1 being very fun -- 7 being the MOST FUN EVER</p>",Likert,7953,2
CPB1188,fqf10joprd,4,"Were you doing anything else while this experiment was going on? You will get credit no matter how you respond here.",Text,9189,no
CPB1188,fqf10joprd,5,"Which of the following problems did you have?",Checkbox,4886,none
MS8663,xljz3urxb6,1,"Did the experiment go smoothly or were there problems? (Note: Your compensation will not depend on your answer below, so please be honest.)!!!",Radio,10102,MinorBumps
MS8663,xljz3urxb6,2,"Have you participated in this experiment (or another experiment using the same learning materials) before?",Radio,5275,Naive
MS8663,xljz3urxb6,3,"How much fun was this experiment? <p>1 being very fun -- 7 being the MOST FUN EVER</p>",Likert,8392,4
MS8663,xljz3urxb6,4,"Were you doing anything else while this experiment was going on? You will get credit no matter how you respond here.",Text,10873,"No, just with friends. "
MS8663,xljz3urxb6,5,"Which of the following problems did you have?",Checkbox,9305,"internet connectivity problems"
VF6914,s2kqwl24e1,1,"Did the experiment go smoothly or were there problems? (Note: Your compensation will not depend on your answer below, so please be honest.)!!!",Radio,10506,MinorBumps
VF6914,s2kqwl24e1,2,"Have you participated in this experiment (or another experiment using the same learning materials) before?",Radio,3561,Naive
VF6914,s2kqwl24e1,3,"How much fun was this experiment? <p>1 being very fun -- 7 being the MOST FUN EVER</p>",Likert,7158,3
VF6914,s2kqwl24e1,4,"Were you doing anything else while this experiment was going on? You will get credit no matter how you respond here.",Text,19848,"No I was just study at the bone center"
VF6914,s2kqwl24e1,5,"Which of the following problems did you have?",Checkbox,5823,none
EK6026,w3g3amx9wx,1,"Did the experiment go smoothly or were there problems? (Note: Your compensation will not depend on your answer below, so please be honest.)!!!",Radio,9956,MinorBumps
EK6026,w3g3amx9wx,2,"Have you participated in this experiment (or another experiment using the same learning materials) before?",Radio,5559,Naive
EK6026,w3g3amx9wx,3,"How much fun was this experiment? <p>1 being very fun -- 7 being the MOST FUN EVER</p>",Likert,10282,2
EK6026,w3g3amx9wx,4,"Were you doing anything else while this experiment was going on? You will get credit no matter how you respond here.",Text,17316,"No, I was only trying to come up with other words"
EK6026,w3g3amx9wx,5,"Which of the following problems did you have?",Checkbox,9080,none
DB4402,2mu9rtw5yx,1,"Did the experiment go smoothly or were there problems? (Note: Your compensation will not depend on your answer below, so please be honest.)!!!",Radio,7528,MinorBumps
DB4402,2mu9rtw5yx,2,"Have you participated in this experiment (or another experiment using the same learning materials) before?",Radio,3508,Naive
DB4402,2mu9rtw5yx,3,"How much fun was this experiment? <p>1 being very fun -- 7 being the MOST FUN EVER</p>",Likert,11252,2
DB4402,2mu9rtw5yx,4,"Were you doing anything else while this experiment was going on? You will get credit no matter how you respond here.",Text,10742,"focused only on the survey"
DB4402,2mu9rtw5yx,5,"Which of the following problems did you have?",Checkbox,5140,none
EU5484,g3mm82264r,1,"Did the experiment go smoothly or were there problems? (Note: Your compensation will not depend on your answer below, so please be honest.)!!!",Radio,6063,Smooth
EU5484,g3mm82264r,2,"Have you participated in this experiment (or another experiment using the same learning materials) before?",Radio,6711,Naive
EU5484,g3mm82264r,3,"How much fun was this experiment? <p>1 being very fun -- 7 being the MOST FUN EVER</p>",Likert,5574,4
EU5484,g3mm82264r,4,"Were you doing anything else while this experiment was going on? You will get credit no matter how you respond here.",Text,16703,no
EU5484,g3mm82264r,5,"Which of the following problems did you have?",Checkbox,4268,none
OB0649,lry661mvco,1,"Did the experiment go smoothly or were there problems? (Note: Your compensation will not depend on your answer below, so please be honest.)!!!",Radio,6632,Smooth
OB0649,lry661mvco,2,"Have you participated in this experiment (or another experiment using the same learning materials) before?",Radio,5784,Naive
OB0649,lry661mvco,3,"How much fun was this experiment? <p>1 being very fun -- 7 being the MOST FUN EVER</p>",Likert,5708,4
OB0649,lry661mvco,4,"Were you doing anything else while this experiment was going on? You will get credit no matter how you respond here.",Text,9007,no
OB0649,lry661mvco,5,"Which of the following problems did you have?",Checkbox,8541,none
LH7376,vl0o4m2xrq,1,"Did the experiment go smoothly or were there problems? (Note: Your compensation will not depend on your answer below, so please be honest.)!!!",Radio,3427,Smooth
LH7376,vl0o4m2xrq,2,"Have you participated in this experiment (or another experiment using the same learning materials) before?",Radio,3769,Naive
LH7376,vl0o4m2xrq,3,"How much fun was this experiment? <p>1 being very fun -- 7 being the MOST FUN EVER</p>",Likert,4167,3
LH7376,vl0o4m2xrq,4,"Were you doing anything else while this experiment was going on? You will get credit no matter how you respond here.",Text,4015,no
LH7376,vl0o4m2xrq,5,"Which of the following problems did you have?",Checkbox,6031,none
