Username,ID,ExperimentName,Session,Trial,Date,TimeDif,Condition.Number,Stimuli.File,Order.File,Condition.Description,Condition.Notes,Stimuli.Cue,Stimuli.Answer,Stimuli.Shuffle,Stimuli.Stimuli.Notes,Stimuli.Value,Stimuli.Rand,Procedure.Item,Procedure.Trial.Type,Procedure.Max.Time,Procedure.Min.Time,Procedure.Text,Procedure.Procedure.Notes,Procedure.Shuffle,Response.RT,Response.Response,Response.Accuracy,Response.RTfirst,Response.RTlast,Response.strictAcc,Response.lenientAcc,Response.focus,Response.JOL,Response.Focus
10019758GW,xwgp8ycbao,Affordance Norms_USM,1,11,2023-02-23T20:35:59+00:00,27.53187799,63,updated stim.csv,Version63.csv,Version 63,List 63,noodle,NA,1874,6.24,1776,0.506850857,1875,BOI,-,-,Please name all of the ways you could use this object. Keep in mind that one object can have many uses. Separate your responses with a comma.,NA,y,27270,NA,NA,2978,26787,NA,NA,NA,"pasta, food, cooking, spaghetti",1
10019758GW,xwgp8ycbao,Affordance Norms_USM,1,12,2023-02-23T20:36:35+00:00,35.54616809,63,updated stim.csv,Version63.csv,Version 63,List 63,grandnephew,NA,1875,5.08,1149,0.75238784,1876,BOI,-,-,Please name all of the ways you could use this object. Keep in mind that one object can have many uses. Separate your responses with a comma.,NA,y,34710,NA,NA,7923,34468,NA,NA,NA,"clean, spend time with, laugh, fishing",1
10019758GW,xwgp8ycbao,Affordance Norms_USM,1,13,2023-02-23T20:36:49+00:00,13.82189703,63,updated stim.csv,Version63.csv,Version 63,List 63,chevy,NA,1889,4.956521739,515,0.639686851,1890,BOI,-,-,Please name all of the ways you could use this object. Keep in mind that one object can have many uses. Separate your responses with a comma.,NA,y,13553,NA,NA,3066,13358,NA,NA,NA,"truck, hauling goods, traveling",1
10019758GW,xwgp8ycbao,Affordance Norms_USM,1,14,2023-02-23T20:37:12+00:00,23.20705104,63,updated stim.csv,Version63.csv,Version 63,List 63,flag,NA,1886,5.851851852,995,0.828452377,1887,BOI,-,-,Please name all of the ways you could use this object. Keep in mind that one object can have many uses. Separate your responses with a comma.,NA,y,22905,NA,NA,2378,21828,NA,NA,NA,representation,1
10019758GW,xwgp8ycbao,Affordance Norms_USM,1,15,2023-02-23T20:37:36+00:00,24.22493696,63,updated stim.csv,Version63.csv,Version 63,List 63,sheepdog,NA,1865,5.375,2329,0.598176143,1866,BOI,-,-,Please name all of the ways you could use this object. Keep in mind that one object can have many uses. Separate your responses with a comma.,NA,y,23204,NA,NA,7439,22909,NA,NA,NA,"farm, herd sheep",1
10019758GW,xwgp8ycbao,Affordance Norms_USM,1,16,2023-02-23T20:37:58+00:00,22.19591093,63,updated stim.csv,Version63.csv,Version 63,List 63,trainee,NA,1883,4.72,2757,0.111120288,1884,BOI,-,-,Please name all of the ways you could use this object. Keep in mind that one object can have many uses. Separate your responses with a comma.,NA,y,21934,NA,NA,2235,18628,NA,NA,NA,run errands,1
10019758GW,xwgp8ycbao,Affordance Norms_USM,1,17,2023-02-23T20:38:11+00:00,13.00639296,63,updated stim.csv,Version63.csv,Version 63,List 63,margarine,NA,1880,5.56,1604,0.934081327,1881,BOI,-,-,Please name all of the ways you could use this object. Keep in mind that one object can have many uses. Separate your responses with a comma.,NA,y,12603,NA,NA,2992,8293,NA,NA,NA,"cooking, toast",1
10019758GW,xwgp8ycbao,Affordance Norms_USM,1,18,2023-02-23T20:38:31+00:00,19.0636301,63,updated stim.csv,Version63.csv,Version 63,List 63,headpiece,NA,1877,5.347826087,1270,0.779046176,1878,BOI,-,-,Please name all of the ways you could use this object. Keep in mind that one object can have many uses. Separate your responses with a comma.,NA,y,18629,NA,NA,2327,18325,NA,NA,NA,"to fix your jaw, fix your teeth",1
10019758GW,xwgp8ycbao,Affordance Norms_USM,1,19,2023-02-23T20:38:42+00:00,11.08934689,63,updated stim.csv,Version63.csv,Version 63,List 63,wench,NA,1871,4.956521739,2919,0.906733623,1872,BOI,-,-,Please name all of the ways you could use this object. Keep in mind that one object can have many uses. Separate your responses with a comma.,NA,y,10768,NA,NA,1856,10629,NA,NA,NA,"tools, tighten things",1
10019758GW,xwgp8ycbao,Affordance Norms_USM,1,20,2023-02-23T20:39:06+00:00,24.16298819,63,updated stim.csv,Version63.csv,Version 63,List 63,pepperoni,NA,1882,5.875,1924,0.806387538,1883,BOI,-,-,Please name all of the ways you could use this object. Keep in mind that one object can have many uses. Separate your responses with a comma.,NA,y,23890,NA,NA,3305,18976,NA,NA,NA,"on pizza, cooking",1
10019758GW,xwgp8ycbao,Affordance Norms_USM,1,21,2023-02-23T20:39:34+00:00,28.05479288,63,updated stim.csv,Version63.csv,Version 63,List 63,page,NA,1885,4.96,1844,0.804197914,1886,BOI,-,-,Please name all of the ways you could use this object. Keep in mind that one object can have many uses. Separate your responses with a comma.,NA,y,27801,NA,NA,3769,26703,NA,NA,NA,"papers, books, articles",1
10019758GW,xwgp8ycbao,Affordance Norms_USM,1,22,2023-02-23T20:39:43+00:00,8.776955128,63,updated stim.csv,Version63.csv,Version 63,List 63,hamper,NA,1869,4.4,1225,0.499824986,1870,BOI,-,-,Please name all of the ways you could use this object. Keep in mind that one object can have many uses. Separate your responses with a comma.,NA,y,8466,NA,NA,1698,7985,NA,NA,NA,"dirty clothes, laundry",1
10019758GW,xwgp8ycbao,Affordance Norms_USM,1,23,2023-02-23T20:40:22+00:00,39.48165083,63,updated stim.csv,Version63.csv,Version 63,List 63,fiancee,NA,1872,5.652173913,969,0.103119855,1873,BOI,-,-,Please name all of the ways you could use this object. Keep in mind that one object can have many uses. Separate your responses with a comma.,NA,y,38702,NA,NA,27207,38441,NA,NA,NA,"support, love, companionship",1
10019758GW,xwgp8ycbao,Affordance Norms_USM,1,24,2023-02-23T20:40:42+00:00,19.73056006,63,updated stim.csv,Version63.csv,Version 63,List 63,headlight,NA,1868,4.538461538,1267,0.957296127,1869,BOI,-,-,Please name all of the ways you could use this object. Keep in mind that one object can have many uses. Separate your responses with a comma.,NA,y,19429,NA,NA,1899,19229,NA,NA,NA,"to see at night, to not hit an animal, see other cars on road",1
10019758GW,xwgp8ycbao,Affordance Norms_USM,1,25,2023-02-23T20:41:12+00:00,30.49134612,63,updated stim.csv,Version63.csv,Version 63,List 63,sledgehammer,NA,1881,5.916666667,2408,0.17242402,1882,BOI,-,-,Please name all of the ways you could use this object. Keep in mind that one object can have many uses. Separate your responses with a comma.,NA,y,30164,NA,NA,2430,29985,NA,NA,NA,"chop wood, cut things",1
10019758GW,xwgp8ycbao,Affordance Norms_USM,1,26,2023-02-23T20:41:56+00:00,43.3314178,63,updated stim.csv,Version63.csv,Version 63,List 63,him,NA,1879,4.47826087,1289,0.333565692,1880,BOI,-,-,Please name all of the ways you could use this object. Keep in mind that one object can have many uses. Separate your responses with a comma.,NA,y,43069,NA,NA,31969,42833,NA,NA,NA,"help, friend, love",1
10019758GW,xwgp8ycbao,Affordance Norms_USM,1,27,2023-02-23T20:42:09+00:00,13.05098915,63,updated stim.csv,Version63.csv,Version 63,List 63,pilot,NA,1888,4.52173913,1964,0.883513781,1889,BOI,-,-,Please name all of the ways you could use this object. Keep in mind that one object can have many uses. Separate your responses with a comma.,NA,y,12769,NA,NA,4029,12357,NA,NA,NA,"flying, plane, travel",1
10019758GW,xwgp8ycbao,Affordance Norms_USM,1,28,2023-02-23T20:42:26+00:00,17.42297888,63,updated stim.csv,Version63.csv,Version 63,List 63,cauliflower,NA,1863,5.269230769,466,0.493955035,1864,BOI,-,-,Please name all of the ways you could use this object. Keep in mind that one object can have many uses. Separate your responses with a comma.,NA,y,17109,NA,NA,1988,16371,NA,NA,NA,"cooking, saute, bake, fry",1
10019758GW,xwgp8ycbao,Affordance Norms_USM,1,29,2023-02-23T20:42:38+00:00,11.95556712,63,updated stim.csv,Version63.csv,Version 63,List 63,pebble,NA,1866,5.47826087,1898,0.093159647,1867,BOI,-,-,Please name all of the ways you could use this object. Keep in mind that one object can have many uses. Separate your responses with a comma.,NA,y,11552,NA,NA,3498,10909,NA,NA,NA,"throw, skip, step on",1
10019758GW,xwgp8ycbao,Affordance Norms_USM,1,30,2023-02-23T20:43:01+00:00,22.51031399,63,updated stim.csv,Version63.csv,Version 63,List 63,firearm,NA,1861,5.814814815,983,0.894116046,1862,BOI,-,-,Please name all of the ways you could use this object. Keep in mind that one object can have many uses. Separate your responses with a comma.,NA,y,22238,NA,NA,2366,21538,NA,NA,NA,"shoot, harm, self-defense",1
10019758GW,xwgp8ycbao,Affordance Norms_USM,1,31,2023-02-23T20:43:12+00:00,11.83150291,63,updated stim.csv,Version63.csv,Version 63,List 63,storybook,NA,1884,5.703703704,2554,0.400238446,1885,BOI,-,-,Please name all of the ways you could use this object. Keep in mind that one object can have many uses. Separate your responses with a comma.,NA,y,11358,NA,NA,1824,9621,NA,NA,NA,"tell a story, writing",1
10019758GW,xwgp8ycbao,Affordance Norms_USM,1,32,2023-02-23T20:44:05+00:00,52.55087996,63,updated stim.csv,Version63.csv,Version 63,List 63,parent,NA,1870,5.04,1875,0.676805663,1871,BOI,-,-,Please name all of the ways you could use this object. Keep in mind that one object can have many uses. Separate your responses with a comma.,NA,y,51568,NA,NA,2409,51323,NA,NA,NA,"love, support, care",1
10019758GW,xwgp8ycbao,Affordance Norms_USM,1,33,2023-02-23T20:44:24+00:00,18.81074905,63,updated stim.csv,Version63.csv,Version 63,List 63,underclothes,NA,1862,6,2819,0.775978801,1863,BOI,-,-,Please name all of the ways you could use this object. Keep in mind that one object can have many uses. Separate your responses with a comma.,NA,y,18548,NA,NA,8891,18337,NA,NA,NA,"be modest, protect",1
10019758GW,xwgp8ycbao,Affordance Norms_USM,1,34,2023-02-23T20:44:56+00:00,31.92496395,63,updated stim.csv,Version63.csv,Version 63,List 63,calculator,NA,1878,6.24,400,0.593522466,1879,BOI,-,-,Please name all of the ways you could use this object. Keep in mind that one object can have many uses. Separate your responses with a comma.,NA,y,31658,NA,NA,1926,27881,NA,NA,NA,"math, calculate accurately",1
10019758GW,xwgp8ycbao,Affordance Norms_USM,1,35,2023-02-23T20:45:09+00:00,12.90685511,63,updated stim.csv,Version63.csv,Version 63,List 63,hardwood,NA,1876,5.076923077,1250,0.122818434,1877,BOI,-,-,Please name all of the ways you could use this object. Keep in mind that one object can have many uses. Separate your responses with a comma.,NA,y,12598,NA,NA,3053,12366,NA,NA,NA,"build a house, floor, firs",1
10019758GW,xwgp8ycbao,Affordance Norms_USM,1,36,2023-02-23T20:45:20+00:00,10.92427087,63,updated stim.csv,Version63.csv,Version 63,List 63,scarecrow,NA,1864,5,2267,0.916651033,1865,BOI,-,-,Please name all of the ways you could use this object. Keep in mind that one object can have many uses. Separate your responses with a comma.,NA,y,10663,NA,NA,2104,9439,NA,NA,NA,"scare birds, farm",1
10019758GW,xwgp8ycbao,Affordance Norms_USM,1,37,2023-02-23T20:45:59+00:00,39.59615302,63,updated stim.csv,Version63.csv,Version 63,List 63,dandelion,NA,1873,5.826086957,755,0.087062587,1874,BOI,-,-,Please name all of the ways you could use this object. Keep in mind that one object can have many uses. Separate your responses with a comma.,NA,y,39273,NA,NA,5465,38844,NA,NA,NA,"bees pollinate, pretty flowers, makes people happy",1
10019758GW,xwgp8ycbao,Affordance Norms_USM,1,38,2023-02-23T20:46:11+00:00,11.53757119,63,updated stim.csv,Version63.csv,Version 63,List 63,dough,NA,1887,6.086956522,833,0.768311203,1888,BOI,-,-,Please name all of the ways you could use this object. Keep in mind that one object can have many uses. Separate your responses with a comma.,NA,y,11221,NA,NA,2277,10967,NA,NA,NA,"pizza, bread, cook, bake",1
10019758GW,xwgp8ycbao,Affordance Norms_USM,1,39,2023-02-23T20:46:28+00:00,17.6224668,63,updated stim.csv,Version63.csv,Version 63,List 63,wineglass,NA,1890,6.416666667,2948,0.237036115,1891,BOI,-,-,Please name all of the ways you could use this object. Keep in mind that one object can have many uses. Separate your responses with a comma.,NA,y,17356,NA,NA,5487,17073,NA,NA,NA,"drinking, sipping",1
10019758GW,xwgp8ycbao,Affordance Norms_USM,1,40,2023-02-23T20:46:49+00:00,20.79614401,63,updated stim.csv,Version63.csv,Version 63,List 63,vomit,NA,1867,4.666666667,2874,0.511624602,1868,BOI,-,-,Please name all of the ways you could use this object. Keep in mind that one object can have many uses. Separate your responses with a comma.,NA,y,20519,NA,NA,10145,20319,NA,NA,NA,"get toxins out, make one feel better",1
10028531JS,c3f2vjw02z,Affordance Norms_USM,1,11,2023-03-22T18:15:01+00:00,21.82872891,18,updated stim.csv,Version18.csv,Version 18,List 18,dishwasher,NA,522,5.592592593,803,0.012255055,523,BOI,-,-,Please name all of the ways you could use this object. Keep in mind that one object can have many uses. Separate your responses with a comma.,NA,y,21389,NA,NA,1961,16479,NA,NA,NA,"clean dishes,",1
10028531JS,c3f2vjw02z,Affordance Norms_USM,1,12,2023-03-22T18:15:05+00:00,4.047910213,18,updated stim.csv,Version18.csv,Version 18,List 18,basin,NA,538,4.818181818,161,0.378920968,539,BOI,-,-,Please name all of the ways you could use this object. Keep in mind that one object can have many uses. Separate your responses with a comma.,NA,y,3726,NA,NA,-1,-1,NA,NA,NA,,1
10028531JS,c3f2vjw02z,Affordance Norms_USM,1,13,2023-03-22T18:15:14+00:00,8.809129,18,updated stim.csv,Version18.csv,Version 18,List 18,croquet,NA,517,4.84,701,0.291263355,518,BOI,-,-,Please name all of the ways you could use this object. Keep in mind that one object can have many uses. Separate your responses with a comma.,NA,y,8461,NA,NA,4139,8151,NA,NA,NA,idk,1
10028531JS,c3f2vjw02z,Affordance Norms_USM,1,14,2023-03-22T18:15:39+00:00,25.20786095,18,updated stim.csv,Version18.csv,Version 18,List 18,guard,NA,515,5,1184,0.014898881,516,BOI,-,-,Please name all of the ways you could use this object. Keep in mind that one object can have many uses. Separate your responses with a comma.,NA,y,24821,NA,NA,2459,23228,NA,NA,NA,"security, party,home, events",1
10028531JS,c3f2vjw02z,Affordance Norms_USM,1,15,2023-03-22T18:15:52+00:00,13.51331306,18,updated stim.csv,Version18.csv,Version 18,List 18,adapter,NA,532,4.583333333,13,0.866092268,533,BOI,-,-,Please name all of the ways you could use this object. Keep in mind that one object can have many uses. Separate your responses with a comma.,NA,y,13192,NA,NA,3121,12868,NA,NA,NA,"internet, phone, wifi",1
10028531JS,c3f2vjw02z,Affordance Norms_USM,1,16,2023-03-22T18:15:55+00:00,2.812370777,18,updated stim.csv,Version18.csv,Version 18,List 18,capacitor,NA,527,4.375,423,0.29017358,528,BOI,-,-,Please name all of the ways you could use this object. Keep in mind that one object can have many uses. Separate your responses with a comma.,NA,y,2444,NA,NA,2232,2232,NA,NA,NA,?,1
10028531JS,c3f2vjw02z,Affordance Norms_USM,1,17,2023-03-22T18:16:13+00:00,18.06782103,18,updated stim.csv,Version18.csv,Version 18,List 18,espresso,NA,533,5.24,921,0.53592974,534,BOI,-,-,Please name all of the ways you could use this object. Keep in mind that one object can have many uses. Separate your responses with a comma.,NA,y,17670,NA,NA,1744,16817,NA,NA,NA,"Drink, smell,",1
10028531JS,c3f2vjw02z,Affordance Norms_USM,1,18,2023-03-22T18:16:16+00:00,3.030277014,18,updated stim.csv,Version18.csv,Version 18,List 18,breastplate,NA,519,5.136363636,314,0.791797957,520,BOI,-,-,Please name all of the ways you could use this object. Keep in mind that one object can have many uses. Separate your responses with a comma.,NA,y,2605,NA,NA,-1,-1,NA,NA,NA,,1
10028531JS,c3f2vjw02z,Affordance Norms_USM,1,19,2023-03-22T18:16:23+00:00,6.50655818,18,updated stim.csv,Version18.csv,Version 18,List 18,Elevator,NA,537,5.486522911,901,0.750646332,538,BOI,-,-,Please name all of the ways you could use this object. Keep in mind that one object can have many uses. Separate your responses with a comma.,NA,y,5956,NA,NA,3657,5626,NA,NA,NA,going placers ,1
10028531JS,c3f2vjw02z,Affordance Norms_USM,1,20,2023-03-22T18:16:27+00:00,4.004966974,18,updated stim.csv,Version18.csv,Version 18,List 18,eyeball,NA,516,5.555555556,930,0.887767133,517,BOI,-,-,Please name all of the ways you could use this object. Keep in mind that one object can have many uses. Separate your responses with a comma.,NA,y,3635,NA,NA,1897,3193,NA,NA,NA,too see,1
10028531JS,c3f2vjw02z,Affordance Norms_USM,1,21,2023-03-22T18:16:29+00:00,2.580186844,18,updated stim.csv,Version18.csv,Version 18,List 18,programmer,NA,511,4.695652174,2071,0.979417302,512,BOI,-,-,Please name all of the ways you could use this object. Keep in mind that one object can have many uses. Separate your responses with a comma.,NA,y,2232,NA,NA,-1,-1,NA,NA,NA,,1
10028531JS,c3f2vjw02z,Affordance Norms_USM,1,22,2023-03-22T18:16:32+00:00,2.347375154,18,updated stim.csv,Version18.csv,Version 18,List 18,chimpanzee,NA,512,4.260869565,525,0.027839326,513,BOI,-,-,Please name all of the ways you could use this object. Keep in mind that one object can have many uses. Separate your responses with a comma.,NA,y,1953,NA,NA,-1,-1,NA,NA,NA,,1
10028531JS,c3f2vjw02z,Affordance Norms_USM,1,23,2023-03-22T18:16:39+00:00,7.591223955,18,updated stim.csv,Version18.csv,Version 18,List 18,appetizer,NA,513,6.12,60,0.088357206,514,BOI,-,-,Please name all of the ways you could use this object. Keep in mind that one object can have many uses. Separate your responses with a comma.,NA,y,7261,NA,NA,-1,-1,NA,NA,NA,,1
10028531JS,c3f2vjw02z,Affordance Norms_USM,1,24,2023-03-22T18:16:40+00:00,0.847018957,18,updated stim.csv,Version18.csv,Version 18,List 18,upholstery,NA,526,5.461538462,2827,0.065017905,527,BOI,-,-,Please name all of the ways you could use this object. Keep in mind that one object can have many uses. Separate your responses with a comma.,NA,y,431,NA,NA,-1,-1,NA,NA,NA,,1
10028531JS,c3f2vjw02z,Affordance Norms_USM,1,25,2023-03-22T18:16:41+00:00,0.741043091,18,updated stim.csv,Version18.csv,Version 18,List 18,leopard,NA,534,5.260869565,1492,0.304149864,535,BOI,-,-,Please name all of the ways you could use this object. Keep in mind that one object can have many uses. Separate your responses with a comma.,NA,y,224,NA,NA,-1,-1,NA,NA,NA,,1
10028531JS,c3f2vjw02z,Affordance Norms_USM,1,26,2023-03-22T18:16:42+00:00,0.745532036,18,updated stim.csv,Version18.csv,Version 18,List 18,semen,NA,523,5.269230769,2310,0.728002682,524,BOI,-,-,Please name all of the ways you could use this object. Keep in mind that one object can have many uses. Separate your responses with a comma.,NA,y,162,NA,NA,-1,-1,NA,NA,NA,,1
10028531JS,c3f2vjw02z,Affordance Norms_USM,1,27,2023-03-22T18:16:42+00:00,0.394115925,18,updated stim.csv,Version18.csv,Version 18,List 18,sweater,NA,531,6.592592593,2604,0.037244496,532,BOI,-,-,Please name all of the ways you could use this object. Keep in mind that one object can have many uses. Separate your responses with a comma.,NA,y,67,NA,NA,-1,-1,NA,NA,NA,,1
10028531JS,c3f2vjw02z,Affordance Norms_USM,1,28,2023-03-22T18:16:43+00:00,0.411617994,18,updated stim.csv,Version18.csv,Version 18,List 18,armor,NA,530,5.333333333,74,0.187270689,531,BOI,-,-,Please name all of the ways you could use this object. Keep in mind that one object can have many uses. Separate your responses with a comma.,NA,y,61,NA,NA,-1,-1,NA,NA,NA,,1
10028531JS,c3f2vjw02z,Affordance Norms_USM,1,29,2023-03-22T18:16:43+00:00,0.403291941,18,updated stim.csv,Version18.csv,Version 18,List 18,tenderloin,NA,539,4.962962963,2663,0.710184563,540,BOI,-,-,Please name all of the ways you could use this object. Keep in mind that one object can have many uses. Separate your responses with a comma.,NA,y,44,NA,NA,-1,-1,NA,NA,NA,,1
10028531JS,c3f2vjw02z,Affordance Norms_USM,1,30,2023-03-22T18:16:43+00:00,0.359620094,18,updated stim.csv,Version18.csv,Version 18,List 18,croissant,NA,518,6,699,0.195516583,519,BOI,-,-,Please name all of the ways you could use this object. Keep in mind that one object can have many uses. Separate your responses with a comma.,NA,y,15,NA,NA,-1,-1,NA,NA,NA,,1
10028531JS,c3f2vjw02z,Affordance Norms_USM,1,31,2023-03-22T18:16:44+00:00,0.608553886,18,updated stim.csv,Version18.csv,Version 18,List 18,packaging,NA,524,5.038461538,1838,0.013887713,525,BOI,-,-,Please name all of the ways you could use this object. Keep in mind that one object can have many uses. Separate your responses with a comma.,NA,y,194,NA,NA,-1,-1,NA,NA,NA,,1
10028531JS,c3f2vjw02z,Affordance Norms_USM,1,32,2023-03-22T18:16:44+00:00,0.347959995,18,updated stim.csv,Version18.csv,Version 18,List 18,orphan,NA,514,5.259259259,1824,0.409410216,515,BOI,-,-,Please name all of the ways you could use this object. Keep in mind that one object can have many uses. Separate your responses with a comma.,NA,y,41,NA,NA,-1,-1,NA,NA,NA,,1
10028531JS,c3f2vjw02z,Affordance Norms_USM,1,33,2023-03-22T18:16:45+00:00,0.559188128,18,updated stim.csv,Version18.csv,Version 18,List 18,skewer,NA,525,4.5,2396,0.276241995,526,BOI,-,-,Please name all of the ways you could use this object. Keep in mind that one object can have many uses. Separate your responses with a comma.,NA,y,186,NA,NA,-1,-1,NA,NA,NA,,1
10028531JS,c3f2vjw02z,Affordance Norms_USM,1,34,2023-03-22T18:16:45+00:00,0.374064922,18,updated stim.csv,Version18.csv,Version 18,List 18,boy,NA,521,4.962962963,296,0.235786191,522,BOI,-,-,Please name all of the ways you could use this object. Keep in mind that one object can have many uses. Separate your responses with a comma.,NA,y,55,NA,NA,-1,-1,NA,NA,NA,,1
10028531JS,c3f2vjw02z,Affordance Norms_USM,1,35,2023-03-22T18:16:46+00:00,0.560632944,18,updated stim.csv,Version18.csv,Version 18,List 18,thread,NA,528,4.76,2684,0.433773044,529,BOI,-,-,Please name all of the ways you could use this object. Keep in mind that one object can have many uses. Separate your responses with a comma.,NA,y,79,NA,NA,-1,-1,NA,NA,NA,,1
10028531JS,c3f2vjw02z,Affordance Norms_USM,1,36,2023-03-22T18:16:46+00:00,0.348581076,18,updated stim.csv,Version18.csv,Version 18,List 18,coupon,NA,540,4.821428571,667,0.305307499,541,BOI,-,-,Please name all of the ways you could use this object. Keep in mind that one object can have many uses. Separate your responses with a comma.,NA,y,49,NA,NA,-1,-1,NA,NA,NA,,1
10028531JS,c3f2vjw02z,Affordance Norms_USM,1,37,2023-03-22T18:16:47+00:00,0.51738596,18,updated stim.csv,Version18.csv,Version 18,List 18,girlfriend,NA,536,5.730769231,1109,0.219592421,537,BOI,-,-,Please name all of the ways you could use this object. Keep in mind that one object can have many uses. Separate your responses with a comma.,NA,y,141,NA,NA,-1,-1,NA,NA,NA,,1
10028531JS,c3f2vjw02z,Affordance Norms_USM,1,38,2023-03-22T18:16:47+00:00,0.533339977,18,updated stim.csv,Version18.csv,Version 18,List 18,bellboy,NA,535,4.8,197,0.341449251,536,BOI,-,-,Please name all of the ways you could use this object. Keep in mind that one object can have many uses. Separate your responses with a comma.,NA,y,174,NA,NA,-1,-1,NA,NA,NA,,1
10028531JS,c3f2vjw02z,Affordance Norms_USM,1,39,2023-03-22T18:16:47+00:00,0.363718033,18,updated stim.csv,Version18.csv,Version 18,List 18,cosmetician,NA,520,4.8,655,0.584332234,521,BOI,-,-,Please name all of the ways you could use this object. Keep in mind that one object can have many uses. Separate your responses with a comma.,NA,y,19,NA,NA,-1,-1,NA,NA,NA,,1
10028531JS,c3f2vjw02z,Affordance Norms_USM,1,40,2023-03-22T18:16:48+00:00,0.548396111,18,updated stim.csv,Version18.csv,Version 18,List 18,inventor,NA,529,4.391304348,1366,0.759903521,530,BOI,-,-,Please name all of the ways you could use this object. Keep in mind that one object can have many uses. Separate your responses with a comma.,NA,y,163,NA,NA,-1,-1,NA,NA,NA,,1
10064738KL,05nfrqosz9,Affordance Norms_USM,1,11,2023-04-03T17:03:43+00:00,12.29165602,29,updated stim.csv,Version29.csv,Version 29,List 29,loo,NA,868,4.952380952,1547,0.944259023,869,BOI,-,-,Please name all of the ways you could use this object. Keep in mind that one object can have many uses. Separate your responses with a comma.,NA,y,12041,NA,NA,3727,10766,NA,NA,NA,"flush, pee, poop",1
10064738KL,05nfrqosz9,Affordance Norms_USM,1,12,2023-04-03T17:04:05+00:00,21.95334506,29,updated stim.csv,Version29.csv,Version 29,List 29,recruiter,NA,841,4.347826087,2149,0.094929085,842,BOI,-,-,Please name all of the ways you could use this object. Keep in mind that one object can have many uses. Separate your responses with a comma.,NA,y,21544,NA,NA,2531,19509,NA,NA,NA,"speak, recruit",1
10064738KL,05nfrqosz9,Affordance Norms_USM,1,13,2023-04-03T17:04:24+00:00,19.13195395,29,updated stim.csv,Version29.csv,Version 29,List 29,marionette,NA,849,4.333333333,1607,0.239086256,850,BOI,-,-,Please name all of the ways you could use this object. Keep in mind that one object can have many uses. Separate your responses with a comma.,NA,y,18879,NA,NA,8307,15708,NA,NA,NA,"manipulate, move, watch",1
10064738KL,05nfrqosz9,Affordance Norms_USM,1,14,2023-04-03T17:04:45+00:00,20.56102991,29,updated stim.csv,Version29.csv,Version 29,List 29,chopsticks,NA,855,6.391304348,534,0.12111344,856,BOI,-,-,Please name all of the ways you could use this object. Keep in mind that one object can have many uses. Separate your responses with a comma.,NA,y,20357,NA,NA,7382,12863,NA,NA,NA,"clean, eat with",1
10064738KL,05nfrqosz9,Affordance Norms_USM,1,15,2023-04-03T17:05:18+00:00,33.95331001,29,updated stim.csv,Version29.csv,Version 29,List 29,streetwalker,NA,864,4.84,2566,0.15320214,865,BOI,-,-,Please name all of the ways you could use this object. Keep in mind that one object can have many uses. Separate your responses with a comma.,NA,y,33190,NA,NA,2028,31205,NA,NA,NA,"hit, watch, avoid",1
10064738KL,05nfrqosz9,Affordance Norms_USM,1,16,2023-04-03T17:05:30+00:00,11.74209595,29,updated stim.csv,Version29.csv,Version 29,List 29,puppy,NA,856,6.25,2104,0.657314439,857,BOI,-,-,Please name all of the ways you could use this object. Keep in mind that one object can have many uses. Separate your responses with a comma.,NA,y,11502,NA,NA,2380,7279,NA,NA,NA,"pet, feed, play",1
10064738KL,05nfrqosz9,Affordance Norms_USM,1,17,2023-04-03T17:06:03+00:00,32.44370508,29,updated stim.csv,Version29.csv,Version 29,List 29,cubical,NA,848,4.36,722,0.555956074,849,BOI,-,-,Please name all of the ways you could use this object. Keep in mind that one object can have many uses. Separate your responses with a comma.,NA,y,31639,NA,NA,2711,30211,NA,NA,NA,"decorate, sit, hide",1
10064738KL,05nfrqosz9,Affordance Norms_USM,1,18,2023-04-03T17:06:12+00:00,8.999818087,29,updated stim.csv,Version29.csv,Version 29,List 29,melon,NA,851,5.681818182,1641,0.714880294,852,BOI,-,-,Please name all of the ways you could use this object. Keep in mind that one object can have many uses. Separate your responses with a comma.,NA,y,8796,NA,NA,1237,7698,NA,NA,NA,"eat, cut, serve",1
10064738KL,05nfrqosz9,Affordance Norms_USM,1,19,2023-04-03T17:06:20+00:00,8.756089926,29,updated stim.csv,Version29.csv,Version 29,List 29,horsefly,NA,850,4.32,1313,0.128854278,851,BOI,-,-,Please name all of the ways you could use this object. Keep in mind that one object can have many uses. Separate your responses with a comma.,NA,y,8539,NA,NA,1492,7495,NA,NA,NA,"swat, kill, avoid",1
10064738KL,05nfrqosz9,Affordance Norms_USM,1,20,2023-04-03T17:07:08+00:00,47.20732498,29,updated stim.csv,Version29.csv,Version 29,List 29,peacock,NA,852,4.8,1892,0.379182657,853,BOI,-,-,Please name all of the ways you could use this object. Keep in mind that one object can have many uses. Separate your responses with a comma.,NA,y,46420,NA,NA,1747,44837,NA,NA,NA,"watch, help, feed, shelter",1
10064738KL,05nfrqosz9,Affordance Norms_USM,1,21,2023-04-03T17:07:21+00:00,13.05089188,29,updated stim.csv,Version29.csv,Version 29,List 29,drawer,NA,861,6,839,0.020367593,862,BOI,-,-,Please name all of the ways you could use this object. Keep in mind that one object can have many uses. Separate your responses with a comma.,NA,y,12702,NA,NA,2909,11223,NA,NA,NA,"fill, push, close",1
10064738KL,05nfrqosz9,Affordance Norms_USM,1,22,2023-04-03T17:12:08+00:00,287.3225081,29,updated stim.csv,Version29.csv,Version 29,List 29,eggbeater,NA,862,5.96,893,0.11369401,863,BOI,-,-,Please name all of the ways you could use this object. Keep in mind that one object can have many uses. Separate your responses with a comma.,NA,y,286431,NA,NA,271900,285609,NA,NA,NA,"spin, wash, pump, clean, crank",1
10064738KL,05nfrqosz9,Affordance Norms_USM,1,23,2023-04-03T17:12:59+00:00,50.94218111,29,updated stim.csv,Version29.csv,Version 29,List 29,dancer,NA,859,5.090909091,754,0.545210897,860,BOI,-,-,Please name all of the ways you could use this object. Keep in mind that one object can have many uses. Separate your responses with a comma.,NA,y,50173,NA,NA,43547,49203,NA,NA,NA,"watch, train, coach",1
10064738KL,05nfrqosz9,Affordance Norms_USM,1,24,2023-04-03T17:14:39+00:00,100.3742039,29,updated stim.csv,Version29.csv,Version 29,List 29,chinchilla,NA,846,4.925925926,528,0.932461993,847,BOI,-,-,Please name all of the ways you could use this object. Keep in mind that one object can have many uses. Separate your responses with a comma.,NA,y,99408,NA,NA,5398,98541,NA,NA,NA,"pet, feed, eat",1
10064738KL,05nfrqosz9,Affordance Norms_USM,1,25,2023-04-03T17:14:55+00:00,15.43518209,29,updated stim.csv,Version29.csv,Version 29,List 29,cassette,NA,863,5.148148148,453,0.47456788,864,BOI,-,-,Please name all of the ways you could use this object. Keep in mind that one object can have many uses. Separate your responses with a comma.,NA,y,15218,NA,NA,1755,14154,NA,NA,NA,"play, listen, rewind, record",1
10064738KL,05nfrqosz9,Affordance Norms_USM,1,26,2023-04-03T17:15:14+00:00,19.12847185,29,updated stim.csv,Version29.csv,Version 29,List 29,advisor,NA,867,4.347826087,16,0.306787272,868,BOI,-,-,Please name all of the ways you could use this object. Keep in mind that one object can have many uses. Separate your responses with a comma.,NA,y,18909,NA,NA,7892,18019,NA,NA,NA,"speak, question",1
10064738KL,05nfrqosz9,Affordance Norms_USM,1,27,2023-04-03T17:16:06+00:00,52.48092198,29,updated stim.csv,Version29.csv,Version 29,List 29,canvas,NA,857,5.590909091,420,0.874071933,858,BOI,-,-,Please name all of the ways you could use this object. Keep in mind that one object can have many uses. Separate your responses with a comma.,NA,y,51697,NA,NA,1386,50860,NA,NA,NA,"paint, color, schoolwork, communicate, create",1
10064738KL,05nfrqosz9,Affordance Norms_USM,1,28,2023-04-03T17:16:22+00:00,15.35849309,29,updated stim.csv,Version29.csv,Version 29,List 29,kiwi,NA,844,6.08,1430,0.639617568,845,BOI,-,-,Please name all of the ways you could use this object. Keep in mind that one object can have many uses. Separate your responses with a comma.,NA,y,15152,NA,NA,1436,13412,NA,NA,NA,"eat, cut, serve, throw away",1
10064738KL,05nfrqosz9,Affordance Norms_USM,1,29,2023-04-03T17:16:34+00:00,12.49819803,29,updated stim.csv,Version29.csv,Version 29,List 29,drawers,NA,865,5.869565217,840,0.225533231,866,BOI,-,-,Please name all of the ways you could use this object. Keep in mind that one object can have many uses. Separate your responses with a comma.,NA,y,12236,NA,NA,1369,11295,NA,NA,NA,"open, close, fill, empty, store",1
10064738KL,05nfrqosz9,Affordance Norms_USM,1,30,2023-04-03T17:17:12+00:00,37.36347699,29,updated stim.csv,Version29.csv,Version 29,List 29,stepchild,NA,860,5.04,2524,0.735613852,861,BOI,-,-,Please name all of the ways you could use this object. Keep in mind that one object can have many uses. Separate your responses with a comma.,NA,y,36487,NA,NA,4319,35597,NA,NA,NA,"nurture, neglect, feed, bathe, care",1
10064738KL,05nfrqosz9,Affordance Norms_USM,1,31,2023-04-03T17:17:22+00:00,10.20965195,29,updated stim.csv,Version29.csv,Version 29,List 29,saffron,NA,866,4.666666667,2214,0.91541526,867,BOI,-,-,Please name all of the ways you could use this object. Keep in mind that one object can have many uses. Separate your responses with a comma.,NA,y,9933,NA,NA,2978,9282,NA,NA,NA,"spice, season, cook, smell",1
10064738KL,05nfrqosz9,Affordance Norms_USM,1,32,2023-04-03T17:17:41+00:00,19.69287395,29,updated stim.csv,Version29.csv,Version 29,List 29,seaplane,NA,858,4.333333333,2297,0.432682347,859,BOI,-,-,Please name all of the ways you could use this object. Keep in mind that one object can have many uses. Separate your responses with a comma.,NA,y,19480,NA,NA,2730,18151,NA,NA,NA,"fly, ride, watch, fuel, maintain, load",1
10064738KL,05nfrqosz9,Affordance Norms_USM,1,33,2023-04-03T17:17:54+00:00,12.08373404,29,updated stim.csv,Version29.csv,Version 29,List 29,whiskers,NA,842,4.625,2929,0.016400371,843,BOI,-,-,Please name all of the ways you could use this object. Keep in mind that one object can have many uses. Separate your responses with a comma.,NA,y,11833,NA,NA,4193,10772,NA,NA,NA,"pluck, pet",1
10064738KL,05nfrqosz9,Affordance Norms_USM,1,34,2023-04-03T17:18:04+00:00,10.62738395,29,updated stim.csv,Version29.csv,Version 29,List 29,dartboard,NA,854,5.608695652,759,0.267211371,855,BOI,-,-,Please name all of the ways you could use this object. Keep in mind that one object can have many uses. Separate your responses with a comma.,NA,y,10384,NA,NA,2474,9697,NA,NA,NA,"aim, shoot, score",1
10064738KL,05nfrqosz9,Affordance Norms_USM,1,35,2023-04-03T17:18:37+00:00,32.58395815,29,updated stim.csv,Version29.csv,Version 29,List 29,wool,NA,870,5.392857143,2967,0.698769358,871,BOI,-,-,Please name all of the ways you could use this object. Keep in mind that one object can have many uses. Separate your responses with a comma.,NA,y,31828,NA,NA,3522,29662,NA,NA,NA,"knit, wear, crochet, mend, sheer",1
10064738KL,05nfrqosz9,Affordance Norms_USM,1,36,2023-04-03T17:19:08+00:00,30.77188396,29,updated stim.csv,Version29.csv,Version 29,List 29,shoestring,NA,845,6.36,2352,0.103386452,846,BOI,-,-,Please name all of the ways you could use this object. Keep in mind that one object can have many uses. Separate your responses with a comma.,NA,y,30530,NA,NA,8377,28457,NA,NA,NA,"tie, loosen, wash",1
10064738KL,05nfrqosz9,Affordance Norms_USM,1,37,2023-04-03T17:19:16+00:00,8.588758945,29,updated stim.csv,Version29.csv,Version 29,List 29,shoelace,NA,843,6.16,2351,0.491082523,844,BOI,-,-,Please name all of the ways you could use this object. Keep in mind that one object can have many uses. Separate your responses with a comma.,NA,y,8383,NA,NA,2517,6349,NA,NA,NA,"tie, loosen, wash",1
10064738KL,05nfrqosz9,Affordance Norms_USM,1,38,2023-04-03T17:19:35+00:00,18.70444107,29,updated stim.csv,Version29.csv,Version 29,List 29,puppet,NA,869,5.739130435,2103,0.435409395,870,BOI,-,-,Please name all of the ways you could use this object. Keep in mind that one object can have many uses. Separate your responses with a comma.,NA,y,18365,NA,NA,2944,17729,NA,NA,NA,"manipulate, watch, listen",1
10064738KL,05nfrqosz9,Affordance Norms_USM,1,39,2023-04-03T17:19:39+00:00,4.15743494,29,updated stim.csv,Version29.csv,Version 29,List 29,reefer,NA,853,4.52173913,2151,0.532492067,854,BOI,-,-,Please name all of the ways you could use this object. Keep in mind that one object can have many uses. Separate your responses with a comma.,NA,y,3947,NA,NA,-1,-1,NA,NA,NA,,1
10064738KL,05nfrqosz9,Affordance Norms_USM,1,40,2023-04-03T17:20:03+00:00,23.78782201,29,updated stim.csv,Version29.csv,Version 29,List 29,ball,NA,847,6.608695652,128,0.22268434,848,BOI,-,-,Please name all of the ways you could use this object. Keep in mind that one object can have many uses. Separate your responses with a comma.,NA,y,23534,NA,NA,1433,22680,NA,NA,NA,"bounce, throw, shoot, hit, watch, kick, dribble",1
10067639AS,ie5duiyf0v,Affordance Norms_USM,1,11,2023-03-22T17:16:42+00:00,15.74619603,17,updated stim.csv,Version17.csv,Version 17,List 17,leech,NA,498,4.291666667,1484,0.291119552,499,BOI,-,-,Please name all of the ways you could use this object. Keep in mind that one object can have many uses. Separate your responses with a comma.,NA,y,15515,NA,NA,7948,14551,NA,NA,NA,"attaching to humans, drinking blood",1
10067639AS,ie5duiyf0v,Affordance Norms_USM,1,12,2023-03-22T17:17:07+00:00,24.7729671,17,updated stim.csv,Version17.csv,Version 17,List 17,kitten,NA,492,6.4,1428,0.954803536,493,BOI,-,-,Please name all of the ways you could use this object. Keep in mind that one object can have many uses. Separate your responses with a comma.,NA,y,24538,NA,NA,7253,22720,NA,NA,NA,"petting, purring, licking, running, ",1
10067639AS,ie5duiyf0v,Affordance Norms_USM,1,13,2023-03-22T17:17:32+00:00,25.13120103,17,updated stim.csv,Version17.csv,Version 17,List 17,parka,NA,481,5.875,1876,0.805264649,482,BOI,-,-,Please name all of the ways you could use this object. Keep in mind that one object can have many uses. Separate your responses with a comma.,NA,y,24899,NA,NA,2776,24062,NA,NA,NA,"jacket, blanket, pillow, shirt, sleeping bag",1
10067639AS,ie5duiyf0v,Affordance Norms_USM,1,14,2023-03-22T17:17:53+00:00,20.80707479,17,updated stim.csv,Version17.csv,Version 17,List 17,sleigh,NA,507,4.84,2410,0.204229314,508,BOI,-,-,Please name all of the ways you could use this object. Keep in mind that one object can have many uses. Separate your responses with a comma.,NA,y,20584,NA,NA,8347,19483,NA,NA,NA,"pulling things, riding, sliding down hills",1
10067639AS,ie5duiyf0v,Affordance Norms_USM,1,15,2023-03-22T17:17:58+00:00,5.363964081,17,updated stim.csv,Version17.csv,Version 17,List 17,fingerboard,NA,506,5.15,978,0.460991121,507,BOI,-,-,Please name all of the ways you could use this object. Keep in mind that one object can have many uses. Separate your responses with a comma.,NA,y,5146,NA,NA,3483,4429,NA,NA,NA,drawing,1
10067639AS,ie5duiyf0v,Affordance Norms_USM,1,16,2023-03-22T17:18:24+00:00,25.96487498,17,updated stim.csv,Version17.csv,Version 17,List 17,wastebasket,NA,484,6.217391304,2904,0.952578602,485,BOI,-,-,Please name all of the ways you could use this object. Keep in mind that one object can have many uses. Separate your responses with a comma.,NA,y,25724,NA,NA,2820,4485,NA,NA,NA,trash,1
10067639AS,ie5duiyf0v,Affordance Norms_USM,1,17,2023-03-22T17:18:36+00:00,11.38247514,17,updated stim.csv,Version17.csv,Version 17,List 17,aftershave,NA,505,5.375,18,0.348121216,506,BOI,-,-,Please name all of the ways you could use this object. Keep in mind that one object can have many uses. Separate your responses with a comma.,NA,y,11148,NA,NA,6110,9891,NA,NA,NA,"face, legs, arms ",1
10067639AS,ie5duiyf0v,Affordance Norms_USM,1,18,2023-03-22T17:18:44+00:00,8.168701887,17,updated stim.csv,Version17.csv,Version 17,List 17,feline,NA,494,5.458333333,959,0.291234004,495,BOI,-,-,Please name all of the ways you could use this object. Keep in mind that one object can have many uses. Separate your responses with a comma.,NA,y,7928,NA,NA,3919,7410,NA,NA,NA,"hunting, pet, ",1
10067639AS,ie5duiyf0v,Affordance Norms_USM,1,19,2023-03-22T17:18:56+00:00,12.35994291,17,updated stim.csv,Version17.csv,Version 17,List 17,bookseller,NA,483,5,278,0.987732434,484,BOI,-,-,Please name all of the ways you could use this object. Keep in mind that one object can have many uses. Separate your responses with a comma.,NA,y,12126,NA,NA,9033,11443,NA,NA,NA,buy books,1
10067639AS,ie5duiyf0v,Affordance Norms_USM,1,20,2023-03-22T17:19:09+00:00,12.45083809,17,updated stim.csv,Version17.csv,Version 17,List 17,jacket,NA,493,6.333333333,1370,0.521573786,494,BOI,-,-,Please name all of the ways you could use this object. Keep in mind that one object can have many uses. Separate your responses with a comma.,NA,y,12198,NA,NA,3338,11619,NA,NA,NA,"warmth, pillow, blaket, sleeping mat",1
10067639AS,ie5duiyf0v,Affordance Norms_USM,1,21,2023-03-22T17:19:18+00:00,9.540614128,17,updated stim.csv,Version17.csv,Version 17,List 17,gingersnap,NA,488,4.703703704,1106,0.844195125,489,BOI,-,-,Please name all of the ways you could use this object. Keep in mind that one object can have many uses. Separate your responses with a comma.,NA,y,9308,NA,NA,2103,8817,NA,NA,NA,"cooking, drinks, medicine",1
10067639AS,ie5duiyf0v,Affordance Norms_USM,1,22,2023-03-22T17:19:21+00:00,3.170219898,17,updated stim.csv,Version17.csv,Version 17,List 17,nutshell,NA,500,4.375,1793,0.66125809,501,BOI,-,-,Please name all of the ways you could use this object. Keep in mind that one object can have many uses. Separate your responses with a comma.,NA,y,2939,NA,NA,2103,2423,NA,NA,NA,food,1
10067639AS,ie5duiyf0v,Affordance Norms_USM,1,23,2023-03-22T17:19:34+00:00,12.837955,17,updated stim.csv,Version17.csv,Version 17,List 17,chapel,NA,497,4.52,494,0.136839401,498,BOI,-,-,Please name all of the ways you could use this object. Keep in mind that one object can have many uses. Separate your responses with a comma.,NA,y,12617,NA,NA,1791,11981,NA,NA,NA,"praise, worship, church, gatheirng, fellowship",1
10067639AS,ie5duiyf0v,Affordance Norms_USM,1,24,2023-03-22T17:19:45+00:00,10.43077207,17,updated stim.csv,Version17.csv,Version 17,List 17,doorknob,NA,508,6.518518519,824,0.694713047,509,BOI,-,-,Please name all of the ways you could use this object. Keep in mind that one object can have many uses. Separate your responses with a comma.,NA,y,10207,NA,NA,2016,9520,NA,NA,NA,"access a room, turn, grab",1
10067639AS,ie5duiyf0v,Affordance Norms_USM,1,25,2023-03-22T17:19:56+00:00,11.09158182,17,updated stim.csv,Version17.csv,Version 17,List 17,memorabilia,NA,490,4.434782609,1643,0.578632093,491,BOI,-,-,Please name all of the ways you could use this object. Keep in mind that one object can have many uses. Separate your responses with a comma.,NA,y,10860,NA,NA,2718,10328,NA,NA,NA,to remember someone or something,1
10067639AS,ie5duiyf0v,Affordance Norms_USM,1,26,2023-03-22T17:20:01+00:00,4.956358194,17,updated stim.csv,Version17.csv,Version 17,List 17,spice,NA,509,5.125,2470,0.414376322,510,BOI,-,-,Please name all of the ways you could use this object. Keep in mind that one object can have many uses. Separate your responses with a comma.,NA,y,4538,NA,NA,2039,3486,NA,NA,NA,cooking,1
10067639AS,ie5duiyf0v,Affordance Norms_USM,1,27,2023-03-22T17:20:06+00:00,4.831238985,17,updated stim.csv,Version17.csv,Version 17,List 17,rum,NA,491,5.64,2206,0.418822922,492,BOI,-,-,Please name all of the ways you could use this object. Keep in mind that one object can have many uses. Separate your responses with a comma.,NA,y,4468,NA,NA,1489,3910,NA,NA,NA,drinking,1
10067639AS,ie5duiyf0v,Affordance Norms_USM,1,28,2023-03-22T17:20:12+00:00,6.714305878,17,updated stim.csv,Version17.csv,Version 17,List 17,frame,NA,502,4.956521739,1053,0.823962679,503,BOI,-,-,Please name all of the ways you could use this object. Keep in mind that one object can have many uses. Separate your responses with a comma.,NA,y,6486,NA,NA,3356,5967,NA,NA,NA,put a picture inside ,1
10067639AS,ie5duiyf0v,Affordance Norms_USM,1,29,2023-03-22T17:20:20+00:00,7.655339956,17,updated stim.csv,Version17.csv,Version 17,List 17,handbook,NA,499,5.782608696,1231,0.767395268,500,BOI,-,-,Please name all of the ways you could use this object. Keep in mind that one object can have many uses. Separate your responses with a comma.,NA,y,7445,NA,NA,1642,6934,NA,NA,NA,read rules and regualtions,1
10067639AS,ie5duiyf0v,Affordance Norms_USM,1,30,2023-03-22T17:20:41+00:00,20.89398217,17,updated stim.csv,Version17.csv,Version 17,List 17,kid,NA,496,5.68,1414,0.836964408,497,BOI,-,-,Please name all of the ways you could use this object. Keep in mind that one object can have many uses. Separate your responses with a comma.,NA,y,20685,NA,NA,10557,19010,NA,NA,NA,"chores, work",1
10067639AS,ie5duiyf0v,Affordance Norms_USM,1,31,2023-03-22T17:20:48+00:00,7.426885843,17,updated stim.csv,Version17.csv,Version 17,List 17,bubble,NA,495,4.64,339,0.446014369,496,BOI,-,-,Please name all of the ways you could use this object. Keep in mind that one object can have many uses. Separate your responses with a comma.,NA,y,7208,NA,NA,2405,5819,NA,NA,NA,"blow, bathe, ",1
10067639AS,ie5duiyf0v,Affordance Norms_USM,1,32,2023-03-22T17:21:02+00:00,13.76838613,17,updated stim.csv,Version17.csv,Version 17,List 17,drill,NA,485,5.739130435,848,0.55221895,486,BOI,-,-,Please name all of the ways you could use this object. Keep in mind that one object can have many uses. Separate your responses with a comma.,NA,y,13541,NA,NA,3013,9421,NA,NA,NA,"to fix something, drill underground, ",1
10067639AS,ie5duiyf0v,Affordance Norms_USM,1,33,2023-03-22T17:21:13+00:00,10.86490607,17,updated stim.csv,Version17.csv,Version 17,List 17,colander,NA,501,6,598,0.920044528,502,BOI,-,-,Please name all of the ways you could use this object. Keep in mind that one object can have many uses. Separate your responses with a comma.,NA,y,10640,NA,NA,7499,10138,NA,NA,NA,not sure what this is ,1
10067639AS,ie5duiyf0v,Affordance Norms_USM,1,34,2023-03-22T17:21:19+00:00,6.483839989,17,updated stim.csv,Version17.csv,Version 17,List 17,washerwoman,NA,510,4.55,2900,0.585234567,511,BOI,-,-,Please name all of the ways you could use this object. Keep in mind that one object can have many uses. Separate your responses with a comma.,NA,y,6245,NA,NA,1514,4537,NA,NA,NA,"wash clothes,",1
10067639AS,ie5duiyf0v,Affordance Norms_USM,1,35,2023-03-22T17:21:28+00:00,9.082677841,17,updated stim.csv,Version17.csv,Version 17,List 17,caddy,NA,489,4.913043478,393,0.357783512,490,BOI,-,-,Please name all of the ways you could use this object. Keep in mind that one object can have many uses. Separate your responses with a comma.,NA,y,8862,NA,NA,1939,8321,NA,NA,NA,carry items,1
10067639AS,ie5duiyf0v,Affordance Norms_USM,1,36,2023-03-22T17:21:33+00:00,4.833656073,17,updated stim.csv,Version17.csv,Version 17,List 17,mincemeat,NA,504,5.083333333,1662,0.960305963,505,BOI,-,-,Please name all of the ways you could use this object. Keep in mind that one object can have many uses. Separate your responses with a comma.,NA,y,4546,NA,NA,2134,3367,NA,NA,NA,cut up meat,1
10067639AS,ie5duiyf0v,Affordance Norms_USM,1,37,2023-03-22T17:21:38+00:00,5.151726007,17,updated stim.csv,Version17.csv,Version 17,List 17,gearbox,NA,487,5.041666667,1092,0.483566212,488,BOI,-,-,Please name all of the ways you could use this object. Keep in mind that one object can have many uses. Separate your responses with a comma.,NA,y,4934,NA,NA,1564,3214,NA,NA,NA,hold your gear,1
10067639AS,ie5duiyf0v,Affordance Norms_USM,1,38,2023-03-22T17:21:49+00:00,10.90478492,17,updated stim.csv,Version17.csv,Version 17,List 17,wart,NA,503,4.56,2894,0.169280994,504,BOI,-,-,Please name all of the ways you could use this object. Keep in mind that one object can have many uses. Separate your responses with a comma.,NA,y,10662,NA,NA,4205,10230,NA,NA,NA,serves no use,1
10067639AS,ie5duiyf0v,Affordance Norms_USM,1,39,2023-03-22T17:22:06+00:00,16.44279099,17,updated stim.csv,Version17.csv,Version 17,List 17,headphones,NA,486,6.083333333,1269,0.257158523,487,BOI,-,-,Please name all of the ways you could use this object. Keep in mind that one object can have many uses. Separate your responses with a comma.,NA,y,16210,NA,NA,1267,15406,NA,NA,NA,"listen to music, lectures, podcsts, sermons",1
10067639AS,ie5duiyf0v,Affordance Norms_USM,1,40,2023-03-22T17:22:26+00:00,20.47994614,17,updated stim.csv,Version17.csv,Version 17,List 17,groom,NA,482,5,1181,0.795382639,483,BOI,-,-,Please name all of the ways you could use this object. Keep in mind that one object can have many uses. Separate your responses with a comma.,NA,y,20252,NA,NA,6714,19779,NA,NA,NA,cut or bathe humans hair or animal hair,1
1006869SJ,pjqehj26g0,Affordance Norms_USM,1,11,2023-03-22T17:07:36+00:00,6.905138969,16,updated stim.csv,Version16.csv,Version 16,List 16,jean,NA,477,5.956521739,1378,0.274659644,478,BOI,-,-,Please name all of the ways you could use this object. Keep in mind that one object can have many uses. Separate your responses with a comma.,NA,y,6653,NA,NA,3292,5580,NA,NA,NA,"wear,make",1
1006869SJ,pjqehj26g0,Affordance Norms_USM,1,12,2023-03-22T17:07:42+00:00,6.147245169,16,updated stim.csv,Version16.csv,Version 16,List 16,lake,NA,465,5.035714286,1452,0.957672416,466,BOI,-,-,Please name all of the ways you could use this object. Keep in mind that one object can have many uses. Separate your responses with a comma.,NA,y,5895,NA,NA,1762,4921,NA,NA,NA,"swim,fish",1
1006869SJ,pjqehj26g0,Affordance Norms_USM,1,13,2023-03-22T17:07:53+00:00,11.26736999,16,updated stim.csv,Version16.csv,Version 16,List 16,easel,NA,470,4.72,885,0.908131854,471,BOI,-,-,Please name all of the ways you could use this object. Keep in mind that one object can have many uses. Separate your responses with a comma.,NA,y,10969,NA,NA,6462,9789,NA,NA,NA,"draw,paint",1
1006869SJ,pjqehj26g0,Affordance Norms_USM,1,14,2023-03-22T17:08:01+00:00,8.16246891,16,updated stim.csv,Version16.csv,Version 16,List 16,linen,NA,462,5.875,1517,0.282871373,463,BOI,-,-,Please name all of the ways you could use this object. Keep in mind that one object can have many uses. Separate your responses with a comma.,NA,y,7891,NA,NA,2353,6636,NA,NA,NA,"sheets,clothes",1
1006869SJ,pjqehj26g0,Affordance Norms_USM,1,15,2023-03-22T17:08:09+00:00,7.592867136,16,updated stim.csv,Version16.csv,Version 16,List 16,thigh,NA,454,5.76,2680,0.793867773,455,BOI,-,-,Please name all of the ways you could use this object. Keep in mind that one object can have many uses. Separate your responses with a comma.,NA,y,7347,NA,NA,4738,6497,NA,NA,NA,chicken,1
1006869SJ,pjqehj26g0,Affordance Norms_USM,1,16,2023-03-22T17:08:20+00:00,10.78274798,16,updated stim.csv,Version16.csv,Version 16,List 16,satin,NA,455,5.125,2246,0.101934862,456,BOI,-,-,Please name all of the ways you could use this object. Keep in mind that one object can have many uses. Separate your responses with a comma.,NA,y,10537,NA,NA,6776,9536,NA,NA,NA,pillows,1
1006869SJ,pjqehj26g0,Affordance Norms_USM,1,17,2023-03-22T17:08:24+00:00,4.724239826,16,updated stim.csv,Version16.csv,Version 16,List 16,raindrop,NA,460,5.208333333,2131,0.395585786,461,BOI,-,-,Please name all of the ways you could use this object. Keep in mind that one object can have many uses. Separate your responses with a comma.,NA,y,4480,NA,NA,1760,2589,NA,NA,NA,water,1
1006869SJ,pjqehj26g0,Affordance Norms_USM,1,18,2023-03-22T17:08:34+00:00,9.232748985,16,updated stim.csv,Version16.csv,Version 16,List 16,spatula,NA,461,5.708333333,2463,0.284019134,462,BOI,-,-,Please name all of the ways you could use this object. Keep in mind that one object can have many uses. Separate your responses with a comma.,NA,y,8989,NA,NA,1833,7876,NA,NA,NA,"cook,stir",1
1006869SJ,pjqehj26g0,Affordance Norms_USM,1,19,2023-03-22T17:08:39+00:00,5.203125,16,updated stim.csv,Version16.csv,Version 16,List 16,collar,NA,469,5.12,600,0.026191584,470,BOI,-,-,Please name all of the ways you could use this object. Keep in mind that one object can have many uses. Separate your responses with a comma.,NA,y,4956,NA,NA,1694,3864,NA,NA,NA,"dog,id",1
1006869SJ,pjqehj26g0,Affordance Norms_USM,1,20,2023-03-22T17:08:44+00:00,5.337778091,16,updated stim.csv,Version16.csv,Version 16,List 16,mortician,NA,451,4.833333333,1686,0.045579899,452,BOI,-,-,Please name all of the ways you could use this object. Keep in mind that one object can have many uses. Separate your responses with a comma.,NA,y,5071,NA,NA,3442,4058,NA,NA,NA,idk,1
1006869SJ,pjqehj26g0,Affordance Norms_USM,1,21,2023-03-22T17:08:57+00:00,12.87449598,16,updated stim.csv,Version16.csv,Version 16,List 16,cellar,NA,476,4.6,472,0.992638044,477,BOI,-,-,Please name all of the ways you could use this object. Keep in mind that one object can have many uses. Separate your responses with a comma.,NA,y,12631,NA,NA,2518,11623,NA,NA,NA,"wine, basement",1
1006869SJ,pjqehj26g0,Affordance Norms_USM,1,22,2023-03-22T17:09:01+00:00,3.948194981,16,updated stim.csv,Version16.csv,Version 16,List 16,bayonet,NA,471,4.916666667,174,0.190081034,472,BOI,-,-,Please name all of the ways you could use this object. Keep in mind that one object can have many uses. Separate your responses with a comma.,NA,y,3695,NA,NA,1840,2682,NA,NA,NA,idk,1
1006869SJ,pjqehj26g0,Affordance Norms_USM,1,23,2023-03-22T17:09:04+00:00,2.63373208,16,updated stim.csv,Version16.csv,Version 16,List 16,mutton,NA,474,5,1729,0.300420837,475,BOI,-,-,Please name all of the ways you could use this object. Keep in mind that one object can have many uses. Separate your responses with a comma.,NA,y,2371,NA,NA,977,1549,NA,NA,NA,idk,1
1006869SJ,pjqehj26g0,Affordance Norms_USM,1,24,2023-03-22T17:09:06+00:00,2.398431063,16,updated stim.csv,Version16.csv,Version 16,List 16,paintbox,NA,478,4.44,1848,0.023317079,479,BOI,-,-,Please name all of the ways you could use this object. Keep in mind that one object can have many uses. Separate your responses with a comma.,NA,y,2141,NA,NA,1095,1635,NA,NA,NA,idk,1
1006869SJ,pjqehj26g0,Affordance Norms_USM,1,25,2023-03-22T17:09:12+00:00,5.731104851,16,updated stim.csv,Version16.csv,Version 16,List 16,scientist,NA,456,4.47826087,2274,0.507361683,457,BOI,-,-,Please name all of the ways you could use this object. Keep in mind that one object can have many uses. Separate your responses with a comma.,NA,y,5498,NA,NA,2799,5058,NA,NA,NA,chemicals,1
1006869SJ,pjqehj26g0,Affordance Norms_USM,1,26,2023-03-22T17:09:15+00:00,3.424038172,16,updated stim.csv,Version16.csv,Version 16,List 16,pole,NA,475,5.32,2020,0.760021962,476,BOI,-,-,Please name all of the ways you could use this object. Keep in mind that one object can have many uses. Separate your responses with a comma.,NA,y,3169,NA,NA,1686,2615,NA,NA,NA,flag,1
1006869SJ,pjqehj26g0,Affordance Norms_USM,1,27,2023-03-22T17:09:22+00:00,6.862367868,16,updated stim.csv,Version16.csv,Version 16,List 16,apprentice,NA,466,4.321428571,65,0.613222279,467,BOI,-,-,Please name all of the ways you could use this object. Keep in mind that one object can have many uses. Separate your responses with a comma.,NA,y,6603,NA,NA,4186,6115,NA,NA,NA,sidekick,1
1006869SJ,pjqehj26g0,Affordance Norms_USM,1,28,2023-03-22T17:09:27+00:00,4.616550922,16,updated stim.csv,Version16.csv,Version 16,List 16,soap,NA,452,6.434782609,2437,0.273714235,453,BOI,-,-,Please name all of the ways you could use this object. Keep in mind that one object can have many uses. Separate your responses with a comma.,NA,y,4365,NA,NA,1331,3861,NA,NA,NA,"wash,clean",1
1006869SJ,pjqehj26g0,Affordance Norms_USM,1,29,2023-03-22T17:09:41+00:00,13.97285104,16,updated stim.csv,Version16.csv,Version 16,List 16,lip,NA,463,5.52173913,1521,0.029003979,464,BOI,-,-,Please name all of the ways you could use this object. Keep in mind that one object can have many uses. Separate your responses with a comma.,NA,y,13736,NA,NA,10428,12728,NA,NA,NA,chapstick,1
1006869SJ,pjqehj26g0,Affordance Norms_USM,1,30,2023-03-22T17:09:45+00:00,4.092419147,16,updated stim.csv,Version16.csv,Version 16,List 16,nickel,NA,467,5.814814815,1766,0.592286248,468,BOI,-,-,Please name all of the ways you could use this object. Keep in mind that one object can have many uses. Separate your responses with a comma.,NA,y,3830,NA,NA,1752,3328,NA,NA,NA,currency,1
1006869SJ,pjqehj26g0,Affordance Norms_USM,1,31,2023-03-22T17:09:53+00:00,8.117623806,16,updated stim.csv,Version16.csv,Version 16,List 16,note,NA,459,5.434782609,1781,0.11652109,460,BOI,-,-,Please name all of the ways you could use this object. Keep in mind that one object can have many uses. Separate your responses with a comma.,NA,y,7871,NA,NA,3082,7350,NA,NA,NA,"write,pass",1
1006869SJ,pjqehj26g0,Affordance Norms_USM,1,32,2023-03-22T17:09:58+00:00,4.850424051,16,updated stim.csv,Version16.csv,Version 16,List 16,cocaine,NA,468,5.913043478,585,0.903342053,469,BOI,-,-,Please name all of the ways you could use this object. Keep in mind that one object can have many uses. Separate your responses with a comma.,NA,y,4613,NA,NA,3537,4151,NA,NA,NA,bad,1
1006869SJ,pjqehj26g0,Affordance Norms_USM,1,33,2023-03-22T17:10:05+00:00,7.672501087,16,updated stim.csv,Version16.csv,Version 16,List 16,policewoman,NA,479,4.904761905,2023,0.204056132,480,BOI,-,-,Please name all of the ways you could use this object. Keep in mind that one object can have many uses. Separate your responses with a comma.,NA,y,7426,NA,NA,3133,5918,NA,NA,NA,authority,1
1006869SJ,pjqehj26g0,Affordance Norms_USM,1,34,2023-03-22T17:10:09+00:00,3.426986933,16,updated stim.csv,Version16.csv,Version 16,List 16,stoop,NA,473,4.5,2548,0.965520337,474,BOI,-,-,Please name all of the ways you could use this object. Keep in mind that one object can have many uses. Separate your responses with a comma.,NA,y,3177,NA,NA,1972,2602,NA,NA,NA,hill,1
1006869SJ,pjqehj26g0,Affordance Norms_USM,1,35,2023-03-22T17:10:12+00:00,2.992196083,16,updated stim.csv,Version16.csv,Version 16,List 16,rupee,NA,480,4.826086957,2208,0.272774302,481,BOI,-,-,Please name all of the ways you could use this object. Keep in mind that one object can have many uses. Separate your responses with a comma.,NA,y,2743,NA,NA,1307,1916,NA,NA,NA,idk,1
1006869SJ,pjqehj26g0,Affordance Norms_USM,1,36,2023-03-22T17:10:17+00:00,5.185349941,16,updated stim.csv,Version16.csv,Version 16,List 16,coal,NA,458,4.875,579,0.494851678,459,BOI,-,-,Please name all of the ways you could use this object. Keep in mind that one object can have many uses. Separate your responses with a comma.,NA,y,4915,NA,NA,3329,4303,NA,NA,NA,fire,1
1006869SJ,pjqehj26g0,Affordance Norms_USM,1,37,2023-03-22T17:10:20+00:00,3.330271006,16,updated stim.csv,Version16.csv,Version 16,List 16,checklist,NA,457,4.464285714,501,0.535152959,458,BOI,-,-,Please name all of the ways you could use this object. Keep in mind that one object can have many uses. Separate your responses with a comma.,NA,y,3077,NA,NA,1710,2451,NA,NA,NA,todo,1
1006869SJ,pjqehj26g0,Affordance Norms_USM,1,38,2023-03-22T17:10:23+00:00,3.075690985,16,updated stim.csv,Version16.csv,Version 16,List 16,sardine,NA,453,4.869565217,2242,0.892913517,454,BOI,-,-,Please name all of the ways you could use this object. Keep in mind that one object can have many uses. Separate your responses with a comma.,NA,y,2821,NA,NA,1540,2270,NA,NA,NA,fish,1
1006869SJ,pjqehj26g0,Affordance Norms_USM,1,39,2023-03-22T17:10:28+00:00,4.595128059,16,updated stim.csv,Version16.csv,Version 16,List 16,genital,NA,464,5.826086957,1095,0.838010994,465,BOI,-,-,Please name all of the ways you could use this object. Keep in mind that one object can have many uses. Separate your responses with a comma.,NA,y,4329,NA,NA,2155,3809,NA,NA,NA,private,1
1006869SJ,pjqehj26g0,Affordance Norms_USM,1,40,2023-03-22T17:10:36+00:00,7.960002899,16,updated stim.csv,Version16.csv,Version 16,List 16,paraphernalia,NA,472,4.5,1871,0.999105159,473,BOI,-,-,Please name all of the ways you could use this object. Keep in mind that one object can have many uses. Separate your responses with a comma.,NA,y,7666,NA,NA,4890,7057,NA,NA,NA,substance,1
10109717DF,94stehbd5u,Affordance Norms_USM,1,11,2023-04-24T23:09:39+00:00,45.09875584,90,updated stim.csv,Version90.csv,Version 90,List 90,goggle,NA,2696,4.458333333,1130,0.364132405,2697,BOI,-,-,Please name all of the ways you could use this object. Keep in mind that one object can have many uses. Separate your responses with a comma.,NA,y,44332,NA,NA,3156,7522,NA,NA,NA,"safety, diving, swimming",1
10109717DF,94stehbd5u,Affordance Norms_USM,1,12,2023-04-24T23:10:37+00:00,57.512429,90,updated stim.csv,Version90.csv,Version 90,List 90,clamp,NA,2688,5.36,546,0.048469768,2689,BOI,-,-,Please name all of the ways you could use this object. Keep in mind that one object can have many uses. Separate your responses with a comma.,NA,y,56736,NA,NA,7802,38794,NA,NA,NA,"hold things together, close something, shut something off",1
10109717DF,94stehbd5u,Affordance Norms_USM,1,13,2023-04-24T23:12:09+00:00,92.29128814,90,updated stim.csv,Version90.csv,Version 90,List 90,limes,NA,2675,5.782608696,1514,0.972887071,2676,BOI,-,-,Please name all of the ways you could use this object. Keep in mind that one object can have many uses. Separate your responses with a comma.,NA,y,91413,NA,NA,3019,90253,NA,NA,NA,"make juice, limeade, seasoning, salad dressing, make a dessert ",0.942
10109717DF,94stehbd5u,Affordance Norms_USM,1,14,2023-04-24T23:13:43+00:00,93.46402097,90,updated stim.csv,Version90.csv,Version 90,List 90,workbench,NA,2674,6.208333333,2968,0.631953114,2675,BOI,-,-,Please name all of the ways you could use this object. Keep in mind that one object can have many uses. Separate your responses with a comma.,NA,y,92613,NA,NA,2432,83920,NA,NA,NA,"studying, building, crafting, sketching, lounging, storage",0.969
10109717DF,94stehbd5u,Affordance Norms_USM,1,15,2023-04-24T23:15:41+00:00,117.8836579,90,updated stim.csv,Version90.csv,Version 90,List 90,pipe,NA,2681,5.653846154,1976,0.248771995,2682,BOI,-,-,Please name all of the ways you could use this object. Keep in mind that one object can have many uses. Separate your responses with a comma.,NA,y,117522,NA,NA,11007,79357,NA,NA,NA,"plumbing, water drainage, AC units, oil rigging, ",0.873
10109717DF,94stehbd5u,Affordance Norms_USM,1,16,2023-04-24T23:16:15+00:00,34.31259894,90,updated stim.csv,Version90.csv,Version 90,List 90,buttonhole,NA,2695,5.074074074,382,0.218069327,2696,BOI,-,-,Please name all of the ways you could use this object. Keep in mind that one object can have many uses. Separate your responses with a comma.,NA,y,34088,NA,NA,18834,20145,NA,NA,NA,fastening,1
10109717DF,94stehbd5u,Affordance Norms_USM,1,17,2023-04-24T23:16:49+00:00,33.68993306,90,updated stim.csv,Version90.csv,Version 90,List 90,blackheads,NA,2678,4.260869565,230,0.616208827,2679,BOI,-,-,Please name all of the ways you could use this object. Keep in mind that one object can have many uses. Separate your responses with a comma.,NA,y,33468,NA,NA,7158,10224,NA,NA,NA,popping,1
10109717DF,94stehbd5u,Affordance Norms_USM,1,18,2023-04-24T23:18:14+00:00,84.94303703,90,updated stim.csv,Version90.csv,Version 90,List 90,livestock,NA,2671,5.041666667,1528,0.387059315,2672,BOI,-,-,Please name all of the ways you could use this object. Keep in mind that one object can have many uses. Separate your responses with a comma.,NA,y,84087,NA,NA,4266,62560,NA,NA,NA,"meat, milking, pets, breeding, selling",1
10109717DF,94stehbd5u,Affordance Norms_USM,1,19,2023-04-24T23:19:01+00:00,47.38783503,90,updated stim.csv,Version90.csv,Version 90,List 90,fig,NA,2684,5.083333333,972,0.270792249,2685,BOI,-,-,Please name all of the ways you could use this object. Keep in mind that one object can have many uses. Separate your responses with a comma.,NA,y,47064,NA,NA,1690,38001,NA,NA,NA,"jam, jelly, marmalade, juice, baking, preserves, ",1
10109717DF,94stehbd5u,Affordance Norms_USM,1,20,2023-04-24T23:20:46+00:00,104.906842,90,updated stim.csv,Version90.csv,Version 90,List 90,rye,NA,2687,4.407407407,2209,0.622756368,2688,BOI,-,-,Please name all of the ways you could use this object. Keep in mind that one object can have many uses. Separate your responses with a comma.,NA,y,104563,NA,NA,5557,103346,NA,NA,NA,"make flour, make bread, make desserts, ",0.806
10109717DF,94stehbd5u,Affordance Norms_USM,1,21,2023-04-24T23:21:39+00:00,53.02456307,90,updated stim.csv,Version90.csv,Version 90,List 90,timber,NA,2680,4.695652174,2699,0.328081093,2681,BOI,-,-,Please name all of the ways you could use this object. Keep in mind that one object can have many uses. Separate your responses with a comma.,NA,y,52793,NA,NA,1827,33307,NA,NA,NA,"burning, building ",1
10109717DF,94stehbd5u,Affordance Norms_USM,1,22,2023-04-24T23:23:18+00:00,98.66309285,90,updated stim.csv,Version90.csv,Version 90,List 90,putty,NA,2672,5,2107,0.291045062,2673,BOI,-,-,Please name all of the ways you could use this object. Keep in mind that one object can have many uses. Separate your responses with a comma.,NA,y,98355,NA,NA,31619,96790,NA,NA,NA,"toy, hang something on the wall, stop drainage, filling in holes/cracks ",0.968
10109717DF,94stehbd5u,Affordance Norms_USM,1,23,2023-04-24T23:24:39+00:00,81.17320704,90,updated stim.csv,Version90.csv,Version 90,List 90,plumber,NA,2699,4.44,2011,0.938041459,2700,BOI,-,-,Please name all of the ways you could use this object. Keep in mind that one object can have many uses. Separate your responses with a comma.,NA,y,80894,NA,NA,10093,69348,NA,NA,NA,"fixing septic system, installing new piping, removing old piping, ",0.843
10109717DF,94stehbd5u,Affordance Norms_USM,1,24,2023-04-24T23:26:01+00:00,82.16951609,90,updated stim.csv,Version90.csv,Version 90,List 90,stepparent,NA,2677,5,2528,0.086567946,2678,BOI,-,-,Please name all of the ways you could use this object. Keep in mind that one object can have many uses. Separate your responses with a comma.,NA,y,81860,NA,NA,7702,80891,NA,NA,NA,"friend, parent, money",1
10109717DF,94stehbd5u,Affordance Norms_USM,1,25,2023-04-24T23:27:42+00:00,101.291389,90,updated stim.csv,Version90.csv,Version 90,List 90,cavalryman,NA,2682,4.291666667,467,0.382746925,2683,BOI,-,-,Please name all of the ways you could use this object. Keep in mind that one object can have many uses. Separate your responses with a comma.,NA,y,101030,NA,NA,4659,81354,NA,NA,NA,"fight in battle, comrade, send messages, patrolling ",0.892
10109717DF,94stehbd5u,Affordance Norms_USM,1,26,2023-04-24T23:28:22+00:00,40.14074683,90,updated stim.csv,Version90.csv,Version 90,List 90,gatekeeper,NA,2683,4.44,1087,0.244346152,2684,BOI,-,-,Please name all of the ways you could use this object. Keep in mind that one object can have many uses. Separate your responses with a comma.,NA,y,39918,NA,NA,5771,10205,NA,NA,NA,protection,0.848
10112107jf,btfloxnp3x,Affordance Norms_USM,1,11,2023-03-22T17:06:12+00:00,33.84831119,15,updated stim.csv,Version15.csv,Version 15,List 15,money,NA,425,6.291666667,1677,0.69421982,426,BOI,-,-,Please name all of the ways you could use this object. Keep in mind that one object can have many uses. Separate your responses with a comma.,NA,y,33648,NA,NA,7063,21680,NA,NA,NA,"buy things, look at, learn history",1
10112107jf,btfloxnp3x,Affordance Norms_USM,1,12,2023-03-22T17:06:50+00:00,38.04098892,15,updated stim.csv,Version15.csv,Version 15,List 15,essay,NA,439,4.333333333,922,0.993576252,440,BOI,-,-,Please name all of the ways you could use this object. Keep in mind that one object can have many uses. Separate your responses with a comma.,NA,y,37816,NA,NA,4552,31324,NA,NA,NA,"write, test knowledge, grammar skills, for fun, read",1
10112107jf,btfloxnp3x,Affordance Norms_USM,1,13,2023-03-22T17:07:11+00:00,21.27325296,15,updated stim.csv,Version15.csv,Version 15,List 15,rod,NA,438,4.454545455,2185,0.868683002,439,BOI,-,-,Please name all of the ways you could use this object. Keep in mind that one object can have many uses. Separate your responses with a comma.,NA,y,21074,NA,NA,2876,19228,NA,NA,NA,"weapon, house construction, plumbing, exercise tool",1
10112107jf,btfloxnp3x,Affordance Norms_USM,1,14,2023-03-22T17:07:31+00:00,20.16515803,15,updated stim.csv,Version15.csv,Version 15,List 15,investigator,NA,422,4.888888889,1367,0.47461087,423,BOI,-,-,Please name all of the ways you could use this object. Keep in mind that one object can have many uses. Separate your responses with a comma.,NA,y,19963,NA,NA,2555,18790,NA,NA,NA,"find people, find objects, look for clues, solve crimes",1
10112107jf,btfloxnp3x,Affordance Norms_USM,1,15,2023-03-22T17:07:54+00:00,23.24188185,15,updated stim.csv,Version15.csv,Version 15,List 15,grandma,NA,448,5.769230769,1148,0.122398019,449,BOI,-,-,Please name all of the ways you could use this object. Keep in mind that one object can have many uses. Separate your responses with a comma.,NA,y,23047,NA,NA,1727,21341,NA,NA,NA,"love, money, presents, a house, cooking for you",1
10112107jf,btfloxnp3x,Affordance Norms_USM,1,16,2023-03-22T17:08:09+00:00,14.936239,15,updated stim.csv,Version15.csv,Version 15,List 15,thermometer,NA,429,5.56,2676,0.363619709,430,BOI,-,-,Please name all of the ways you could use this object. Keep in mind that one object can have many uses. Separate your responses with a comma.,NA,y,14706,NA,NA,2534,13489,NA,NA,NA,"tell temperature, decoration",1
10112107jf,btfloxnp3x,Affordance Norms_USM,1,17,2023-03-22T17:08:27+00:00,17.98464012,15,updated stim.csv,Version15.csv,Version 15,List 15,keyboard,NA,445,6.08,1412,0.85415253,446,BOI,-,-,Please name all of the ways you could use this object. Keep in mind that one object can have many uses. Separate your responses with a comma.,NA,y,17784,NA,NA,1687,16766,NA,NA,NA,"typing, decoration",1
10112107jf,btfloxnp3x,Affordance Norms_USM,1,18,2023-03-22T17:08:46+00:00,18.91694593,15,updated stim.csv,Version15.csv,Version 15,List 15,lifeboat,NA,443,5.333333333,1504,0.414036557,444,BOI,-,-,Please name all of the ways you could use this object. Keep in mind that one object can have many uses. Separate your responses with a comma.,NA,y,18714,NA,NA,3803,10073,NA,NA,NA,"float on water, a bed",1
10112107jf,btfloxnp3x,Affordance Norms_USM,1,19,2023-03-22T17:09:08+00:00,22.09932494,15,updated stim.csv,Version15.csv,Version 15,List 15,newlyweds,NA,447,4.772727273,1754,0.905080051,448,BOI,-,-,Please name all of the ways you could use this object. Keep in mind that one object can have many uses. Separate your responses with a comma.,NA,y,21903,NA,NA,5310,20694,NA,NA,NA,"love, marriage, weddings, fun ",1
10112107jf,btfloxnp3x,Affordance Norms_USM,1,20,2023-03-22T17:09:44+00:00,35.84592009,15,updated stim.csv,Version15.csv,Version 15,List 15,sibling,NA,424,5.04,2373,0.526230235,425,BOI,-,-,Please name all of the ways you could use this object. Keep in mind that one object can have many uses. Separate your responses with a comma.,NA,y,35618,NA,NA,4058,34681,NA,NA,NA,"money, car rides, advice, make life interesting, arguing, fighting, steal clothes, attention from parents",1
10112107jf,btfloxnp3x,Affordance Norms_USM,1,21,2023-03-22T17:10:09+00:00,24.56721401,15,updated stim.csv,Version15.csv,Version 15,List 15,slut,NA,433,4.652173913,2420,0.469760498,434,BOI,-,-,Please name all of the ways you could use this object. Keep in mind that one object can have many uses. Separate your responses with a comma.,NA,y,24379,NA,NA,22747,23179,NA,NA,NA,sex,1
10112107jf,btfloxnp3x,Affordance Norms_USM,1,22,2023-03-22T17:10:20+00:00,10.77861691,15,updated stim.csv,Version15.csv,Version 15,List 15,flounder,NA,432,4.52173913,1013,0.365858235,433,BOI,-,-,Please name all of the ways you could use this object. Keep in mind that one object can have many uses. Separate your responses with a comma.,NA,y,10583,NA,NA,5961,8894,NA,NA,NA,sea decorations,1
10112107jf,btfloxnp3x,Affordance Norms_USM,1,23,2023-03-22T17:10:39+00:00,19.68280816,15,updated stim.csv,Version15.csv,Version 15,List 15,claw,NA,423,4.391304348,550,0.085968356,424,BOI,-,-,Please name all of the ways you could use this object. Keep in mind that one object can have many uses. Separate your responses with a comma.,NA,y,19486,NA,NA,2735,17738,NA,NA,NA,"grab things, eat, produces pain",1
10112107jf,btfloxnp3x,Affordance Norms_USM,1,24,2023-03-22T17:10:56+00:00,16.42238092,15,updated stim.csv,Version15.csv,Version 15,List 15,racket,NA,436,5.24,2120,0.111236528,437,BOI,-,-,Please name all of the ways you could use this object. Keep in mind that one object can have many uses. Separate your responses with a comma.,NA,y,16212,NA,NA,1434,15935,NA,NA,NA,"tennis, hit things, games for kids, decorations",1
10112107jf,btfloxnp3x,Affordance Norms_USM,1,25,2023-03-22T17:11:12+00:00,16.70505309,15,updated stim.csv,Version15.csv,Version 15,List 15,corridor,NA,441,4.5,651,0.966954402,442,BOI,-,-,Please name all of the ways you could use this object. Keep in mind that one object can have many uses. Separate your responses with a comma.,NA,y,16460,NA,NA,2568,16322,NA,NA,NA,"walk through, decorate, get from one room to another",1
10112107jf,btfloxnp3x,Affordance Norms_USM,1,26,2023-03-22T17:11:34+00:00,21.73649096,15,updated stim.csv,Version15.csv,Version 15,List 15,restaurant,NA,434,5.275862069,2159,0.75962687,435,BOI,-,-,Please name all of the ways you could use this object. Keep in mind that one object can have many uses. Separate your responses with a comma.,NA,y,21540,NA,NA,1270,18267,NA,NA,NA,"eat, talk with people, meet people, business deals, lose money, ",1
10112107jf,btfloxnp3x,Affordance Norms_USM,1,27,2023-03-22T17:11:47+00:00,13.33312201,15,updated stim.csv,Version15.csv,Version 15,List 15,refrigerator,NA,435,5.851851852,2152,0.017631805,436,BOI,-,-,Please name all of the ways you could use this object. Keep in mind that one object can have many uses. Separate your responses with a comma.,NA,y,13131,NA,NA,2476,8864,NA,NA,NA,"keep food cold, store food",1
10112107jf,btfloxnp3x,Affordance Norms_USM,1,28,2023-03-22T17:12:03+00:00,15.12504888,15,updated stim.csv,Version15.csv,Version 15,List 15,tongs,NA,449,5.826086957,2727,0.638758823,450,BOI,-,-,Please name all of the ways you could use this object. Keep in mind that one object can have many uses. Separate your responses with a comma.,NA,y,14927,NA,NA,1653,14371,NA,NA,NA,"grab food, grab other objects, grab hot things",1
10112107jf,btfloxnp3x,Affordance Norms_USM,1,29,2023-03-22T17:12:21+00:00,18.70412612,15,updated stim.csv,Version15.csv,Version 15,List 15,cake,NA,440,6.086956522,399,0.792412943,441,BOI,-,-,Please name all of the ways you could use this object. Keep in mind that one object can have many uses. Separate your responses with a comma.,NA,y,18507,NA,NA,1540,18257,NA,NA,NA,"eat, decorate, make kids happy, bring people together, birthday parties",1
10112107jf,btfloxnp3x,Affordance Norms_USM,1,30,2023-03-22T17:12:30+00:00,8.365409851,15,updated stim.csv,Version15.csv,Version 15,List 15,parachutist,NA,437,4.6,1869,0.022813055,438,BOI,-,-,Please name all of the ways you could use this object. Keep in mind that one object can have many uses. Separate your responses with a comma.,NA,y,8163,NA,NA,5055,7935,NA,NA,NA,jump out of planes,1
10112107jf,btfloxnp3x,Affordance Norms_USM,1,31,2023-03-22T17:12:36+00:00,6.34505415,15,updated stim.csv,Version15.csv,Version 15,List 15,pooch,NA,446,5.045454545,2031,0.306327361,447,BOI,-,-,Please name all of the ways you could use this object. Keep in mind that one object can have many uses. Separate your responses with a comma.,NA,y,6111,NA,NA,5317,5744,NA,NA,NA,pet,1
10112107jf,btfloxnp3x,Affordance Norms_USM,1,32,2023-03-22T17:12:50+00:00,13.72829199,15,updated stim.csv,Version15.csv,Version 15,List 15,burger,NA,444,6.111111111,365,0.030114514,445,BOI,-,-,Please name all of the ways you could use this object. Keep in mind that one object can have many uses. Separate your responses with a comma.,NA,y,13539,NA,NA,1355,13375,NA,NA,NA,"eat, throw at people, throw away ",1
10112107jf,btfloxnp3x,Affordance Norms_USM,1,33,2023-03-22T17:13:01+00:00,11.77022886,15,updated stim.csv,Version15.csv,Version 15,List 15,trapeze,NA,428,4.958333333,2763,0.021755234,429,BOI,-,-,Please name all of the ways you could use this object. Keep in mind that one object can have many uses. Separate your responses with a comma.,NA,y,11561,NA,NA,2249,4173,NA,NA,NA,walk on,1
10112107jf,btfloxnp3x,Affordance Norms_USM,1,34,2023-03-22T17:13:17+00:00,15.43090415,15,updated stim.csv,Version15.csv,Version 15,List 15,storekeeper,NA,442,4.75,2552,0.711529641,443,BOI,-,-,Please name all of the ways you could use this object. Keep in mind that one object can have many uses. Separate your responses with a comma.,NA,y,15240,NA,NA,2286,12131,NA,NA,NA,"make sure store is good, pay money to",1
10112107jf,btfloxnp3x,Affordance Norms_USM,1,35,2023-03-22T17:13:27+00:00,10.20918584,15,updated stim.csv,Version15.csv,Version 15,List 15,oceanographer,NA,430,4.44,1800,0.127937549,431,BOI,-,-,Please name all of the ways you could use this object. Keep in mind that one object can have many uses. Separate your responses with a comma.,NA,y,10017,NA,NA,2955,9895,NA,NA,NA,"map the ocean, look at sea creatures",1
10112107jf,btfloxnp3x,Affordance Norms_USM,1,36,2023-03-22T17:13:46+00:00,18.40769219,15,updated stim.csv,Version15.csv,Version 15,List 15,cap,NA,427,5.826086957,422,0.328762048,428,BOI,-,-,Please name all of the ways you could use this object. Keep in mind that one object can have many uses. Separate your responses with a comma.,NA,y,18204,NA,NA,1905,18048,NA,NA,NA,"wear, hold things, decorations, gifts",1
10112107jf,btfloxnp3x,Affordance Norms_USM,1,37,2023-03-22T17:14:06+00:00,20.16302586,15,updated stim.csv,Version15.csv,Version 15,List 15,teapot,NA,450,6.2,2649,0.536720356,451,BOI,-,-,Please name all of the ways you could use this object. Keep in mind that one object can have many uses. Separate your responses with a comma.,NA,y,19919,NA,NA,1884,19752,NA,NA,NA,"hold tea, toy for kids, holds familial value",1
10112107jf,btfloxnp3x,Affordance Norms_USM,1,38,2023-03-22T17:14:24+00:00,18.75595403,15,updated stim.csv,Version15.csv,Version 15,List 15,apartment,NA,431,4.6,55,0.282470897,432,BOI,-,-,Please name all of the ways you could use this object. Keep in mind that one object can have many uses. Separate your responses with a comma.,NA,y,18542,NA,NA,1560,17490,NA,NA,NA,"live in, host parties, decorate, hold all items",1
10112107jf,btfloxnp3x,Affordance Norms_USM,1,39,2023-03-22T17:14:46+00:00,21.32494807,15,updated stim.csv,Version15.csv,Version 15,List 15,newsstand,NA,426,5.458333333,1764,0.165548754,427,BOI,-,-,Please name all of the ways you could use this object. Keep in mind that one object can have many uses. Separate your responses with a comma.,NA,y,21132,NA,NA,3874,20999,NA,NA,NA,"display newspapers, get the daily news, talk to other people ",1
10112107jf,btfloxnp3x,Affordance Norms_USM,1,40,2023-03-22T17:15:10+00:00,23.95961308,15,updated stim.csv,Version15.csv,Version 15,List 15,sundeck,NA,421,4.5,2586,0.114183625,422,BOI,-,-,Please name all of the ways you could use this object. Keep in mind that one object can have many uses. Separate your responses with a comma.,NA,y,23759,NA,NA,2322,23539,NA,NA,NA,"tan, sit on, enjoy the scenery, talk with people, enjoy coffee",1
10125281KT,zi52hjzmn6,Affordance Norms_USM,1,11,2023-05-01T23:38:48+00:00,8.884166956,8,updated stim.csv,Version8.csv,Version 8,List 8,creek,NA,239,4.52,691,0.967555981,240,BOI,-,-,Please name all of the ways you could use this object. Keep in mind that one object can have many uses. Separate your responses with a comma.,NA,y,8704,NA,NA,5418,6730,NA,NA,NA,swimming,1
10125281KT,zi52hjzmn6,Affordance Norms_USM,1,12,2023-05-01T23:38:53+00:00,5.135720015,8,updated stim.csv,Version8.csv,Version 8,List 8,phalanges,NA,226,4.35,1937,0.497580512,227,BOI,-,-,Please name all of the ways you could use this object. Keep in mind that one object can have many uses. Separate your responses with a comma.,NA,y,4955,NA,NA,3123,4197,NA,NA,NA,counting,1
10125281KT,zi52hjzmn6,Affordance Norms_USM,1,13,2023-05-01T23:39:15+00:00,22.45671701,8,updated stim.csv,Version8.csv,Version 8,List 8,groundsman,NA,222,4.333333333,1183,0.64899298,223,BOI,-,-,Please name all of the ways you could use this object. Keep in mind that one object can have many uses. Separate your responses with a comma.,NA,y,22254,NA,NA,6350,21366,NA,NA,NA,"cleaning, organizing, straightening, maintenance ",1
10125281KT,zi52hjzmn6,Affordance Norms_USM,1,14,2023-05-01T23:39:59+00:00,43.45134807,8,updated stim.csv,Version8.csv,Version 8,List 8,paperback,NA,218,5.090909091,1863,0.914778388,219,BOI,-,-,Please name all of the ways you could use this object. Keep in mind that one object can have many uses. Separate your responses with a comma.,NA,y,43222,NA,NA,37600,42334,NA,NA,NA,"studying, reading, writing",1
10125281KT,zi52hjzmn6,Affordance Norms_USM,1,15,2023-05-01T23:40:07+00:00,8.387578011,8,updated stim.csv,Version8.csv,Version 8,List 8,roll,NA,212,4.44,2187,0.118404242,213,BOI,-,-,Please name all of the ways you could use this object. Keep in mind that one object can have many uses. Separate your responses with a comma.,NA,y,8123,NA,NA,4268,7367,NA,NA,NA,"cooking, playing",1
10125281KT,zi52hjzmn6,Affordance Norms_USM,1,16,2023-05-01T23:40:14+00:00,7.162187099,8,updated stim.csv,Version8.csv,Version 8,List 8,stick,NA,228,6.16,2535,0.473992945,229,BOI,-,-,Please name all of the ways you could use this object. Keep in mind that one object can have many uses. Separate your responses with a comma.,NA,y,6962,NA,NA,1307,4006,NA,NA,NA,"throwing, sticking",1
10125281KT,zi52hjzmn6,Affordance Norms_USM,1,17,2023-05-01T23:40:20+00:00,5.635588884,8,updated stim.csv,Version8.csv,Version 8,List 8,beef,NA,217,5.714285714,189,0.160382134,218,BOI,-,-,Please name all of the ways you could use this object. Keep in mind that one object can have many uses. Separate your responses with a comma.,NA,y,5329,NA,NA,1127,3138,NA,NA,NA,"eat, cook",1
10125281KT,zi52hjzmn6,Affordance Norms_USM,1,18,2023-05-01T23:40:25+00:00,5.037504911,8,updated stim.csv,Version8.csv,Version 8,List 8,linoleum,NA,215,4.62962963,1519,0.262823842,216,BOI,-,-,Please name all of the ways you could use this object. Keep in mind that one object can have many uses. Separate your responses with a comma.,NA,y,4777,NA,NA,3012,3908,NA,NA,NA,object,1
10125281KT,zi52hjzmn6,Affordance Norms_USM,1,19,2023-05-01T23:40:43+00:00,17.81937313,8,updated stim.csv,Version8.csv,Version 8,List 8,hoe,NA,233,5.545454545,1294,0.814565241,234,BOI,-,-,Please name all of the ways you could use this object. Keep in mind that one object can have many uses. Separate your responses with a comma.,NA,y,17419,NA,NA,15778,17204,NA,NA,NA,gardening,1
10125281KT,zi52hjzmn6,Affordance Norms_USM,1,20,2023-05-01T23:40:57+00:00,14.35160589,8,updated stim.csv,Version8.csv,Version 8,List 8,accordion,NA,227,5.826086957,5,0.076040939,228,BOI,-,-,Please name all of the ways you could use this object. Keep in mind that one object can have many uses. Separate your responses with a comma.,NA,y,14171,NA,NA,2038,13326,NA,NA,NA,coming together,1
10125281KT,zi52hjzmn6,Affordance Norms_USM,1,21,2023-05-01T23:41:05+00:00,7.77644515,8,updated stim.csv,Version8.csv,Version 8,List 8,seating,NA,214,4.84,2302,0.90340916,215,BOI,-,-,Please name all of the ways you could use this object. Keep in mind that one object can have many uses. Separate your responses with a comma.,NA,y,7599,NA,NA,5347,7428,NA,NA,NA,organizing,1
10125281KT,zi52hjzmn6,Affordance Norms_USM,1,22,2023-05-01T23:41:27+00:00,21.99225998,8,updated stim.csv,Version8.csv,Version 8,List 8,torchlight,NA,219,4.64,2738,0.501435614,220,BOI,-,-,Please name all of the ways you could use this object. Keep in mind that one object can have many uses. Separate your responses with a comma.,NA,y,21806,NA,NA,2604,21125,NA,NA,NA,viewing,1
10125281KT,zi52hjzmn6,Affordance Norms_USM,1,23,2023-05-01T23:41:39+00:00,11.97041702,8,updated stim.csv,Version8.csv,Version 8,List 8,body,NA,234,6.038461538,260,0.738290174,235,BOI,-,-,Please name all of the ways you could use this object. Keep in mind that one object can have many uses. Separate your responses with a comma.,NA,y,11793,NA,NA,6837,11357,NA,NA,NA,"cleaning, eating, playing",1
10125281KT,zi52hjzmn6,Affordance Norms_USM,1,24,2023-05-01T23:41:47+00:00,8.024494886,8,updated stim.csv,Version8.csv,Version 8,List 8,plum,NA,238,5.62962963,2010,0.625895758,239,BOI,-,-,Please name all of the ways you could use this object. Keep in mind that one object can have many uses. Separate your responses with a comma.,NA,y,7801,NA,NA,1081,7600,NA,NA,NA,"eating, picking",1
10125281KT,zi52hjzmn6,Affordance Norms_USM,1,25,2023-05-01T23:41:55+00:00,7.808346987,8,updated stim.csv,Version8.csv,Version 8,List 8,shelter,NA,236,5.269230769,2335,0.866817871,237,BOI,-,-,Please name all of the ways you could use this object. Keep in mind that one object can have many uses. Separate your responses with a comma.,NA,y,7623,NA,NA,1573,7031,NA,NA,NA,"covering, hiding, protecting",1
10125281KT,zi52hjzmn6,Affordance Norms_USM,1,26,2023-05-01T23:42:02+00:00,7.083984137,8,updated stim.csv,Version8.csv,Version 8,List 8,arrow,NA,213,4.92,76,0.32863745,214,BOI,-,-,Please name all of the ways you could use this object. Keep in mind that one object can have many uses. Separate your responses with a comma.,NA,y,6903,NA,NA,2622,5989,NA,NA,NA,"pointing, directing",1
10125281KT,zi52hjzmn6,Affordance Norms_USM,1,27,2023-05-01T23:42:08+00:00,6.208009005,8,updated stim.csv,Version8.csv,Version 8,List 8,motel,NA,221,4.48,1689,0.151002659,222,BOI,-,-,Please name all of the ways you could use this object. Keep in mind that one object can have many uses. Separate your responses with a comma.,NA,y,6011,NA,NA,1142,5129,NA,NA,NA,"staying, chaperoning",1
10125281KT,zi52hjzmn6,Affordance Norms_USM,1,28,2023-05-01T23:42:35+00:00,27.55613899,8,updated stim.csv,Version8.csv,Version 8,List 8,case,NA,232,4.272727273,445,0.110016369,233,BOI,-,-,Please name all of the ways you could use this object. Keep in mind that one object can have many uses. Separate your responses with a comma.,NA,y,27375,NA,NA,25988,27057,NA,NA,NA,covering,0.88
10125281KT,zi52hjzmn6,Affordance Norms_USM,1,29,2023-05-01T23:42:41+00:00,6.014394045,8,updated stim.csv,Version8.csv,Version 8,List 8,eggplant,NA,225,5.807692308,894,0.26688468,226,BOI,-,-,Please name all of the ways you could use this object. Keep in mind that one object can have many uses. Separate your responses with a comma.,NA,y,5836,NA,NA,1365,5644,NA,NA,NA,"eating, picking",1
10125281KT,zi52hjzmn6,Affordance Norms_USM,1,30,2023-05-01T23:42:45+00:00,3.823058844,8,updated stim.csv,Version8.csv,Version 8,List 8,avocado,NA,220,6.24137931,103,0.11835624,221,BOI,-,-,Please name all of the ways you could use this object. Keep in mind that one object can have many uses. Separate your responses with a comma.,NA,y,3650,NA,NA,1076,3501,NA,NA,NA,"eating, picking",1
10125281KT,zi52hjzmn6,Affordance Norms_USM,1,31,2023-05-01T23:42:51+00:00,5.907730103,8,updated stim.csv,Version8.csv,Version 8,List 8,pantry,NA,216,5.260869565,1860,0.771460967,217,BOI,-,-,Please name all of the ways you could use this object. Keep in mind that one object can have many uses. Separate your responses with a comma.,NA,y,5727,NA,NA,1055,5598,NA,NA,NA,"storing, covering, hiding",1
10125281KT,zi52hjzmn6,Affordance Norms_USM,1,32,2023-05-01T23:42:54+00:00,2.914701939,8,updated stim.csv,Version8.csv,Version 8,List 8,strongbox,NA,223,4.454545455,2571,0.678876617,224,BOI,-,-,Please name all of the ways you could use this object. Keep in mind that one object can have many uses. Separate your responses with a comma.,NA,y,2732,NA,NA,1556,2504,NA,NA,NA,keeping,1
10125281KT,zi52hjzmn6,Affordance Norms_USM,1,33,2023-05-01T23:42:57+00:00,2.557688951,8,updated stim.csv,Version8.csv,Version 8,List 8,tailcoat,NA,240,5.47826087,2624,0.573904042,241,BOI,-,-,Please name all of the ways you could use this object. Keep in mind that one object can have many uses. Separate your responses with a comma.,NA,y,2380,NA,NA,1297,2217,NA,NA,NA,covering,1
10125281KT,zi52hjzmn6,Affordance Norms_USM,1,34,2023-05-01T23:43:01+00:00,4.498384953,8,updated stim.csv,Version8.csv,Version 8,List 8,excavator,NA,224,4.409090909,925,0.140617165,225,BOI,-,-,Please name all of the ways you could use this object. Keep in mind that one object can have many uses. Separate your responses with a comma.,NA,y,4313,NA,NA,3092,4172,NA,NA,NA,killing,1
10125281KT,zi52hjzmn6,Affordance Norms_USM,1,35,2023-05-01T23:43:07+00:00,6.168246031,8,updated stim.csv,Version8.csv,Version 8,List 8,fruit,NA,230,6,1060,0.931705867,231,BOI,-,-,Please name all of the ways you could use this object. Keep in mind that one object can have many uses. Separate your responses with a comma.,NA,y,5988,NA,NA,1408,5778,NA,NA,NA,"eating, storing, gardeing",1
10125281KT,zi52hjzmn6,Affordance Norms_USM,1,36,2023-05-01T23:43:18+00:00,11.02263999,8,updated stim.csv,Version8.csv,Version 8,List 8,illustrator,NA,229,4.48,1351,0.733873145,230,BOI,-,-,Please name all of the ways you could use this object. Keep in mind that one object can have many uses. Separate your responses with a comma.,NA,y,10849,NA,NA,1659,10545,NA,NA,NA,"drawing, writing, painting",1
10125281KT,zi52hjzmn6,Affordance Norms_USM,1,37,2023-05-01T23:43:21+00:00,2.576274157,8,updated stim.csv,Version8.csv,Version 8,List 8,ashcan,NA,237,4.571428571,82,0.707229995,238,BOI,-,-,Please name all of the ways you could use this object. Keep in mind that one object can have many uses. Separate your responses with a comma.,NA,y,2392,NA,NA,1274,2172,NA,NA,NA,storing,1
10125281KT,zi52hjzmn6,Affordance Norms_USM,1,38,2023-05-01T23:43:26+00:00,5.177769899,8,updated stim.csv,Version8.csv,Version 8,List 8,client,NA,231,4.545454545,558,0.033017559,232,BOI,-,-,Please name all of the ways you could use this object. Keep in mind that one object can have many uses. Separate your responses with a comma.,NA,y,4992,NA,NA,2010,4816,NA,NA,NA,participating,1
10125281KT,zi52hjzmn6,Affordance Norms_USM,1,39,2023-05-01T23:44:02+00:00,36.05669594,8,updated stim.csv,Version8.csv,Version 8,List 8,drug,NA,211,5.375,852,0.400751294,212,BOI,-,-,Please name all of the ways you could use this object. Keep in mind that one object can have many uses. Separate your responses with a comma.,NA,y,35849,NA,NA,31765,35608,NA,NA,NA,affecting something,1
10125281KT,zi52hjzmn6,Affordance Norms_USM,1,40,2023-05-01T23:44:05+00:00,2.368978977,8,updated stim.csv,Version8.csv,Version 8,List 8,matter,NA,235,4.4,1625,0.181387363,236,BOI,-,-,Please name all of the ways you could use this object. Keep in mind that one object can have many uses. Separate your responses with a comma.,NA,y,2192,NA,NA,1253,2022,NA,NA,NA,causing,1
10131468,810bl92o7a,Affordance Norms_USM,1,11,2023-03-09T23:35:40+00:00,18.35811687,100,updated stim.csv,Version100.csv,Version 100,List 100,guardrail,NA,2991,4.36,1186,0.020980927,2992,BOI,-,-,Please name all of the ways you could use this object. Keep in mind that one object can have many uses. Separate your responses with a comma.,NA,y,17897,NA,NA,15106,16717,NA,NA,NA,bedding ,0.719
10131468,810bl92o7a,Affordance Norms_USM,1,12,2023-03-09T23:36:23+00:00,42.99553108,100,updated stim.csv,Version100.csv,Version 100,List 100,topaz,NA,2992,4.642857143,2735,0.997478424,2993,BOI,-,-,Please name all of the ways you could use this object. Keep in mind that one object can have many uses. Separate your responses with a comma.,NA,y,42118,NA,NA,38282,41616,NA,NA,NA,"earrings, ring ",0.829
10131468,810bl92o7a,Affordance Norms_USM,1,13,2023-03-09T23:36:29+00:00,5.874852896,100,updated stim.csv,Version100.csv,Version 100,List 100,trampoline,NA,2994,5.88,2759,0.660595549,2995,BOI,-,-,Please name all of the ways you could use this object. Keep in mind that one object can have many uses. Separate your responses with a comma.,NA,y,5281,NA,NA,1875,3126,NA,NA,NA,jump ,1
10131468,810bl92o7a,Affordance Norms_USM,1,14,2023-03-09T23:36:58+00:00,29.3986752,100,updated stim.csv,Version100.csv,Version 100,List 100,respirator,NA,2995,4.923076923,2158,0.490217612,2996,BOI,-,-,Please name all of the ways you could use this object. Keep in mind that one object can have many uses. Separate your responses with a comma.,NA,y,29172,NA,NA,26351,27539,NA,NA,NA,gas mask,0.438
10131468,810bl92o7a,Affordance Norms_USM,1,15,2023-03-09T23:37:03+00:00,4.896987915,100,updated stim.csv,Version100.csv,Version 100,List 100,deck,NA,2988,5.541666667,763,0.401643692,2989,BOI,-,-,Please name all of the ways you could use this object. Keep in mind that one object can have many uses. Separate your responses with a comma.,NA,y,4686,NA,NA,1667,3380,NA,NA,NA,sit at it,1
10131468,810bl92o7a,Affordance Norms_USM,1,16,2023-03-09T23:37:16+00:00,12.72247791,100,updated stim.csv,Version100.csv,Version 100,List 100,fieldstone,NA,2990,4.761904762,971,0.517837285,2991,BOI,-,-,Please name all of the ways you could use this object. Keep in mind that one object can have many uses. Separate your responses with a comma.,NA,y,12062,NA,NA,9059,10385,NA,NA,NA,field ,0.918
10131468,810bl92o7a,Affordance Norms_USM,1,17,2023-03-09T23:37:40+00:00,24.06546497,100,updated stim.csv,Version100.csv,Version 100,List 100,marketeer,NA,2989,4.5,1608,0.440459181,2990,BOI,-,-,Please name all of the ways you could use this object. Keep in mind that one object can have many uses. Separate your responses with a comma.,NA,y,23870,NA,NA,20668,22635,NA,NA,NA,sells goods ,0.513
10131468,810bl92o7a,Affordance Norms_USM,1,18,2023-03-09T23:37:45+00:00,4.81498313,100,updated stim.csv,Version100.csv,Version 100,List 100,brow,NA,2998,4.416666667,336,0.275656791,2999,BOI,-,-,Please name all of the ways you could use this object. Keep in mind that one object can have many uses. Separate your responses with a comma.,NA,y,4632,NA,NA,3065,3611,NA,NA,NA,brush,1
10131468,810bl92o7a,Affordance Norms_USM,1,19,2023-03-09T23:37:49+00:00,4.434937,100,updated stim.csv,Version100.csv,Version 100,List 100,pulley,NA,2973,5.208333333,2092,0.333814216,2974,BOI,-,-,Please name all of the ways you could use this object. Keep in mind that one object can have many uses. Separate your responses with a comma.,NA,y,4227,NA,NA,1436,2499,NA,NA,NA,pull ,1
10131468,810bl92o7a,Affordance Norms_USM,1,20,2023-03-09T23:38:03+00:00,13.11472893,100,updated stim.csv,Version100.csv,Version 100,List 100,bowling,NA,2980,5,293,0.377094601,2981,BOI,-,-,Please name all of the ways you could use this object. Keep in mind that one object can have many uses. Separate your responses with a comma.,NA,y,12288,NA,NA,10012,10755,NA,NA,NA,ball,1
10131468,810bl92o7a,Affordance Norms_USM,1,21,2023-03-09T23:38:08+00:00,5.15477109,100,updated stim.csv,Version100.csv,Version 100,List 100,waist,NA,2997,6.458333333,1117,0.193631458,2998,BOI,-,-,Please name all of the ways you could use this object. Keep in mind that one object can have many uses. Separate your responses with a comma.,NA,y,4328,NA,NA,2351,3076,NA,NA,NA,twist,1
10131468,810bl92o7a,Affordance Norms_USM,1,22,2023-03-09T23:38:24+00:00,15.894315,100,updated stim.csv,Version100.csv,Version 100,List 100,centipede,NA,2986,5.25,478,0.361563673,2987,BOI,-,-,Please name all of the ways you could use this object. Keep in mind that one object can have many uses. Separate your responses with a comma.,NA,y,7139,NA,NA,4995,5570,NA,NA,NA,eat,1
10131468,810bl92o7a,Affordance Norms_USM,1,23,2023-03-09T23:38:30+00:00,6.271864891,100,updated stim.csv,Version100.csv,Version 100,List 100,waffle,NA,2983,6.173913043,2878,0.966588305,2984,BOI,-,-,Please name all of the ways you could use this object. Keep in mind that one object can have many uses. Separate your responses with a comma.,NA,y,6042,NA,NA,2190,4798,NA,NA,NA,"eat, make it ",1
10131468,810bl92o7a,Affordance Norms_USM,1,24,2023-03-09T23:38:36+00:00,6.401179075,100,updated stim.csv,Version100.csv,Version 100,List 100,knickers,NA,2977,5.5,1435,0.06671173,2978,BOI,-,-,Please name all of the ways you could use this object. Keep in mind that one object can have many uses. Separate your responses with a comma.,NA,y,6098,NA,NA,2108,4720,NA,NA,NA,knock,1
10131468,810bl92o7a,Affordance Norms_USM,1,25,2023-03-09T23:38:42+00:00,6.051241875,100,updated stim.csv,Version100.csv,Version 100,List 100,tee,NA,2984,5.347826087,2656,0.439440456,2985,BOI,-,-,Please name all of the ways you could use this object. Keep in mind that one object can have many uses. Separate your responses with a comma.,NA,y,5856,NA,NA,2343,4592,NA,NA,NA,wear it ,1
10131468,810bl92o7a,Affordance Norms_USM,1,26,2023-03-09T23:38:52+00:00,9.615671158,100,updated stim.csv,Version100.csv,Version 100,List 100,dye,NA,2972,4.52173913,873,0.952729296,2973,BOI,-,-,Please name all of the ways you could use this object. Keep in mind that one object can have many uses. Separate your responses with a comma.,NA,y,9417,NA,NA,3193,8164,NA,NA,NA,hair color ,1
10131468,810bl92o7a,Affordance Norms_USM,1,27,2023-03-09T23:38:59+00:00,6.669889927,100,updated stim.csv,Version100.csv,Version 100,List 100,blowgun,NA,2985,4.625,246,0.815635977,2986,BOI,-,-,Please name all of the ways you could use this object. Keep in mind that one object can have many uses. Separate your responses with a comma.,NA,y,6465,NA,NA,1856,5592,NA,NA,NA,"shoot,blow",1
10131468,810bl92o7a,Affordance Norms_USM,1,29,2023-03-09T23:39:10+00:00,5.542123079,100,updated stim.csv,Version100.csv,Version 100,List 100,earplugs,NA,2996,6.541666667,880,0.170981049,2997,BOI,-,-,Please name all of the ways you could use this object. Keep in mind that one object can have many uses. Separate your responses with a comma.,NA,y,5328,NA,NA,2665,4260,NA,NA,NA,wear,1
10131468,810bl92o7a,Affordance Norms_USM,1,30,2023-03-09T23:39:15+00:00,5.666067839,100,updated stim.csv,Version100.csv,Version 100,List 100,breadboard,NA,2987,5.44,310,0.496866856,2988,BOI,-,-,Please name all of the ways you could use this object. Keep in mind that one object can have many uses. Separate your responses with a comma.,NA,y,5484,NA,NA,2906,4391,NA,NA,NA,eat,1
10131468,810bl92o7a,Affordance Norms_USM,1,31,2023-03-09T23:39:21+00:00,5.417639017,100,updated stim.csv,Version100.csv,Version 100,List 100,badminton,NA,2999,4.92,120,0.95175255,3000,BOI,-,-,Please name all of the ways you could use this object. Keep in mind that one object can have many uses. Separate your responses with a comma.,NA,y,5210,NA,NA,3447,4008,NA,NA,NA,play,1
10131468,810bl92o7a,Affordance Norms_USM,1,32,2023-03-09T23:39:29+00:00,8.306234121,100,updated stim.csv,Version100.csv,Version 100,List 100,debris,NA,2971,4.75,762,0.012673773,2972,BOI,-,-,Please name all of the ways you could use this object. Keep in mind that one object can have many uses. Separate your responses with a comma.,NA,y,8095,NA,NA,2682,5299,NA,NA,NA,wipe off,1
10131468,810bl92o7a,Affordance Norms_USM,1,33,2023-03-09T23:39:34+00:00,5.253138065,100,updated stim.csv,Version100.csv,Version 100,List 100,school,NA,2979,5.16,2269,0.316817228,2980,BOI,-,-,Please name all of the ways you could use this object. Keep in mind that one object can have many uses. Separate your responses with a comma.,NA,y,5065,NA,NA,2773,3115,NA,NA,NA,go ,1
10131468,810bl92o7a,Affordance Norms_USM,1,34,2023-03-09T23:39:41+00:00,6.936851978,100,updated stim.csv,Version100.csv,Version 100,List 100,greenhouse,NA,2975,5.260869565,1171,0.395588172,2976,BOI,-,-,Please name all of the ways you could use this object. Keep in mind that one object can have many uses. Separate your responses with a comma.,NA,y,6497,NA,NA,2192,5310,NA,NA,NA,plants ,1
10131468,810bl92o7a,Affordance Norms_USM,1,35,2023-03-09T23:39:51+00:00,9.446208,100,updated stim.csv,Version100.csv,Version 100,List 100,dish,NA,2981,5.8,802,0.35675411,2982,BOI,-,-,Please name all of the ways you could use this object. Keep in mind that one object can have many uses. Separate your responses with a comma.,NA,y,8585,NA,NA,2204,7080,NA,NA,NA,eat off off,1
10131468,810bl92o7a,Affordance Norms_USM,1,36,2023-03-09T23:39:58+00:00,7.215359926,100,updated stim.csv,Version100.csv,Version 100,List 100,hound,NA,2974,4.962962963,1324,0.921503251,2975,BOI,-,-,Please name all of the ways you could use this object. Keep in mind that one object can have many uses. Separate your responses with a comma.,NA,y,6608,NA,NA,4947,5205,NA,NA,NA,dog,1
10131468,810bl92o7a,Affordance Norms_USM,1,37,2023-03-09T23:40:04+00:00,6.060183048,100,updated stim.csv,Version100.csv,Version 100,List 100,wrist,NA,2993,6.291666667,2982,0.064872608,2994,BOI,-,-,Please name all of the ways you could use this object. Keep in mind that one object can have many uses. Separate your responses with a comma.,NA,y,5349,NA,NA,1776,4186,NA,NA,NA,twist,1
10131468,810bl92o7a,Affordance Norms_USM,1,38,2023-03-09T23:40:08+00:00,3.755241871,100,updated stim.csv,Version100.csv,Version 100,List 100,wallboard,NA,2978,4.64,2887,0.494540405,2979,BOI,-,-,Please name all of the ways you could use this object. Keep in mind that one object can have many uses. Separate your responses with a comma.,NA,y,3546,NA,NA,1385,2125,NA,NA,NA,write,1
