Username,ID,Trial,Question,Type,RT,Response
j00670955,acfj4mex3w,1,"Did the experiment go smoothly or were there problems? (Note: Your compensation will not depend on your answer below, so please be honest.)!!!",Radio,2364,Smooth
j00670955,acfj4mex3w,2,"Have you participated in this experiment (or another experiment using the same learning materials) before?",Radio,4176,Naive
j00670955,acfj4mex3w,3,"How much fun was this experiment? <p>1 being very fun -- 7 being the MOST FUN EVER</p>",Likert,3054,7
j00670955,acfj4mex3w,4,"Were you doing anything else while this experiment was going on? You will get credit no matter how you respond here.",Text,6704,no
j00670955,acfj4mex3w,5,"Which of the following problems did you have?",Checkbox,6867,none
J00721876_ago,nd32o4rgm8,1,"Did the experiment go smoothly or were there problems? (Note: Your compensation will not depend on your answer below, so please be honest.)!!!",Radio,3975,Smooth
J00721876_ago,nd32o4rgm8,2,"Have you participated in this experiment (or another experiment using the same learning materials) before?",Radio,4175,Naive
J00721876_ago,nd32o4rgm8,3,"How much fun was this experiment? <p>1 being very fun -- 7 being the MOST FUN EVER</p>",Likert,4372,7
J00721876_ago,nd32o4rgm8,4,"Were you doing anything else while this experiment was going on? You will get credit no matter how you respond here.",Text,6410,No
J00721876_ago,nd32o4rgm8,5,"Which of the following problems did you have?",Checkbox,3921,none
J00709304_CJP,t0uel0fps6,1,"Did the experiment go smoothly or were there problems? (Note: Your compensation will not depend on your answer below, so please be honest.)!!!",Radio,9082,Smooth
J00709304_CJP,t0uel0fps6,2,"Have you participated in this experiment (or another experiment using the same learning materials) before?",Radio,5410,Naive
J00709304_CJP,t0uel0fps6,3,"How much fun was this experiment? <p>1 being very fun -- 7 being the MOST FUN EVER</p>",Likert,3165,5
J00709304_CJP,t0uel0fps6,4,"Were you doing anything else while this experiment was going on? You will get credit no matter how you respond here.",Text,6251,No
J00709304_CJP,t0uel0fps6,5,"Which of the following problems did you have?",Checkbox,7376,none
J00715408sgr,n7czfm84af,1,"Did the experiment go smoothly or were there problems? (Note: Your compensation will not depend on your answer below, so please be honest.)!!!",Radio,4692,Smooth
J00715408sgr,n7czfm84af,2,"Have you participated in this experiment (or another experiment using the same learning materials) before?",Radio,3729,Naive
J00715408sgr,n7czfm84af,3,"How much fun was this experiment? <p>1 being very fun -- 7 being the MOST FUN EVER</p>",Likert,8547,4
J00715408sgr,n7czfm84af,4,"Were you doing anything else while this experiment was going on? You will get credit no matter how you respond here.",Text,7945,no
J00715408sgr,n7czfm84af,5,"Which of the following problems did you have?",Checkbox,3800,none
J00716950ML,ojx7qxvzxc,1,"Did the experiment go smoothly or were there problems? (Note: Your compensation will not depend on your answer below, so please be honest.)!!!",Radio,34444,Smooth
J00716950ML,ojx7qxvzxc,2,"Have you participated in this experiment (or another experiment using the same learning materials) before?",Radio,7723,Naive
J00716950ML,ojx7qxvzxc,3,"How much fun was this experiment? <p>1 being very fun -- 7 being the MOST FUN EVER</p>",Likert,6745,3
J00716950ML,ojx7qxvzxc,4,"Were you doing anything else while this experiment was going on? You will get credit no matter how you respond here.",Text,11284,"yes, i was sketching "
J00716950ML,ojx7qxvzxc,5,"Which of the following problems did you have?",Checkbox,5066,none
J00709146VLW,mj6ts8jq6r,1,"Did the experiment go smoothly or were there problems? (Note: Your compensation will not depend on your answer below, so please be honest.)!!!",Radio,9017,Smooth
J00709146VLW,mj6ts8jq6r,2,"Have you participated in this experiment (or another experiment using the same learning materials) before?",Radio,5532,Naive
J00709146VLW,mj6ts8jq6r,3,"How much fun was this experiment? <p>1 being very fun -- 7 being the MOST FUN EVER</p>",Likert,4027,4
J00709146VLW,mj6ts8jq6r,4,"Were you doing anything else while this experiment was going on? You will get credit no matter how you respond here.",Text,5536,"in class"
J00709146VLW,mj6ts8jq6r,5,"Which of the following problems did you have?",Checkbox,5353,none
J00706165CBC,xeza5t6hzo,1,"Did the experiment go smoothly or were there problems? (Note: Your compensation will not depend on your answer below, so please be honest.)!!!",Radio,4017,Smooth
J00706165CBC,xeza5t6hzo,2,"Have you participated in this experiment (or another experiment using the same learning materials) before?",Radio,2529,Naive
J00706165CBC,xeza5t6hzo,3,"How much fun was this experiment? <p>1 being very fun -- 7 being the MOST FUN EVER</p>",Likert,7873,4
J00706165CBC,xeza5t6hzo,4,"Were you doing anything else while this experiment was going on? You will get credit no matter how you respond here.",Text,3806,no
J00706165CBC,xeza5t6hzo,5,"Which of the following problems did you have?",Checkbox,4104,none
J00716231_tra,b1oay82kwa,1,"Did the experiment go smoothly or were there problems? (Note: Your compensation will not depend on your answer below, so please be honest.)!!!",Radio,6856,Smooth
J00716231_tra,b1oay82kwa,2,"Have you participated in this experiment (or another experiment using the same learning materials) before?",Radio,9611,Naive
J00716231_tra,b1oay82kwa,3,"How much fun was this experiment? <p>1 being very fun -- 7 being the MOST FUN EVER</p>",Likert,5532,3
J00716231_tra,b1oay82kwa,4,"Were you doing anything else while this experiment was going on? You will get credit no matter how you respond here.",Text,20623,"listening to a lecture"
J00716231_tra,b1oay82kwa,5,"Which of the following problems did you have?",Checkbox,6188,none
J00715603_cmh,qmbcivt7q1,1,"Did the experiment go smoothly or were there problems? (Note: Your compensation will not depend on your answer below, so please be honest.)!!!",Radio,5076,Smooth
J00715603_cmh,qmbcivt7q1,2,"Have you participated in this experiment (or another experiment using the same learning materials) before?",Radio,6963,Naive
J00715603_cmh,qmbcivt7q1,3,"How much fun was this experiment? <p>1 being very fun -- 7 being the MOST FUN EVER</p>",Likert,12926,7
J00715603_cmh,qmbcivt7q1,4,"Were you doing anything else while this experiment was going on? You will get credit no matter how you respond here.",Text,8947,no
J00715603_cmh,qmbcivt7q1,5,"Which of the following problems did you have?",Checkbox,5380,none
J00656083_acs,5xfkktlb5o,1,"Did the experiment go smoothly or were there problems? (Note: Your compensation will not depend on your answer below, so please be honest.)!!!",Radio,9816,Smooth
J00656083_acs,5xfkktlb5o,2,"Have you participated in this experiment (or another experiment using the same learning materials) before?",Radio,6139,DoneItBefore
J00656083_acs,5xfkktlb5o,3,"How much fun was this experiment? <p>1 being very fun -- 7 being the MOST FUN EVER</p>",Likert,3397,4
J00656083_acs,5xfkktlb5o,4,"Were you doing anything else while this experiment was going on? You will get credit no matter how you respond here.",Text,6953,"Nope, just it"
J00656083_acs,5xfkktlb5o,5,"Which of the following problems did you have?",Checkbox,7869,none
J00713089,d3vg74zy3x,1,"Did the experiment go smoothly or were there problems? (Note: Your compensation will not depend on your answer below, so please be honest.)!!!",Radio,5211,Smooth
J00713089,d3vg74zy3x,2,"Have you participated in this experiment (or another experiment using the same learning materials) before?",Radio,5716,Naive
J00713089,d3vg74zy3x,3,"How much fun was this experiment? <p>1 being very fun -- 7 being the MOST FUN EVER</p>",Likert,14562,5
J00713089,d3vg74zy3x,4,"Were you doing anything else while this experiment was going on? You will get credit no matter how you respond here.",Text,29078,"I was brainstorming with a friend"
J00713089,d3vg74zy3x,5,"Which of the following problems did you have?",Checkbox,16837,none
j00710885_daw,7fc8cak5z8,1,"Did the experiment go smoothly or were there problems? (Note: Your compensation will not depend on your answer below, so please be honest.)!!!",Radio,9213,Smooth
j00710885_daw,7fc8cak5z8,2,"Have you participated in this experiment (or another experiment using the same learning materials) before?",Radio,5445,Naive
j00710885_daw,7fc8cak5z8,3,"How much fun was this experiment? <p>1 being very fun -- 7 being the MOST FUN EVER</p>",Likert,5884,6
j00710885_daw,7fc8cak5z8,4,"Were you doing anything else while this experiment was going on? You will get credit no matter how you respond here.",Text,8098,no
j00710885_daw,7fc8cak5z8,5,"Which of the following problems did you have?",Checkbox,7445,none
J00706801TB,gmlsy5spcs,1,"Did the experiment go smoothly or were there problems? (Note: Your compensation will not depend on your answer below, so please be honest.)!!!",Radio,3083,Smooth
J00706801TB,gmlsy5spcs,2,"Have you participated in this experiment (or another experiment using the same learning materials) before?",Radio,2591,Naive
J00706801TB,gmlsy5spcs,3,"How much fun was this experiment? <p>1 being very fun -- 7 being the MOST FUN EVER</p>",Likert,2277,1
J00706801TB,gmlsy5spcs,4,"Were you doing anything else while this experiment was going on? You will get credit no matter how you respond here.",Text,1905,
J00706801TB,gmlsy5spcs,5,"Which of the following problems did you have?",Checkbox,3556,reload
J00714995_LLT,tuv18tsjam,1,"Did the experiment go smoothly or were there problems? (Note: Your compensation will not depend on your answer below, so please be honest.)!!!",Radio,11828,Smooth
J00714995_LLT,tuv18tsjam,2,"Have you participated in this experiment (or another experiment using the same learning materials) before?",Radio,5667,Naive
J00714995_LLT,tuv18tsjam,3,"How much fun was this experiment? <p>1 being very fun -- 7 being the MOST FUN EVER</p>",Likert,5980,4
J00714995_LLT,tuv18tsjam,4,"Were you doing anything else while this experiment was going on? You will get credit no matter how you respond here.",Text,17918,"tv was playing but my focus was on the experiment"
J00714995_LLT,tuv18tsjam,5,"Which of the following problems did you have?",Checkbox,8845,none
J00693214_msk,hybcxdgiyw,1,"Did the experiment go smoothly or were there problems? (Note: Your compensation will not depend on your answer below, so please be honest.)!!!",Radio,8554,MinorBumps
J00693214_msk,hybcxdgiyw,2,"Have you participated in this experiment (or another experiment using the same learning materials) before?",Radio,4772,Naive
J00693214_msk,hybcxdgiyw,3,"How much fun was this experiment? <p>1 being very fun -- 7 being the MOST FUN EVER</p>",Likert,12253,5
J00693214_msk,hybcxdgiyw,4,"Were you doing anything else while this experiment was going on? You will get credit no matter how you respond here.",Text,18407,no
J00693214_msk,hybcxdgiyw,5,"Which of the following problems did you have?",Checkbox,7935,none
J00719933KK,ld6k7bg0mi,1,"Did the experiment go smoothly or were there problems? (Note: Your compensation will not depend on your answer below, so please be honest.)!!!",Radio,2988,Smooth
J00719933KK,ld6k7bg0mi,2,"Have you participated in this experiment (or another experiment using the same learning materials) before?",Radio,3415,Naive
J00719933KK,ld6k7bg0mi,3,"How much fun was this experiment? <p>1 being very fun -- 7 being the MOST FUN EVER</p>",Likert,6839,5
J00719933KK,ld6k7bg0mi,4,"Were you doing anything else while this experiment was going on? You will get credit no matter how you respond here.",Text,7609,no
J00719933KK,ld6k7bg0mi,5,"Which of the following problems did you have?",Checkbox,20150,none
J00705819_aeh,m8m6stagld,1,"Did the experiment go smoothly or were there problems? (Note: Your compensation will not depend on your answer below, so please be honest.)!!!",Radio,2952,Smooth
J00705819_aeh,m8m6stagld,2,"Have you participated in this experiment (or another experiment using the same learning materials) before?",Radio,5696,Naive
J00705819_aeh,m8m6stagld,3,"How much fun was this experiment? <p>1 being very fun -- 7 being the MOST FUN EVER</p>",Likert,6262,3
J00705819_aeh,m8m6stagld,4,"Were you doing anything else while this experiment was going on? You will get credit no matter how you respond here.",Text,4420,No
J00705819_aeh,m8m6stagld,5,"Which of the following problems did you have?",Checkbox,4504,none
J00691273ARB,mg305811wp,1,"Did the experiment go smoothly or were there problems? (Note: Your compensation will not depend on your answer below, so please be honest.)!!!",Radio,12935,MinorBumps
J00691273ARB,mg305811wp,2,"Have you participated in this experiment (or another experiment using the same learning materials) before?",Radio,5553,Naive
J00691273ARB,mg305811wp,3,"How much fun was this experiment? <p>1 being very fun -- 7 being the MOST FUN EVER</p>",Likert,6804,4
J00691273ARB,mg305811wp,4,"Were you doing anything else while this experiment was going on? You will get credit no matter how you respond here.",Text,10135,no
J00691273ARB,mg305811wp,5,"Which of the following problems did you have?",Checkbox,7762,"internet connectivity problems"
j00712704hp,7za5lo38wi,1,"Did the experiment go smoothly or were there problems? (Note: Your compensation will not depend on your answer below, so please be honest.)!!!",Radio,2972,Smooth
j00712704hp,7za5lo38wi,2,"Have you participated in this experiment (or another experiment using the same learning materials) before?",Radio,7548,Naive
j00712704hp,7za5lo38wi,3,"How much fun was this experiment? <p>1 being very fun -- 7 being the MOST FUN EVER</p>",Likert,13492,4
j00712704hp,7za5lo38wi,4,"Were you doing anything else while this experiment was going on? You will get credit no matter how you respond here.",Text,14753,"I was sitting in class "
j00712704hp,7za5lo38wi,5,"Which of the following problems did you have?",Checkbox,7764,none
J00709713_MT,r0x364u4ka,1,"Did the experiment go smoothly or were there problems? (Note: Your compensation will not depend on your answer below, so please be honest.)!!!",Radio,9825,Smooth
J00709713_MT,r0x364u4ka,2,"Have you participated in this experiment (or another experiment using the same learning materials) before?",Radio,3718,Naive
J00709713_MT,r0x364u4ka,3,"How much fun was this experiment? <p>1 being very fun -- 7 being the MOST FUN EVER</p>",Likert,5366,5
J00709713_MT,r0x364u4ka,4,"Were you doing anything else while this experiment was going on? You will get credit no matter how you respond here.",Text,11900,nope
J00709713_MT,r0x364u4ka,5,"Which of the following problems did you have?",Checkbox,6011,none
J00703371_crw,tvk919k779,1,"Did the experiment go smoothly or were there problems? (Note: Your compensation will not depend on your answer below, so please be honest.)!!!",Radio,11479,Smooth
J00703371_crw,tvk919k779,2,"Have you participated in this experiment (or another experiment using the same learning materials) before?",Radio,5550,Naive
J00703371_crw,tvk919k779,3,"How much fun was this experiment? <p>1 being very fun -- 7 being the MOST FUN EVER</p>",Likert,4269,5
J00703371_crw,tvk919k779,4,"Were you doing anything else while this experiment was going on? You will get credit no matter how you respond here.",Text,13961,no
J00703371_crw,tvk919k779,5,"Which of the following problems did you have?",Checkbox,7497,none
J00706812VS,lpmoxey0b7,1,"Did the experiment go smoothly or were there problems? (Note: Your compensation will not depend on your answer below, so please be honest.)!!!",Radio,4289,Smooth
J00706812VS,lpmoxey0b7,2,"Have you participated in this experiment (or another experiment using the same learning materials) before?",Radio,5337,Naive
J00706812VS,lpmoxey0b7,3,"How much fun was this experiment? <p>1 being very fun -- 7 being the MOST FUN EVER</p>",Likert,6845,1
J00706812VS,lpmoxey0b7,4,"Were you doing anything else while this experiment was going on? You will get credit no matter how you respond here.",Text,4662,No
J00706812VS,lpmoxey0b7,5,"Which of the following problems did you have?",Checkbox,6107,none
J00718929_smg,19ueinftj8,1,"Did the experiment go smoothly or were there problems? (Note: Your compensation will not depend on your answer below, so please be honest.)!!!",Radio,7645,Smooth
J00718929_smg,19ueinftj8,2,"Have you participated in this experiment (or another experiment using the same learning materials) before?",Radio,7187,Naive
J00718929_smg,19ueinftj8,3,"How much fun was this experiment? <p>1 being very fun -- 7 being the MOST FUN EVER</p>",Likert,19503,4
J00718929_smg,19ueinftj8,4,"Were you doing anything else while this experiment was going on? You will get credit no matter how you respond here.",Text,19478,No
J00718929_smg,19ueinftj8,5,"Which of the following problems did you have?",Checkbox,9809,none
J00691416,235l7y9yd3,1,"Did the experiment go smoothly or were there problems? (Note: Your compensation will not depend on your answer below, so please be honest.)!!!",Radio,6014,Smooth
J00691416,235l7y9yd3,2,"Have you participated in this experiment (or another experiment using the same learning materials) before?",Radio,6384,Naive
J00691416,235l7y9yd3,3,"How much fun was this experiment? <p>1 being very fun -- 7 being the MOST FUN EVER</p>",Likert,4876,6
J00691416,235l7y9yd3,4,"Were you doing anything else while this experiment was going on? You will get credit no matter how you respond here.",Text,6957,n/a
J00691416,235l7y9yd3,5,"Which of the following problems did you have?",Checkbox,5715,none
J00707319EKD,km198e18ro,1,"Did the experiment go smoothly or were there problems? (Note: Your compensation will not depend on your answer below, so please be honest.)!!!",Radio,2535,Smooth
J00707319EKD,km198e18ro,2,"Have you participated in this experiment (or another experiment using the same learning materials) before?",Radio,4119,Naive
J00707319EKD,km198e18ro,3,"How much fun was this experiment? <p>1 being very fun -- 7 being the MOST FUN EVER</p>",Likert,6414,2
J00707319EKD,km198e18ro,4,"Were you doing anything else while this experiment was going on? You will get credit no matter how you respond here.",Text,16525,"I had nothing else going on. "
J00707319EKD,km198e18ro,5,"Which of the following problems did you have?",Checkbox,5058,none
J00688716_taf,mwulznqdi5,1,"Did the experiment go smoothly or were there problems? (Note: Your compensation will not depend on your answer below, so please be honest.)!!!",Radio,6755,Smooth
J00688716_taf,mwulznqdi5,2,"Have you participated in this experiment (or another experiment using the same learning materials) before?",Radio,7902,Naive
J00688716_taf,mwulznqdi5,3,"How much fun was this experiment? <p>1 being very fun -- 7 being the MOST FUN EVER</p>",Likert,4016,3
J00688716_taf,mwulznqdi5,4,"Were you doing anything else while this experiment was going on? You will get credit no matter how you respond here.",Text,5050,no
J00688716_taf,mwulznqdi5,5,"Which of the following problems did you have?",Checkbox,5568,none
J00719196_irr,p39qfq0wsp,1,"Did the experiment go smoothly or were there problems? (Note: Your compensation will not depend on your answer below, so please be honest.)!!!",Radio,3785,MinorBumps
J00719196_irr,p39qfq0wsp,2,"Have you participated in this experiment (or another experiment using the same learning materials) before?",Radio,3555,DoneItBefore
J00719196_irr,p39qfq0wsp,3,"How much fun was this experiment? <p>1 being very fun -- 7 being the MOST FUN EVER</p>",Likert,4960,2
J00719196_irr,p39qfq0wsp,4,"Were you doing anything else while this experiment was going on? You will get credit no matter how you respond here.",Text,9514,no
J00719196_irr,p39qfq0wsp,5,"Which of the following problems did you have?",Checkbox,8086,none
J00712670CM,b0d1m7i4lj,1,"Did the experiment go smoothly or were there problems? (Note: Your compensation will not depend on your answer below, so please be honest.)!!!",Radio,12465,Smooth
J00712670CM,b0d1m7i4lj,2,"Have you participated in this experiment (or another experiment using the same learning materials) before?",Radio,2997,Naive
J00712670CM,b0d1m7i4lj,3,"How much fun was this experiment? <p>1 being very fun -- 7 being the MOST FUN EVER</p>",Likert,8737,2
J00712670CM,b0d1m7i4lj,4,"Were you doing anything else while this experiment was going on? You will get credit no matter how you respond here.",Text,8074,
J00712670CM,b0d1m7i4lj,5,"Which of the following problems did you have?",Checkbox,4803,none
j00686630_jj,iacrqpeo0n,1,"Did the experiment go smoothly or were there problems? (Note: Your compensation will not depend on your answer below, so please be honest.)!!!",Radio,4561,Smooth
j00686630_jj,iacrqpeo0n,2,"Have you participated in this experiment (or another experiment using the same learning materials) before?",Radio,6811,DoneItBefore
j00686630_jj,iacrqpeo0n,3,"How much fun was this experiment? <p>1 being very fun -- 7 being the MOST FUN EVER</p>",Likert,4814,1
j00686630_jj,iacrqpeo0n,4,"Were you doing anything else while this experiment was going on? You will get credit no matter how you respond here.",Text,5303,no
j00686630_jj,iacrqpeo0n,5,"Which of the following problems did you have?",Checkbox,4688,none
cas2024CS,8q6cnugm5q,1,"Did the experiment go smoothly or were there problems? (Note: Your compensation will not depend on your answer below, so please be honest.)!!!",Radio,5668,Smooth
cas2024CS,8q6cnugm5q,2,"Have you participated in this experiment (or another experiment using the same learning materials) before?",Radio,5312,Naive
cas2024CS,8q6cnugm5q,3,"How much fun was this experiment? <p>1 being very fun -- 7 being the MOST FUN EVER</p>",Likert,7056,7
cas2024CS,8q6cnugm5q,4,"Were you doing anything else while this experiment was going on? You will get credit no matter how you respond here.",Text,15499,"No, I was just sitting in bed"
cas2024CS,8q6cnugm5q,5,"Which of the following problems did you have?",Checkbox,4164,none
J00711161_jtc,u6zvc09lxl,1,"Did the experiment go smoothly or were there problems? (Note: Your compensation will not depend on your answer below, so please be honest.)!!!",Radio,6199,ExcludeMe
J00711161_jtc,u6zvc09lxl,2,"Have you participated in this experiment (or another experiment using the same learning materials) before?",Radio,5468,Naive
J00711161_jtc,u6zvc09lxl,3,"How much fun was this experiment? <p>1 being very fun -- 7 being the MOST FUN EVER</p>",Likert,8622,1
J00711161_jtc,u6zvc09lxl,4,"Were you doing anything else while this experiment was going on? You will get credit no matter how you respond here.",Text,7548,No
J00711161_jtc,u6zvc09lxl,5,"Which of the following problems did you have?",Checkbox,6207,none
j00690275_cbi,g9g2qpaduf,1,"Did the experiment go smoothly or were there problems? (Note: Your compensation will not depend on your answer below, so please be honest.)!!!",Radio,7054,Smooth
j00690275_cbi,g9g2qpaduf,2,"Have you participated in this experiment (or another experiment using the same learning materials) before?",Radio,9349,Naive
j00690275_cbi,g9g2qpaduf,3,"How much fun was this experiment? <p>1 being very fun -- 7 being the MOST FUN EVER</p>",Likert,6801,6
j00690275_cbi,g9g2qpaduf,4,"Were you doing anything else while this experiment was going on? You will get credit no matter how you respond here.",Text,8585,no
j00690275_cbi,g9g2qpaduf,5,"Which of the following problems did you have?",Checkbox,6197,none
J00689444_bcb,s6x3jn9z5z,1,"Did the experiment go smoothly or were there problems? (Note: Your compensation will not depend on your answer below, so please be honest.)!!!",Radio,7485,Smooth
J00689444_bcb,s6x3jn9z5z,2,"Have you participated in this experiment (or another experiment using the same learning materials) before?",Radio,4481,Naive
J00689444_bcb,s6x3jn9z5z,3,"How much fun was this experiment? <p>1 being very fun -- 7 being the MOST FUN EVER</p>",Likert,9452,6
J00689444_bcb,s6x3jn9z5z,4,"Were you doing anything else while this experiment was going on? You will get credit no matter how you respond here.",Text,95145,"Just eating Cheez-its. White cheddar is the best"
J00689444_bcb,s6x3jn9z5z,5,"Which of the following problems did you have?",Checkbox,4950,none
J00695430_mbb,dhqiwpnang,1,"Did the experiment go smoothly or were there problems? (Note: Your compensation will not depend on your answer below, so please be honest.)!!!",Radio,2396,Smooth
J00695430_mbb,dhqiwpnang,2,"Have you participated in this experiment (or another experiment using the same learning materials) before?",Radio,2043,Naive
J00695430_mbb,dhqiwpnang,3,"How much fun was this experiment? <p>1 being very fun -- 7 being the MOST FUN EVER</p>",Likert,5183,4
J00695430_mbb,dhqiwpnang,4,"Were you doing anything else while this experiment was going on? You will get credit no matter how you respond here.",Text,10150,"No "
J00695430_mbb,dhqiwpnang,5,"Which of the following problems did you have?",Checkbox,4933,none
JAN,cmjz8iohqp,1,"Did the experiment go smoothly or were there problems? (Note: Your compensation will not depend on your answer below, so please be honest.)!!!",Radio,3208,Smooth
JAN,cmjz8iohqp,2,"Have you participated in this experiment (or another experiment using the same learning materials) before?",Radio,3631,Naive
JAN,cmjz8iohqp,3,"How much fun was this experiment? <p>1 being very fun -- 7 being the MOST FUN EVER</p>",Likert,4291,5
JAN,cmjz8iohqp,4,"Were you doing anything else while this experiment was going on? You will get credit no matter how you respond here.",Text,7056,NO
JAN,cmjz8iohqp,5,"Which of the following problems did you have?",Checkbox,5250,reload
J00717803,8y70z9x12l,1,"Did the experiment go smoothly or were there problems? (Note: Your compensation will not depend on your answer below, so please be honest.)!!!",Radio,6112,Smooth
J00717803,8y70z9x12l,2,"Have you participated in this experiment (or another experiment using the same learning materials) before?",Radio,5183,Naive
J00717803,8y70z9x12l,3,"How much fun was this experiment? <p>1 being very fun -- 7 being the MOST FUN EVER</p>",Likert,11683,3
J00717803,8y70z9x12l,4,"Were you doing anything else while this experiment was going on? You will get credit no matter how you respond here.",Text,8996,No
J00717803,8y70z9x12l,5,"Which of the following problems did you have?",Checkbox,4811,none
J00722620_arf,n15rogsbov,1,"Did the experiment go smoothly or were there problems? (Note: Your compensation will not depend on your answer below, so please be honest.)!!!",Radio,17999,MinorBumps
J00722620_arf,n15rogsbov,2,"Have you participated in this experiment (or another experiment using the same learning materials) before?",Radio,5740,Naive
J00722620_arf,n15rogsbov,3,"How much fun was this experiment? <p>1 being very fun -- 7 being the MOST FUN EVER</p>",Likert,9064,1
J00722620_arf,n15rogsbov,4,"Were you doing anything else while this experiment was going on? You will get credit no matter how you respond here.",Text,7383,No
J00722620_arf,n15rogsbov,5,"Which of the following problems did you have?",Checkbox,6704,none
J00715107_aar,ddyg8qy9zb,1,"Did the experiment go smoothly or were there problems? (Note: Your compensation will not depend on your answer below, so please be honest.)!!!",Radio,13716,MinorBumps
J00715107_aar,ddyg8qy9zb,2,"Have you participated in this experiment (or another experiment using the same learning materials) before?",Radio,6040,Naive
J00715107_aar,ddyg8qy9zb,3,"How much fun was this experiment? <p>1 being very fun -- 7 being the MOST FUN EVER</p>",Likert,20557,1
J00715107_aar,ddyg8qy9zb,4,"Were you doing anything else while this experiment was going on? You will get credit no matter how you respond here.",Text,8419,No
J00715107_aar,ddyg8qy9zb,5,"Which of the following problems did you have?",Checkbox,15087,"internet connectivity problems"
j00702493js,a7dqdq1vk2,1,"Did the experiment go smoothly or were there problems? (Note: Your compensation will not depend on your answer below, so please be honest.)!!!",Radio,3315,Smooth
j00702493js,a7dqdq1vk2,2,"Have you participated in this experiment (or another experiment using the same learning materials) before?",Radio,2942,Naive
j00702493js,a7dqdq1vk2,3,"How much fun was this experiment? <p>1 being very fun -- 7 being the MOST FUN EVER</p>",Likert,5164,3
j00702493js,a7dqdq1vk2,4,"Were you doing anything else while this experiment was going on? You will get credit no matter how you respond here.",Text,7196,no
j00702493js,a7dqdq1vk2,5,"Which of the following problems did you have?",Checkbox,8244,none
J00720927,szzrwxgi68,1,"Did the experiment go smoothly or were there problems? (Note: Your compensation will not depend on your answer below, so please be honest.)!!!",Radio,2024,Smooth
J00720927,szzrwxgi68,2,"Have you participated in this experiment (or another experiment using the same learning materials) before?",Radio,4430,Naive
J00720927,szzrwxgi68,3,"How much fun was this experiment? <p>1 being very fun -- 7 being the MOST FUN EVER</p>",Likert,7948,5
J00720927,szzrwxgi68,4,"Were you doing anything else while this experiment was going on? You will get credit no matter how you respond here.",Text,6612,no
J00720927,szzrwxgi68,5,"Which of the following problems did you have?",Checkbox,5240,none
J00692726AS,46gek1dwei,1,"Did the experiment go smoothly or were there problems? (Note: Your compensation will not depend on your answer below, so please be honest.)!!!",Radio,5621,ExcludeMe
J00692726AS,46gek1dwei,2,"Have you participated in this experiment (or another experiment using the same learning materials) before?",Radio,6395,Naive
J00692726AS,46gek1dwei,3,"How much fun was this experiment? <p>1 being very fun -- 7 being the MOST FUN EVER</p>",Likert,23791,6
J00692726AS,46gek1dwei,4,"Were you doing anything else while this experiment was going on? You will get credit no matter how you respond here.",Text,21689,"yes laughing at the questions"
J00692726AS,46gek1dwei,5,"Which of the following problems did you have?",Checkbox,8991,none
J00708366_grd,17n0il9xfv,1,"Did the experiment go smoothly or were there problems? (Note: Your compensation will not depend on your answer below, so please be honest.)!!!",Radio,2590,Smooth
J00708366_grd,17n0il9xfv,2,"Have you participated in this experiment (or another experiment using the same learning materials) before?",Radio,5628,DoneItBefore
J00708366_grd,17n0il9xfv,3,"How much fun was this experiment? <p>1 being very fun -- 7 being the MOST FUN EVER</p>",Likert,5075,5
J00708366_grd,17n0il9xfv,4,"Were you doing anything else while this experiment was going on? You will get credit no matter how you respond here.",Text,32211,"I was in class, but we were not working on anything"
J00708366_grd,17n0il9xfv,5,"Which of the following problems did you have?",Checkbox,3618,none
J00688582_med,26p7wjoa5h,1,"Did the experiment go smoothly or were there problems? (Note: Your compensation will not depend on your answer below, so please be honest.)!!!",Radio,7788,Smooth
J00688582_med,26p7wjoa5h,2,"Have you participated in this experiment (or another experiment using the same learning materials) before?",Radio,5908,Naive
J00688582_med,26p7wjoa5h,3,"How much fun was this experiment? <p>1 being very fun -- 7 being the MOST FUN EVER</p>",Likert,11731,5
J00708607CQ,iineh0ou6a,1,"Did the experiment go smoothly or were there problems? (Note: Your compensation will not depend on your answer below, so please be honest.)!!!",Radio,14785,Smooth
J00708607CQ,iineh0ou6a,2,"Have you participated in this experiment (or another experiment using the same learning materials) before?",Radio,5413,Naive
J00708607CQ,iineh0ou6a,3,"How much fun was this experiment? <p>1 being very fun -- 7 being the MOST FUN EVER</p>",Likert,14148,5
J00708607CQ,iineh0ou6a,4,"Were you doing anything else while this experiment was going on? You will get credit no matter how you respond here.",Text,9202,no
J00708607CQ,iineh0ou6a,5,"Which of the following problems did you have?",Checkbox,8663,none
J00691433_obo,hsbl9lh3ot,1,"Did the experiment go smoothly or were there problems? (Note: Your compensation will not depend on your answer below, so please be honest.)!!!",Radio,4519,Smooth
J00691433_obo,hsbl9lh3ot,2,"Have you participated in this experiment (or another experiment using the same learning materials) before?",Radio,7888,Naive
J00691433_obo,hsbl9lh3ot,3,"How much fun was this experiment? <p>1 being very fun -- 7 being the MOST FUN EVER</p>",Likert,15039,5
J00691433_obo,hsbl9lh3ot,4,"Were you doing anything else while this experiment was going on? You will get credit no matter how you respond here.",Text,8736,no
J00691433_obo,hsbl9lh3ot,5,"Which of the following problems did you have?",Checkbox,10944,none
J00724826,fbpt7wnr7a,1,"Did the experiment go smoothly or were there problems? (Note: Your compensation will not depend on your answer below, so please be honest.)!!!",Radio,10212,Smooth
J00724826,fbpt7wnr7a,2,"Have you participated in this experiment (or another experiment using the same learning materials) before?",Radio,7710,Naive
J00724826,fbpt7wnr7a,3,"How much fun was this experiment? <p>1 being very fun -- 7 being the MOST FUN EVER</p>",Likert,6817,4
J00724826,fbpt7wnr7a,4,"Were you doing anything else while this experiment was going on? You will get credit no matter how you respond here.",Text,22231,"laying down"
J00724826,fbpt7wnr7a,5,"Which of the following problems did you have?",Checkbox,10704,none
J00707642ALM,wp6c7dq56f,1,"Did the experiment go smoothly or were there problems? (Note: Your compensation will not depend on your answer below, so please be honest.)!!!",Radio,7092,Smooth
J00707642ALM,wp6c7dq56f,2,"Have you participated in this experiment (or another experiment using the same learning materials) before?",Radio,7707,Naive
J00707642ALM,wp6c7dq56f,3,"How much fun was this experiment? <p>1 being very fun -- 7 being the MOST FUN EVER</p>",Likert,10914,3
J00707642ALM,wp6c7dq56f,4,"Were you doing anything else while this experiment was going on? You will get credit no matter how you respond here.",Text,37482,"No, I was focused on the experiment."
J00707642ALM,wp6c7dq56f,5,"Which of the following problems did you have?",Checkbox,9748,none
J00673035_JTJ,b7yofp3536,1,"Did the experiment go smoothly or were there problems? (Note: Your compensation will not depend on your answer below, so please be honest.)!!!",Radio,8202,Smooth
J00673035_JTJ,b7yofp3536,2,"Have you participated in this experiment (or another experiment using the same learning materials) before?",Radio,2872,Naive
J00673035_JTJ,b7yofp3536,3,"How much fun was this experiment? <p>1 being very fun -- 7 being the MOST FUN EVER</p>",Likert,10622,5
J00673035_JTJ,b7yofp3536,4,"Were you doing anything else while this experiment was going on? You will get credit no matter how you respond here.",Text,14047,"im just in class chilling"
J00673035_JTJ,b7yofp3536,5,"Which of the following problems did you have?",Checkbox,5993,none
J00716276MR,4o95z1re9s,1,"Did the experiment go smoothly or were there problems? (Note: Your compensation will not depend on your answer below, so please be honest.)!!!",Radio,5005,Smooth
J00716276MR,4o95z1re9s,2,"Have you participated in this experiment (or another experiment using the same learning materials) before?",Radio,3951,Naive
J00716276MR,4o95z1re9s,3,"How much fun was this experiment? <p>1 being very fun -- 7 being the MOST FUN EVER</p>",Likert,3230,2
J00716276MR,4o95z1re9s,4,"Were you doing anything else while this experiment was going on? You will get credit no matter how you respond here.",Text,5163,NO
J00716276MR,4o95z1re9s,5,"Which of the following problems did you have?",Checkbox,3631,none
J00711093_jbt,xaxxy1thah,1,"Did the experiment go smoothly or were there problems? (Note: Your compensation will not depend on your answer below, so please be honest.)!!!",Radio,8955,Smooth
J00711093_jbt,xaxxy1thah,2,"Have you participated in this experiment (or another experiment using the same learning materials) before?",Radio,6693,Naive
J00711093_jbt,xaxxy1thah,3,"How much fun was this experiment? <p>1 being very fun -- 7 being the MOST FUN EVER</p>",Likert,11807,5
J00711093_jbt,xaxxy1thah,4,"Were you doing anything else while this experiment was going on? You will get credit no matter how you respond here.",Text,10913,No
J00711093_jbt,xaxxy1thah,5,"Which of the following problems did you have?",Checkbox,10860,none
J00709516_CDI,pcs7icam3q,1,"Did the experiment go smoothly or were there problems? (Note: Your compensation will not depend on your answer below, so please be honest.)!!!",Radio,2750,Smooth
J00709516_CDI,pcs7icam3q,2,"Have you participated in this experiment (or another experiment using the same learning materials) before?",Radio,5435,Naive
J00709516_CDI,pcs7icam3q,3,"How much fun was this experiment? <p>1 being very fun -- 7 being the MOST FUN EVER</p>",Likert,4020,2
J00709516_CDI,pcs7icam3q,4,"Were you doing anything else while this experiment was going on? You will get credit no matter how you respond here.",Text,3470,
J00709516_CDI,pcs7icam3q,5,"Which of the following problems did you have?",Checkbox,6362,none
J00708773_kmm,vb7412fqs6,1,"Did the experiment go smoothly or were there problems? (Note: Your compensation will not depend on your answer below, so please be honest.)!!!",Radio,13053,Smooth
J00708773_kmm,vb7412fqs6,2,"Have you participated in this experiment (or another experiment using the same learning materials) before?",Radio,7928,Naive
J00708773_kmm,vb7412fqs6,3,"How much fun was this experiment? <p>1 being very fun -- 7 being the MOST FUN EVER</p>",Likert,15200,1
J00708773_kmm,vb7412fqs6,4,"Were you doing anything else while this experiment was going on? You will get credit no matter how you respond here.",Text,13585,no
J00708773_kmm,vb7412fqs6,5,"Which of the following problems did you have?",Checkbox,10214,none
j00666689DF,7wqffz4osa,1,"Did the experiment go smoothly or were there problems? (Note: Your compensation will not depend on your answer below, so please be honest.)!!!",Radio,3514,Smooth
j00666689DF,7wqffz4osa,2,"Have you participated in this experiment (or another experiment using the same learning materials) before?",Radio,4247,Naive
j00666689DF,7wqffz4osa,3,"How much fun was this experiment? <p>1 being very fun -- 7 being the MOST FUN EVER</p>",Likert,13185,4
j00666689DF,7wqffz4osa,4,"Were you doing anything else while this experiment was going on? You will get credit no matter how you respond here.",Text,9233,no
j00666689DF,7wqffz4osa,5,"Which of the following problems did you have?",Checkbox,9594,none
J00713869_cth,mu1tc0i6bz,1,"Did the experiment go smoothly or were there problems? (Note: Your compensation will not depend on your answer below, so please be honest.)!!!",Radio,9664,MinorBumps
J00713869_cth,mu1tc0i6bz,2,"Have you participated in this experiment (or another experiment using the same learning materials) before?",Radio,4292,Naive
J00713869_cth,mu1tc0i6bz,3,"How much fun was this experiment? <p>1 being very fun -- 7 being the MOST FUN EVER</p>",Likert,7035,3
J00713869_cth,mu1tc0i6bz,4,"Were you doing anything else while this experiment was going on? You will get credit no matter how you respond here.",Text,4798,"No "
J00713869_cth,mu1tc0i6bz,5,"Which of the following problems did you have?",Checkbox,13448,none
J00688582_med,xr01ls6ywd,1,"Did the experiment go smoothly or were there problems? (Note: Your compensation will not depend on your answer below, so please be honest.)!!!",Radio,66009,Smooth
J00688582_med,xr01ls6ywd,2,"Have you participated in this experiment (or another experiment using the same learning materials) before?",Radio,8723,DoneItBefore
J00688582_med,xr01ls6ywd,3,"How much fun was this experiment? <p>1 being very fun -- 7 being the MOST FUN EVER</p>",Likert,5902,4
J00688582_med,xr01ls6ywd,4,"Were you doing anything else while this experiment was going on? You will get credit no matter how you respond here.",Text,13909,"I am in class. "
J00688582_med,xr01ls6ywd,5,"Which of the following problems did you have?",Checkbox,11230,none
tms,wjuiibxhnh,1,"Did the experiment go smoothly or were there problems? (Note: Your compensation will not depend on your answer below, so please be honest.)!!!",Radio,2631,Smooth
tms,wjuiibxhnh,2,"Have you participated in this experiment (or another experiment using the same learning materials) before?",Radio,6569,Naive
tms,wjuiibxhnh,3,"How much fun was this experiment? <p>1 being very fun -- 7 being the MOST FUN EVER</p>",Likert,4820,7
tms,wjuiibxhnh,4,"Were you doing anything else while this experiment was going on? You will get credit no matter how you respond here.",Text,5929,no
tms,wjuiibxhnh,5,"Which of the following problems did you have?",Checkbox,3032,reload
J00701777LM,5dig0nfxvm,1,"Did the experiment go smoothly or were there problems? (Note: Your compensation will not depend on your answer below, so please be honest.)!!!",Radio,4709,Smooth
J00701777LM,5dig0nfxvm,2,"Have you participated in this experiment (or another experiment using the same learning materials) before?",Radio,8115,Naive
J00701777LM,5dig0nfxvm,3,"How much fun was this experiment? <p>1 being very fun -- 7 being the MOST FUN EVER</p>",Likert,8606,1
J00701777LM,5dig0nfxvm,4,"Were you doing anything else while this experiment was going on? You will get credit no matter how you respond here.",Text,111829,"Watching TV"
J00701777LM,5dig0nfxvm,5,"Which of the following problems did you have?",Checkbox,5636,none
J00641914PS,wnkyangy23,1,"Did the experiment go smoothly or were there problems? (Note: Your compensation will not depend on your answer below, so please be honest.)!!!",Radio,4909,MinorBumps
J00641914PS,wnkyangy23,2,"Have you participated in this experiment (or another experiment using the same learning materials) before?",Radio,3867,Naive
J00641914PS,wnkyangy23,3,"How much fun was this experiment? <p>1 being very fun -- 7 being the MOST FUN EVER</p>",Likert,6288,5
J00641914PS,wnkyangy23,4,"Were you doing anything else while this experiment was going on? You will get credit no matter how you respond here.",Text,9638,no
J00641914PS,wnkyangy23,5,"Which of the following problems did you have?",Checkbox,8546,none
J00710354_cl,uyfuohkort,1,"Did the experiment go smoothly or were there problems? (Note: Your compensation will not depend on your answer below, so please be honest.)!!!",Radio,8656,MinorBumps
J00710354_cl,uyfuohkort,2,"Have you participated in this experiment (or another experiment using the same learning materials) before?",Radio,5860,Naive
J00710354_cl,uyfuohkort,3,"How much fun was this experiment? <p>1 being very fun -- 7 being the MOST FUN EVER</p>",Likert,5708,3
J00710354_cl,uyfuohkort,4,"Were you doing anything else while this experiment was going on? You will get credit no matter how you respond here.",Text,9799,no
J00710354_cl,uyfuohkort,5,"Which of the following problems did you have?",Checkbox,10061,none
J00709127_MM,mq7dfwkavn,1,"Did the experiment go smoothly or were there problems? (Note: Your compensation will not depend on your answer below, so please be honest.)!!!",Radio,8887,Smooth
J00709127_MM,mq7dfwkavn,2,"Have you participated in this experiment (or another experiment using the same learning materials) before?",Radio,8208,DoneItBefore
J00709127_MM,mq7dfwkavn,3,"How much fun was this experiment? <p>1 being very fun -- 7 being the MOST FUN EVER</p>",Likert,8399,2
J00709127_MM,mq7dfwkavn,4,"Were you doing anything else while this experiment was going on? You will get credit no matter how you respond here.",Text,14457,No
J00709127_MM,mq7dfwkavn,5,"Which of the following problems did you have?",Checkbox,10952,none
J00719290_TG,nxsh8wixz8,1,"Did the experiment go smoothly or were there problems? (Note: Your compensation will not depend on your answer below, so please be honest.)!!!",Radio,2383,Smooth
J00719290_TG,nxsh8wixz8,2,"Have you participated in this experiment (or another experiment using the same learning materials) before?",Radio,4844,Naive
J00719290_TG,nxsh8wixz8,3,"How much fun was this experiment? <p>1 being very fun -- 7 being the MOST FUN EVER</p>",Likert,8882,5
J00719290_TG,nxsh8wixz8,4,"Were you doing anything else while this experiment was going on? You will get credit no matter how you respond here.",Text,8797,No
J00719290_TG,nxsh8wixz8,5,"Which of the following problems did you have?",Checkbox,17245,"blank page"
J00709767_aas,8uy0y523ro,1,"Did the experiment go smoothly or were there problems? (Note: Your compensation will not depend on your answer below, so please be honest.)!!!",Radio,22760,Smooth
J00709767_aas,8uy0y523ro,2,"Have you participated in this experiment (or another experiment using the same learning materials) before?",Radio,12600,Naive
J00709767_aas,8uy0y523ro,3,"How much fun was this experiment? <p>1 being very fun -- 7 being the MOST FUN EVER</p>",Likert,31372,3
J00709767_aas,8uy0y523ro,4,"Were you doing anything else while this experiment was going on? You will get credit no matter how you respond here.",Text,128466,"listening to tv "
J00709767_aas,8uy0y523ro,5,"Which of the following problems did you have?",Checkbox,6705,none
J00667670_KPL,qmzma0iroi,1,"Did the experiment go smoothly or were there problems? (Note: Your compensation will not depend on your answer below, so please be honest.)!!!",Radio,2482,Smooth
J00667670_KPL,qmzma0iroi,2,"Have you participated in this experiment (or another experiment using the same learning materials) before?",Radio,2622,Naive
J00667670_KPL,qmzma0iroi,3,"How much fun was this experiment? <p>1 being very fun -- 7 being the MOST FUN EVER</p>",Likert,7082,4
J00667670_KPL,qmzma0iroi,4,"Were you doing anything else while this experiment was going on? You will get credit no matter how you respond here.",Text,9034,No
J00667670_KPL,qmzma0iroi,5,"Which of the following problems did you have?",Checkbox,3522,none
J00690994_aaw,hjirv66ev2,1,"Did the experiment go smoothly or were there problems? (Note: Your compensation will not depend on your answer below, so please be honest.)!!!",Radio,9680,Smooth
J00690994_aaw,hjirv66ev2,2,"Have you participated in this experiment (or another experiment using the same learning materials) before?",Radio,5522,Naive
J00690994_aaw,hjirv66ev2,3,"How much fun was this experiment? <p>1 being very fun -- 7 being the MOST FUN EVER</p>",Likert,6125,4
J00690994_aaw,hjirv66ev2,4,"Were you doing anything else while this experiment was going on? You will get credit no matter how you respond here.",Text,7422,no
J00690994_aaw,hjirv66ev2,5,"Which of the following problems did you have?",Checkbox,7684,none
w10083924,m9fgs75d81,1,"Did the experiment go smoothly or were there problems? (Note: Your compensation will not depend on your answer below, so please be honest.)!!!",Radio,13483,Smooth
w10083924,m9fgs75d81,2,"Have you participated in this experiment (or another experiment using the same learning materials) before?",Radio,6263,Naive
w10083924,m9fgs75d81,3,"How much fun was this experiment? <p>1 being very fun -- 7 being the MOST FUN EVER</p>",Likert,8103,4
w10083924,m9fgs75d81,4,"Were you doing anything else while this experiment was going on? You will get credit no matter how you respond here.",Text,27505,"I am on a time crunch, so I had to rush through some questions"
w10083924,m9fgs75d81,5,"Which of the following problems did you have?",Checkbox,21905,none
J00706716AL,2ww8ovz91p,1,"Did the experiment go smoothly or were there problems? (Note: Your compensation will not depend on your answer below, so please be honest.)!!!",Radio,7212,Smooth
J00706716AL,2ww8ovz91p,2,"Have you participated in this experiment (or another experiment using the same learning materials) before?",Radio,11172,Naive
J00706716AL,2ww8ovz91p,3,"How much fun was this experiment? <p>1 being very fun -- 7 being the MOST FUN EVER</p>",Likert,4724,6
J00706716AL,2ww8ovz91p,4,"Were you doing anything else while this experiment was going on? You will get credit no matter how you respond here.",Text,11664,yes
J00706716AL,2ww8ovz91p,5,"Which of the following problems did you have?",Checkbox,6321,none
J00710014SD,o4qlsnpw84,1,"Did the experiment go smoothly or were there problems? (Note: Your compensation will not depend on your answer below, so please be honest.)!!!",Radio,4904,Smooth
J00710014SD,o4qlsnpw84,2,"Have you participated in this experiment (or another experiment using the same learning materials) before?",Radio,5448,Naive
J00710014SD,o4qlsnpw84,3,"How much fun was this experiment? <p>1 being very fun -- 7 being the MOST FUN EVER</p>",Likert,7021,1
J00710014SD,o4qlsnpw84,4,"Were you doing anything else while this experiment was going on? You will get credit no matter how you respond here.",Text,23010,"No, I paused my podcast so that I could focus"
J00710014SD,o4qlsnpw84,5,"Which of the following problems did you have?",Checkbox,5810,none
J00715610_an,kzzcrgugxf,1,"Did the experiment go smoothly or were there problems? (Note: Your compensation will not depend on your answer below, so please be honest.)!!!",Radio,9476,ExcludeMe
J00715610_an,kzzcrgugxf,2,"Have you participated in this experiment (or another experiment using the same learning materials) before?",Radio,3377,Naive
J00715610_an,kzzcrgugxf,3,"How much fun was this experiment? <p>1 being very fun -- 7 being the MOST FUN EVER</p>",Likert,5146,4
J00715610_an,kzzcrgugxf,4,"Were you doing anything else while this experiment was going on? You will get credit no matter how you respond here.",Text,11918,"I was talking to my friend"
J00715610_an,kzzcrgugxf,5,"Which of the following problems did you have?",Checkbox,5657,none
