Username,ID,ExperimentName,Session,Trial,Date,TimeDif,"Condition Number","Stimuli File","Order File","Condition Description","Condition Notes",Stimuli*Cue,Stimuli*Answer,Stimuli*Shuffle,"Stimuli*Stimuli Notes",Stimuli*Value,Stimuli*Rand,Procedure*Item,"Procedure*Trial Type","Procedure*Max Time","Procedure*Min Time",Procedure*Text,"Procedure*Procedure Notes",Procedure*Shuffle,Response*RT,Response*Response,Response*Accuracy,Response*RTfirst,Response*RTlast,Response*strictAcc,Response*lenientAcc,Response*focus,Response*JOL,Response*Focus
w10132740_fmm,2j41c6bv28,"Affordance Norms_USM",1,1,2023-09-06T01:05:02+00:00,11.065215110779,19,"updated stim.csv",Version19.csv,"Version 19","List 19",,,,,,,0,Instruct,-,10,"In this section, you will be presented with a series of objects. Please name as many possible uses for this object as you can think of by typing them in the box below each object.",,Instruct1,11008,,,-1,-1,,,,,1
w10132740_fmm,2j41c6bv28,"Affordance Norms_USM",1,2,2023-09-06T01:05:18+00:00,15.220273971558,19,"updated stim.csv",Version19.csv,"Version 19","List 19",,,,,,,0,Instruct,-,10,"Please keep in mind that a single object will have more than one use. For example, a ball can be thrown or can be bounced or even stepped on. When listing multiple uses for one object, please separate each use with a comma (i.e., thrown, bounced, stepped on)",,Instruct2,15029,,,-1,-1,,,,,1
w10132740_fmm,2j41c6bv28,"Affordance Norms_USM",1,3,2023-09-06T01:05:19+00:00,1.2855598926544,19,"updated stim.csv",Version19.csv,"Version 19","List 19",,,,,,,0,Instruct,-,-,"Before starting the experiment, you will complete a short practice sesstion. Press ENTER when you are ready to begin.",,Instruct3,1214,,,-1,-1,,,,,1
w10132740_fmm,2j41c6bv28,"Affordance Norms_USM",1,4,2023-09-06T01:05:28+00:00,9.3183979988098,19,"updated stim.csv",Version19.csv,"Version 19","List 19",spaghetti,,634,4.608695652,2807,0.295026168,635,BOI,-,-,"Please name all of the ways you could use this object. Keep in mind that one object can have many uses. Separate your responses with a comma.",,n,9238,,,2364,8620,,,,"food, eating",1
w10132740_fmm,2j41c6bv28,"Affordance Norms_USM",1,5,2023-09-06T01:05:40+00:00,11.357350111008,19,"updated stim.csv",Version19.csv,"Version 19","List 19",paperwork,,632,4.28,439,0.557499565,633,BOI,-,-,"Please name all of the ways you could use this object. Keep in mind that one object can have many uses. Separate your responses with a comma.",,n,11282,,,1209,9818,,,,"writing, filing, school, ",1
w10132740_fmm,2j41c6bv28,"Affordance Norms_USM",1,6,2023-09-06T01:05:47+00:00,7.1150569915771,19,"updated stim.csv",Version19.csv,"Version 19","List 19",grain,,635,4.708333333,1700,0.685106443,636,BOI,-,-,"Please name all of the ways you could use this object. Keep in mind that one object can have many uses. Separate your responses with a comma.",,n,7041,,,1033,6322,,,,"rice, wheat, eating, cooking",1
w10132740_fmm,2j41c6bv28,"Affordance Norms_USM",1,7,2023-09-06T01:05:51+00:00,4.6104950904846,19,"updated stim.csv",Version19.csv,"Version 19","List 19",shortening,,633,4.961538462,2303,0.081957919,634,BOI,-,-,"Please name all of the ways you could use this object. Keep in mind that one object can have many uses. Separate your responses with a comma.",,n,4540,,,3174,3865,,,,baking,1
w10132740_fmm,2j41c6bv28,"Affordance Norms_USM",1,8,2023-09-06T01:05:59+00:00,7.7262539863586,19,"updated stim.csv",Version19.csv,"Version 19","List 19",glove,,631,5.217391304,2788,0.288599309,632,BOI,-,-,"Please name all of the ways you could use this object. Keep in mind that one object can have many uses. Separate your responses with a comma.",,n,7643,,,1855,6739,,,,"catching, protecting, ",1
w10132740_fmm,2j41c6bv28,"Affordance Norms_USM",1,9,2023-09-06T01:06:00+00:00,1.261127948761,19,"updated stim.csv",Version19.csv,"Version 19","List 19",,,,,,,0,Instruct,-,-,"You have completed this section. Press ENTER to continue",,"Instruct 5",1190,,,-1,-1,,,,,1
w10132740_fmm,2j41c6bv28,"Affordance Norms_USM",1,10,2023-09-06T01:06:02+00:00,1.3274490833282,19,"updated stim.csv",Version19.csv,"Version 19","List 19",,,,,,,0,Instruct,-,-,"You will now start the full experiment. Press ENTER when you are ready to begin.",,,1249,,,-1,-1,,,,,1
w10132740_fmm,2j41c6bv28,"Affordance Norms_USM",1,11,2023-09-06T01:06:18+00:00,16.465139865875,19,"updated stim.csv",Version19.csv,"Version 19","List 19",garbage,,544,6.260869565,661,0.619410451,545,BOI,-,-,"Please name all of the ways you could use this object. Keep in mind that one object can have many uses. Separate your responses with a comma.",,y,14135,,,1471,12278,,,,"throw away",1
w10132740_fmm,2j41c6bv28,"Affordance Norms_USM",1,12,2023-09-06T01:06:53+00:00,34.91725897789,19,"updated stim.csv",Version19.csv,"Version 19","List 19",pony,,564,5.36,2125,0.368001778,565,BOI,-,-,"Please name all of the ways you could use this object. Keep in mind that one object can have many uses. Separate your responses with a comma.",,y,34784,,,5060,15330,,,,"riding, ",1
w10132740_fmm,2j41c6bv28,"Affordance Norms_USM",1,13,2023-09-06T01:07:04+00:00,11.045326948166,19,"updated stim.csv",Version19.csv,"Version 19","List 19",lavatory,,551,5.260869565,1129,0.144202147,552,BOI,-,-,"Please name all of the ways you could use this object. Keep in mind that one object can have many uses. Separate your responses with a comma.",,y,10960,,,3302,10775,,,,"peeing, going through bathroom",1
w10132740_fmm,2j41c6bv28,"Affordance Norms_USM",1,14,2023-09-06T01:07:24+00:00,19.912991046906,19,"updated stim.csv",Version19.csv,"Version 19","List 19",poop,,565,5.954545455,2715,0.055815318,566,BOI,-,-,"Please name all of the ways you could use this object. Keep in mind that one object can have many uses. Separate your responses with a comma.",,y,19827,,,-1,-1,,,,,1
w10132740_fmm,2j41c6bv28,"Affordance Norms_USM",1,15,2023-09-06T01:07:31+00:00,6.8680100440979,19,"updated stim.csv",Version19.csv,"Version 19","List 19",newsprint,,557,5.869565217,2609,0.252814962,558,BOI,-,-,"Please name all of the ways you could use this object. Keep in mind that one object can have many uses. Separate your responses with a comma.",,y,6793,,,1102,5728,,,,"read, news, information",1
w10132740_fmm,2j41c6bv28,"Affordance Norms_USM",1,16,2023-09-06T01:07:33+00:00,2.4591720104218,19,"updated stim.csv",Version19.csv,"Version 19","List 19",hound,,547,5.166666667,2768,0.711278044,548,BOI,-,-,"Please name all of the ways you could use this object. Keep in mind that one object can have many uses. Separate your responses with a comma.",,y,2152,,,-1,-1,,,,,1
w10132740_fmm,2j41c6bv28,"Affordance Norms_USM",1,17,2023-09-06T01:07:40+00:00,6.6603360176086,19,"updated stim.csv",Version19.csv,"Version 19","List 19",handrail,,546,4.541666667,149,0.391499549,547,BOI,-,-,"Please name all of the ways you could use this object. Keep in mind that one object can have many uses. Separate your responses with a comma.",,y,6555,,,1634,5875,,,,"walking, running, helping walk",1
w10132740_fmm,2j41c6bv28,"Affordance Norms_USM",1,18,2023-09-06T01:07:51+00:00,11.310385942459,19,"updated stim.csv",Version19.csv,"Version 19","List 19",entertainer,,541,5.666666667,1406,0.493496181,542,BOI,-,-,"Please name all of the ways you could use this object. Keep in mind that one object can have many uses. Separate your responses with a comma.",,y,11231,,,3216,10692,,,,"singing, dancing, reading",1
w10132740_fmm,2j41c6bv28,"Affordance Norms_USM",1,19,2023-09-06T01:07:54+00:00,2.7453310489655,19,"updated stim.csv",Version19.csv,"Version 19","List 19",pellet,,561,5.16,2876,0.286824315,562,BOI,-,-,"Please name all of the ways you could use this object. Keep in mind that one object can have many uses. Separate your responses with a comma.",,y,2669,,,-1,-1,,,,,1
w10132740_fmm,2j41c6bv28,"Affordance Norms_USM",1,20,2023-09-06T01:08:07+00:00,13.35849404335,19,"updated stim.csv",Version19.csv,"Version 19","List 19",planner,,563,4.652173913,2478,0.624463816,564,BOI,-,-,"Please name all of the ways you could use this object. Keep in mind that one object can have many uses. Separate your responses with a comma.",,y,13279,,,1619,13123,,,,"organizing, helping, planning",1
w10132740_fmm,2j41c6bv28,"Affordance Norms_USM",1,21,2023-09-06T01:08:09+00:00,1.3313770294189,19,"updated stim.csv",Version19.csv,"Version 19","List 19",jumper,,549,4.333333333,1555,0.460781999,550,BOI,-,-,"Please name all of the ways you could use this object. Keep in mind that one object can have many uses. Separate your responses with a comma.",,y,1254,,,-1,-1,,,,,1
w10132740_fmm,2j41c6bv28,"Affordance Norms_USM",1,22,2023-09-06T01:08:09+00:00,0.60653400421143,19,"updated stim.csv",Version19.csv,"Version 19","List 19",prune,,568,6,2769,0.114264323,569,BOI,-,-,"Please name all of the ways you could use this object. Keep in mind that one object can have many uses. Separate your responses with a comma.",,y,536,,,-1,-1,,,,,1
w10132740_fmm,2j41c6bv28,"Affordance Norms_USM",1,23,2023-09-06T01:08:10+00:00,0.9764928817749,19,"updated stim.csv",Version19.csv,"Version 19","List 19",prankster,,566,5.625,1425,0.900817788,567,BOI,-,-,"Please name all of the ways you could use this object. Keep in mind that one object can have many uses. Separate your responses with a comma.",,y,907,,,-1,-1,,,,,1
w10132740_fmm,2j41c6bv28,"Affordance Norms_USM",1,24,2023-09-06T01:08:12+00:00,1.1960849761963,19,"updated stim.csv",Version19.csv,"Version 19","List 19",lighthouse,,552,4.652173913,905,0.497490187,553,BOI,-,-,"Please name all of the ways you could use this object. Keep in mind that one object can have many uses. Separate your responses with a comma.",,y,1124,,,-1,-1,,,,,1
w10132740_fmm,2j41c6bv28,"Affordance Norms_USM",1,25,2023-09-06T01:08:21+00:00,8.993301153183,19,"updated stim.csv",Version19.csv,"Version 19","List 19",printout,,567,6.5,633,0.354504033,568,BOI,-,-,"Please name all of the ways you could use this object. Keep in mind that one object can have many uses. Separate your responses with a comma.",,y,8918,,,1283,8298,,,,"study, read, helping, notes",1
w10132740_fmm,2j41c6bv28,"Affordance Norms_USM",1,26,2023-09-06T01:08:24+00:00,3.0108509063721,19,"updated stim.csv",Version19.csv,"Version 19","List 19",penthouse,,562,5.291666667,398,0.458861103,563,BOI,-,-,"Please name all of the ways you could use this object. Keep in mind that one object can have many uses. Separate your responses with a comma.",,y,2777,,,1228,2134,,,,"living,",1
w10132740_fmm,2j41c6bv28,"Affordance Norms_USM",1,27,2023-09-06T01:08:30+00:00,6.7576909065247,19,"updated stim.csv",Version19.csv,"Version 19","List 19",limousine,,553,5.260869565,1138,0.494045205,554,BOI,-,-,"Please name all of the ways you could use this object. Keep in mind that one object can have many uses. Separate your responses with a comma.",,y,5056,,,1034,4520,,,,"riding, famous",1
w10132740_fmm,2j41c6bv28,"Affordance Norms_USM",1,28,2023-09-06T01:08:38+00:00,7.9160580635071,19,"updated stim.csv",Version19.csv,"Version 19","List 19",pants,,559,4.56,1496,0.230726376,560,BOI,-,-,"Please name all of the ways you could use this object. Keep in mind that one object can have many uses. Separate your responses with a comma.",,y,7786,,,3755,7568,,,,"wearing, keeping cool",1
w10132740_fmm,2j41c6bv28,"Affordance Norms_USM",1,29,2023-09-06T01:08:39+00:00,1.0571010112762,19,"updated stim.csv",Version19.csv,"Version 19","List 19",medallion,,554,5.75,2515,0.944862222,555,BOI,-,-,"Please name all of the ways you could use this object. Keep in mind that one object can have many uses. Separate your responses with a comma.",,y,981,,,-1,-1,,,,,1
w10132740_fmm,2j41c6bv28,"Affordance Norms_USM",1,30,2023-09-06T01:08:44+00:00,4.7838809490204,19,"updated stim.csv",Version19.csv,"Version 19","List 19",raspberry,,570,5.208333333,2382,0.564942119,571,BOI,-,-,"Please name all of the ways you could use this object. Keep in mind that one object can have many uses. Separate your responses with a comma.",,y,4500,,,923,4302,,,,"eating, good health",1
w10132740_fmm,2j41c6bv28,"Affordance Norms_USM",1,31,2023-09-06T01:08:46+00:00,1.5318350791931,19,"updated stim.csv",Version19.csv,"Version 19","List 19",golf,,545,5.192307692,2229,0.240965939,546,BOI,-,-,"Please name all of the ways you could use this object. Keep in mind that one object can have many uses. Separate your responses with a comma.",,y,1434,,,-1,-1,,,,,1
w10132740_fmm,2j41c6bv28,"Affordance Norms_USM",1,32,2023-09-06T01:08:47+00:00,1.6637918949127,19,"updated stim.csv",Version19.csv,"Version 19","List 19",fingertip,,542,4.4,1993,0.665997379,543,BOI,-,-,"Please name all of the ways you could use this object. Keep in mind that one object can have many uses. Separate your responses with a comma.",,y,1587,,,-1,-1,,,,,1
w10132740_fmm,2j41c6bv28,"Affordance Norms_USM",1,33,2023-09-06T01:08:51+00:00,3.8226611614227,19,"updated stim.csv",Version19.csv,"Version 19","List 19",frog,,543,6.125,1131,0.800491874,544,BOI,-,-,"Please name all of the ways you could use this object. Keep in mind that one object can have many uses. Separate your responses with a comma.",,y,3748,,,1231,2365,,,,,1
w10132740_fmm,2j41c6bv28,"Affordance Norms_USM",1,34,2023-09-06T01:08:57+00:00,5.6141548156738,19,"updated stim.csv",Version19.csv,"Version 19","List 19",punter,,569,5.956521739,2990,0.862814499,570,BOI,-,-,"Please name all of the ways you could use this object. Keep in mind that one object can have many uses. Separate your responses with a comma.",,y,5451,,,1024,5334,,,,"kicking, football",1
w10132740_fmm,2j41c6bv28,"Affordance Norms_USM",1,35,2023-09-06T01:08:57+00:00,0.68874716758728,19,"updated stim.csv",Version19.csv,"Version 19","List 19",landlady,,550,5,124,0.570726592,551,BOI,-,-,"Please name all of the ways you could use this object. Keep in mind that one object can have many uses. Separate your responses with a comma.",,y,598,,,-1,-1,,,,,1
w10132740_fmm,2j41c6bv28,"Affordance Norms_USM",1,36,2023-09-06T01:08:58+00:00,0.96735501289368,19,"updated stim.csv",Version19.csv,"Version 19","List 19",needlework,,556,4.44,2650,0.64593677,557,BOI,-,-,"Please name all of the ways you could use this object. Keep in mind that one object can have many uses. Separate your responses with a comma.",,y,768,,,-1,-1,,,,,1
w10132740_fmm,2j41c6bv28,"Affordance Norms_USM",1,37,2023-09-06T01:09:02+00:00,4.0416648387909,19,"updated stim.csv",Version19.csv,"Version 19","List 19",pecan,,560,4.44,2960,0.152234376,561,BOI,-,-,"Please name all of the ways you could use this object. Keep in mind that one object can have many uses. Separate your responses with a comma.",,y,3936,,,927,3733,,,,"eating, baking wiht",1
w10132740_fmm,2j41c6bv28,"Affordance Norms_USM",1,38,2023-09-06T01:09:03+00:00,1.0064799785614,19,"updated stim.csv",Version19.csv,"Version 19","List 19",noose,,558,5.653846154,1463,0.56962793,559,BOI,-,-,"Please name all of the ways you could use this object. Keep in mind that one object can have many uses. Separate your responses with a comma.",,y,838,,,-1,-1,,,,,1
w10132740_fmm,2j41c6bv28,"Affordance Norms_USM",1,39,2023-09-06T01:09:09+00:00,6.0704231262207,19,"updated stim.csv",Version19.csv,"Version 19","List 19",housewife,,548,5.5,778,0.071649372,549,BOI,-,-,"Please name all of the ways you could use this object. Keep in mind that one object can have many uses. Separate your responses with a comma.",,y,5990,,,1603,2975,,,,"cleaning, ",1
w10132740_fmm,2j41c6bv28,"Affordance Norms_USM",1,40,2023-09-06T01:09:11+00:00,1.076474905014,19,"updated stim.csv",Version19.csv,"Version 19","List 19",mice,,555,5.72,116,0.596868112,556,BOI,-,-,"Please name all of the ways you could use this object. Keep in mind that one object can have many uses. Separate your responses with a comma.",,y,1005,,,-1,-1,,,,,1
w10132740_fmm,2j41c6bv28,"Affordance Norms_USM",1,41,2023-09-06T01:09:11+00:00,0.94500613212585,19,"updated stim.csv",Version19.csv,"Version 19","List 19",,,,,,,0,Instruct,,,"You will now be asked a few questions about your experience today.",,"Instruct 4",866,,,-1,-1,,,,,1
