Username,ID,ExperimentName,Session,Trial,Date,TimeDif,"Condition Number","Stimuli File","Order File","Condition Description","Condition Notes",Stimuli*Cue,Stimuli*Answer,Stimuli*Shuffle,"Stimuli*Stimuli Notes",Stimuli*Value,Stimuli*Rand,Procedure*Item,"Procedure*Trial Type","Procedure*Max Time","Procedure*Min Time",Procedure*Text,"Procedure*Procedure Notes",Procedure*Shuffle,Response*RT,Response*Response,Response*Accuracy,Response*RTfirst,Response*RTlast,Response*strictAcc,Response*lenientAcc,Response*focus,Response*JOL,Response*Focus
w10157910,qf30dv6uvk,"Affordance Norms_USM",1,1,2023-09-02T00:03:52+00:00,11.201333045959,13,"updated stim.csv",Version13.csv,"Version 13","List 13",,,,,,,0,Instruct,-,10,"In this section, you will be presented with a series of objects. Please name as many possible uses for this object as you can think of by typing them in the box below each object.",,Instruct1,11062,,,-1,-1,,,,,1
w10157910,qf30dv6uvk,"Affordance Norms_USM",1,2,2023-09-02T00:04:25+00:00,33.523375034332,13,"updated stim.csv",Version13.csv,"Version 13","List 13",,,,,,,0,Instruct,-,10,"Please keep in mind that a single object will have more than one use. For example, a ball can be thrown or can be bounced or even stepped on. When listing multiple uses for one object, please separate each use with a comma (i.e., thrown, bounced, stepped on)",,Instruct2,33325,,,-1,-1,,,,,1
w10157910,qf30dv6uvk,"Affordance Norms_USM",1,3,2023-09-02T00:04:27+00:00,1.5919289588928,13,"updated stim.csv",Version13.csv,"Version 13","List 13",,,,,,,0,Instruct,-,-,"Before starting the experiment, you will complete a short practice sesstion. Press ENTER when you are ready to begin.",,Instruct3,1409,,,-1,-1,,,,,1
w10157910,qf30dv6uvk,"Affordance Norms_USM",1,4,2023-09-02T00:05:21+00:00,53.565140962601,13,"updated stim.csv",Version13.csv,"Version 13","List 13",paperwork,,632,4.28,439,0.557499565,633,BOI,-,-,"Please name all of the ways you could use this object. Keep in mind that one object can have many uses. Separate your responses with a comma.",,n,53350,,,3290,44139,,,,"study, work, read, write, submit, review, share, copy, print",1
w10157910,qf30dv6uvk,"Affordance Norms_USM",1,5,2023-09-02T00:05:45+00:00,24.178427934647,13,"updated stim.csv",Version13.csv,"Version 13","List 13",grain,,635,4.708333333,1700,0.685106443,636,BOI,-,-,"Please name all of the ways you could use this object. Keep in mind that one object can have many uses. Separate your responses with a comma.",,n,23884,,,1975,20822,,,,"eat, sprinkle, cook, shred, bake, consume",1
w10157910,qf30dv6uvk,"Affordance Norms_USM",1,6,2023-09-02T00:06:06+00:00,20.762433052063,13,"updated stim.csv",Version13.csv,"Version 13","List 13",shortening,,633,4.961538462,2303,0.081957919,634,BOI,-,-,"Please name all of the ways you could use this object. Keep in mind that one object can have many uses. Separate your responses with a comma.",,n,20559,,,2800,18141,,,,"bake, cook, mix, eat, consume, measure",1
w10157910,qf30dv6uvk,"Affordance Norms_USM",1,7,2023-09-02T00:06:38+00:00,32.598429918289,13,"updated stim.csv",Version13.csv,"Version 13","List 13",spaghetti,,634,4.608695652,2807,0.295026168,635,BOI,-,-,"Please name all of the ways you could use this object. Keep in mind that one object can have many uses. Separate your responses with a comma.",,n,32395,,,1242,30110,,,,"eat, consume, slurp, twirl, spin, grab, cook, boil",1
w10157910,qf30dv6uvk,"Affordance Norms_USM",1,8,2023-09-02T00:07:03+00:00,24.569432973862,13,"updated stim.csv",Version13.csv,"Version 13","List 13",glove,,631,5.217391304,2788,0.288599309,632,BOI,-,-,"Please name all of the ways you could use this object. Keep in mind that one object can have many uses. Separate your responses with a comma.",,n,24368,,,2499,22991,,,,"wear, protect, cover, remove",1
w10157910,qf30dv6uvk,"Affordance Norms_USM",1,9,2023-09-02T00:07:05+00:00,1.9204280376434,13,"updated stim.csv",Version13.csv,"Version 13","List 13",,,,,,,0,Instruct,-,-,"You have completed this section. Press ENTER to continue",,"Instruct 5",1726,,,-1,-1,,,,,1
w10157910,qf30dv6uvk,"Affordance Norms_USM",1,10,2023-09-02T00:07:07+00:00,1.9646260738373,13,"updated stim.csv",Version13.csv,"Version 13","List 13",,,,,,,0,Instruct,-,-,"You will now start the full experiment. Press ENTER when you are ready to begin.",,,1775,,,-1,-1,,,,,1
w10157910,qf30dv6uvk,"Affordance Norms_USM",1,11,2023-09-02T00:07:39+00:00,31.991000890732,13,"updated stim.csv",Version13.csv,"Version 13","List 13",shuffleboard,,381,5.869565217,1646,0.96657729,382,BOI,-,-,"Please name all of the ways you could use this object. Keep in mind that one object can have many uses. Separate your responses with a comma.",,y,31775,,,5108,28121,,,,"play, collaborate, win, lose, experience",1
w10157910,qf30dv6uvk,"Affordance Norms_USM",1,12,2023-09-02T00:08:07+00:00,28.040112018585,13,"updated stim.csv",Version13.csv,"Version 13","List 13",parachute,,370,5.16,53,0.855006191,371,BOI,-,-,"Please name all of the ways you could use this object. Keep in mind that one object can have many uses. Separate your responses with a comma.",,y,27846,,,1715,26565,,,,"fly, float, protect, hover, expand, deploy, pull, protect, save",1
w10157910,qf30dv6uvk,"Affordance Norms_USM",1,13,2023-09-02T00:08:34+00:00,27.596614122391,13,"updated stim.csv",Version13.csv,"Version 13","List 13",soldier,,384,5.791666667,918,0.580572305,385,BOI,-,-,"Please name all of the ways you could use this object. Keep in mind that one object can have many uses. Separate your responses with a comma.",,y,26887,,,1908,17983,,,,"protect, shoot, serve, support, combat, exercise, kill, work",1
w10157910,qf30dv6uvk,"Affordance Norms_USM",1,14,2023-09-02T00:09:06+00:00,31.831702947617,13,"updated stim.csv",Version13.csv,"Version 13","List 13",placard,,373,4.826086957,1405,0.939151548,374,BOI,-,-,"Please name all of the ways you could use this object. Keep in mind that one object can have many uses. Separate your responses with a comma.",,y,31588,,,8120,18432,,,,"identify, name, label, decorate",1
w10157910,qf30dv6uvk,"Affordance Norms_USM",1,15,2023-09-02T00:09:29+00:00,23.214676141739,13,"updated stim.csv",Version13.csv,"Version 13","List 13",oar,,367,4.44,2845,0.79635902,368,BOI,-,-,"Please name all of the ways you could use this object. Keep in mind that one object can have many uses. Separate your responses with a comma.",,y,23016,,,7779,20891,,,,"paddle, swim, float, travel",1
w10157910,qf30dv6uvk,"Affordance Norms_USM",1,16,2023-09-02T00:10:01+00:00,32.123516798019,13,"updated stim.csv",Version13.csv,"Version 13","List 13",nose,,365,6.043478261,1429,0.453664291,366,BOI,-,-,"Please name all of the ways you could use this object. Keep in mind that one object can have many uses. Separate your responses with a comma.",,y,31842,,,1687,30609,,,,"smell, breathe, huff, sniff, sniffle, snot, run, bleed, identify, sense",1
w10157910,qf30dv6uvk,"Affordance Norms_USM",1,17,2023-09-02T00:10:31+00:00,29.602652072906,13,"updated stim.csv",Version13.csv,"Version 13","List 13",peppermint,,372,5.666666667,1523,0.514690223,373,BOI,-,-,"Please name all of the ways you could use this object. Keep in mind that one object can have many uses. Separate your responses with a comma.",,y,29376,,,2250,28168,,,,"minty, breathe, freshen, enhance, eat, taste, consume",1
w10157910,qf30dv6uvk,"Affordance Norms_USM",1,18,2023-09-02T00:11:03+00:00,32.46440410614,13,"updated stim.csv",Version13.csv,"Version 13","List 13",orgy,,369,4.92,2736,0.060076604,370,BOI,-,-,"Please name all of the ways you could use this object. Keep in mind that one object can have many uses. Separate your responses with a comma.",,y,32254,,,28555,29861,,,,sex,1
w10157910,qf30dv6uvk,"Affordance Norms_USM",1,19,2023-09-02T00:11:39+00:00,35.138523817062,13,"updated stim.csv",Version13.csv,"Version 13","List 13",scab,,379,5.28,660,0.699170843,380,BOI,-,-,"Please name all of the ways you could use this object. Keep in mind that one object can have many uses. Separate your responses with a comma.",,y,34942,,,6295,33593,,,,"heal, strengthen, protect, replenish",1
w10157910,qf30dv6uvk,"Affordance Norms_USM",1,20,2023-09-02T00:11:59+00:00,19.986582994461,13,"updated stim.csv",Version13.csv,"Version 13","List 13",practitioner,,374,4.92,1857,0.743916508,375,BOI,-,-,"Please name all of the ways you could use this object. Keep in mind that one object can have many uses. Separate your responses with a comma.",,y,18932,,,2372,16806,,,,"heal, health, inform, study, protect, strengthen",1
w10157910,qf30dv6uvk,"Affordance Norms_USM",1,21,2023-09-02T00:12:24+00:00,25.75546002388,13,"updated stim.csv",Version13.csv,"Version 13","List 13",salve,,377,5,1388,0.230792378,378,BOI,-,-,"Please name all of the ways you could use this object. Keep in mind that one object can have many uses. Separate your responses with a comma.",,y,25481,,,8093,24308,,,,"lotion, protect, moisturize, ointment, replenish",1
w10157910,qf30dv6uvk,"Affordance Norms_USM",1,22,2023-09-02T00:12:56+00:00,31.222634077072,13,"updated stim.csv",Version13.csv,"Version 13","List 13",robe,,376,5.083333333,2670,0.365065355,377,BOI,-,-,"Please name all of the ways you could use this object. Keep in mind that one object can have many uses. Separate your responses with a comma.",,y,31006,,,1941,28301,,,,"dry, cover, warm, shield, protect, comfort",1
w10157910,qf30dv6uvk,"Affordance Norms_USM",1,23,2023-09-02T00:13:18+00:00,22.428730010986,13,"updated stim.csv",Version13.csv,"Version 13","List 13",vaseline,,388,5,639,0.154773771,389,BOI,-,-,"Please name all of the ways you could use this object. Keep in mind that one object can have many uses. Separate your responses with a comma.",,y,22224,,,3168,19816,,,,"moisturize, protect, lotion, chapstick, eyelashes, syrum, skincare",1
w10157910,qf30dv6uvk,"Affordance Norms_USM",1,24,2023-09-02T00:13:42+00:00,23.842189073563,13,"updated stim.csv",Version13.csv,"Version 13","List 13",organ,,368,5.291666667,38,0.945444984,369,BOI,-,-,"Please name all of the ways you could use this object. Keep in mind that one object can have many uses. Separate your responses with a comma.",,y,23651,,,2747,21367,,,,"survive, vital, healthy, save, crutial, pump, bleed, survive",1
w10157910,qf30dv6uvk,"Affordance Norms_USM",1,25,2023-09-02T00:14:04+00:00,22.600975990295,13,"updated stim.csv",Version13.csv,"Version 13","List 13",moccasin,,362,5,2861,0.61166655,363,BOI,-,-,"Please name all of the ways you could use this object. Keep in mind that one object can have many uses. Separate your responses with a comma.",,y,22402,,,3756,21131,,,,"shoes, warm, comfort, protect",1
w10157910,qf30dv6uvk,"Affordance Norms_USM",1,26,2023-09-02T00:14:20+00:00,15.84947180748,13,"updated stim.csv",Version13.csv,"Version 13","List 13",publisher,,375,5.416666667,227,0.420605991,376,BOI,-,-,"Please name all of the ways you could use this object. Keep in mind that one object can have many uses. Separate your responses with a comma.",,y,15657,,,1807,13749,,,,"write, read, publish, correct, edit, supply",1
w10157910,qf30dv6uvk,"Affordance Norms_USM",1,27,2023-09-02T00:14:43+00:00,22.980192184448,13,"updated stim.csv",Version13.csv,"Version 13","List 13",mommy,,363,4.444444444,1833,0.689826492,364,BOI,-,-,"Please name all of the ways you could use this object. Keep in mind that one object can have many uses. Separate your responses with a comma.",,y,22766,,,8610,21674,,,,"comfort, love, protect, console",1
w10157910,qf30dv6uvk,"Affordance Norms_USM",1,28,2023-09-02T00:15:05+00:00,21.670814990997,13,"updated stim.csv",Version13.csv,"Version 13","List 13",nugget,,366,4.391304348,14,0.936846179,367,BOI,-,-,"Please name all of the ways you could use this object. Keep in mind that one object can have many uses. Separate your responses with a comma.",,y,21472,,,2378,18008,,,,"eat, consume, diet",1
w10157910,qf30dv6uvk,"Affordance Norms_USM",1,29,2023-09-02T00:15:24+00:00,18.914077043533,13,"updated stim.csv",Version13.csv,"Version 13","List 13",vomit,,389,4.346153846,2494,0.26351966,390,BOI,-,-,"Please name all of the ways you could use this object. Keep in mind that one object can have many uses. Separate your responses with a comma.",,y,18703,,,8929,17427,,,,"expel, illness, sick",1
w10157910,qf30dv6uvk,"Affordance Norms_USM",1,30,2023-09-02T00:15:40+00:00,16.634652853012,13,"updated stim.csv",Version13.csv,"Version 13","List 13",tunic,,387,4.869565217,2462,0.762225704,388,BOI,-,-,"Please name all of the ways you could use this object. Keep in mind that one object can have many uses. Separate your responses with a comma.",,y,16090,,,11518,14795,,,,"warm, protect, wear",1
w10157910,qf30dv6uvk,"Affordance Norms_USM",1,31,2023-09-02T00:16:02+00:00,21.899122953415,13,"updated stim.csv",Version13.csv,"Version 13","List 13",pear,,371,4.791666667,2777,0.513796891,372,BOI,-,-,"Please name all of the ways you could use this object. Keep in mind that one object can have many uses. Separate your responses with a comma.",,y,21705,,,2503,18944,,,,"eat, diet, nutrients, consume",1
w10157910,qf30dv6uvk,"Affordance Norms_USM",1,32,2023-09-02T00:16:15+00:00,12.711096048355,13,"updated stim.csv",Version13.csv,"Version 13","List 13",spout,,385,6.136363636,2135,0.130502969,386,BOI,-,-,"Please name all of the ways you could use this object. Keep in mind that one object can have many uses. Separate your responses with a comma.",,y,12500,,,3769,10309,,,,"water, hydrate, moisturize",1
w10157910,qf30dv6uvk,"Affordance Norms_USM",1,33,2023-09-02T00:16:35+00:00,19.540060043335,13,"updated stim.csv",Version13.csv,"Version 13","List 13",wallboard,,390,5.64,389,0.578190345,391,BOI,-,-,"Please name all of the ways you could use this object. Keep in mind that one object can have many uses. Separate your responses with a comma.",,y,19358,,,9020,10452,,,,inform,1
w10157910,qf30dv6uvk,"Affordance Norms_USM",1,34,2023-09-02T00:17:00+00:00,25.584999084473,13,"updated stim.csv",Version13.csv,"Version 13","List 13",shrine,,380,5.703703704,2445,0.661757319,381,BOI,-,-,"Please name all of the ways you could use this object. Keep in mind that one object can have many uses. Separate your responses with a comma.",,y,24900,,,13693,23528,,,,"worship, religion, admire, adore",1
w10157910,qf30dv6uvk,"Affordance Norms_USM",1,35,2023-09-02T00:17:18+00:00,17.977137804031,13,"updated stim.csv",Version13.csv,"Version 13","List 13",skirt,,382,4.434782609,1119,0.669574034,383,BOI,-,-,"Please name all of the ways you could use this object. Keep in mind that one object can have many uses. Separate your responses with a comma.",,y,17656,,,5945,16249,,,,"fashion, wear, cheer, flounce",1
w10157910,qf30dv6uvk,"Affordance Norms_USM",1,36,2023-09-02T00:17:41+00:00,22.805198192596,13,"updated stim.csv",Version13.csv,"Version 13","List 13",snowman,,383,4.666666667,685,0.801608849,384,BOI,-,-,"Please name all of the ways you could use this object. Keep in mind that one object can have many uses. Separate your responses with a comma.",,y,22588,,,3619,14776,,,,"snow, freeze, ice, play",1
w10157910,qf30dv6uvk,"Affordance Norms_USM",1,37,2023-09-02T00:17:55+00:00,14.467512845993,13,"updated stim.csv",Version13.csv,"Version 13","List 13",sauerkraut,,378,6,2853,0.512853941,379,BOI,-,-,"Please name all of the ways you could use this object. Keep in mind that one object can have many uses. Separate your responses with a comma.",,y,14258,,,8051,12961,,,,"eat, consume, devour",1
w10157910,qf30dv6uvk,"Affordance Norms_USM",1,38,2023-09-02T00:18:11+00:00,16.052769184113,13,"updated stim.csv",Version13.csv,"Version 13","List 13",storehouse,,386,5.041666667,1938,0.613609609,387,BOI,-,-,"Please name all of the ways you could use this object. Keep in mind that one object can have many uses. Separate your responses with a comma.",,y,15635,,,4888,14459,,,,"store, protect, hide, lock",1
w10157910,qf30dv6uvk,"Affordance Norms_USM",1,39,2023-09-02T00:18:27+00:00,15.70201587677,13,"updated stim.csv",Version13.csv,"Version 13","List 13",lozenge,,361,4.52,2002,0.997042581,362,BOI,-,-,"Please name all of the ways you could use this object. Keep in mind that one object can have many uses. Separate your responses with a comma.",,y,15396,,,3266,13795,,,,"soothe, heal, comfort, eat, consume",1
w10157910,qf30dv6uvk,"Affordance Norms_USM",1,40,2023-09-02T00:18:39+00:00,12.089112997055,13,"updated stim.csv",Version13.csv,"Version 13","List 13",mule,,364,5.375,2879,0.532098663,365,BOI,-,-,"Please name all of the ways you could use this object. Keep in mind that one object can have many uses. Separate your responses with a comma.",,y,11891,,,1827,10643,,,,"donkey, travel, transport, eat",1
w10157910,qf30dv6uvk,"Affordance Norms_USM",1,41,2023-09-02T00:18:42+00:00,2.6057600975037,13,"updated stim.csv",Version13.csv,"Version 13","List 13",,,,,,,0,Instruct,,,"You will now be asked a few questions about your experience today.",,"Instruct 4",2412,,,-1,-1,,,,,1
