"Username","Trial","Condition.Number","Condition.Notes","Stimuli.Cue","Procedure.Item","Procedure.Max.Time","Procedure.Min.Time","Response.RT","Response.RTfirst","Response.RTlast","affordance","affordance_corrected","affordance_lemma","POS"
"10012878_CL",11,2,"List 2","undergarment",59,"-","-",46282,2552,29816,"wearing","wearing","wear","VERB"
"10012878_CL",11,2,"List 2","undergarment",59,"-","-",46282,2552,29816,"throwing","throwing","throw","VERB"
"10012878_CL",11,2,"List 2","undergarment",59,"-","-",46282,2552,29816,"fashion","fashion","fashion","NOUN"
"10012878_CL",11,2,"List 2","undergarment",59,"-","-",46282,2552,29816,"coverage","coverage","coverage","NOUN"
"10012878_CL",11,2,"List 2","undergarment",59,"-","-",46282,2552,29816,"attention","attention","attention","NOUN"
"10012878_CL",12,2,"List 2","assemblyman",60,"-","-",36999,3300,22327,"construction","construction","construction","NOUN"
"10012878_CL",12,2,"List 2","assemblyman",60,"-","-",36999,3300,22327,"assistance","assistance","assistance","NOUN"
"10012878_CL",12,2,"List 2","assemblyman",60,"-","-",36999,3300,22327,"work","work","work","NOUN"
"10012878_CL",13,2,"List 2","trap",58,"-","-",26276,5017,10520,"opening","opening","open","NOUN"
"10012878_CL",13,2,"List 2","trap",58,"-","-",26276,5017,10520,"closing","closing","closing","NOUN"
"10012878_CL",13,2,"List 2","trap",58,"-","-",26276,5017,10520,"tricking","tricking","tricke","VERB"
"10012878_CL",14,2,"List 2","lettuce",34,"-","-",24155,2118,22202,"salad","salad","salad","NOUN"
"10012878_CL",14,2,"List 2","lettuce",34,"-","-",24155,2118,22202,"food","food","food","NOUN"
"10012878_CL",14,2,"List 2","lettuce",34,"-","-",24155,2118,22202,"cooking","cooking","cook","NOUN"
"10012878_CL",14,2,"List 2","lettuce",34,"-","-",24155,2118,22202,"feed","feed","feed","NOUN"
"10012878_CL",14,2,"List 2","lettuce",34,"-","-",24155,2118,22202,"tossing","tossing","toss","NOUN"
"10012878_CL",15,2,"List 2","courtyard",32,"-","-",45778,2611,11453,"viewing","viewing","viewe","VERB"
"10012878_CL",15,2,"List 2","courtyard",32,"-","-",45778,2611,11453,"relaxing","relaxing","relax","VERB"
"10012878_CL",16,2,"List 2","godmother",47,"-","-",15972,1974,14738,"talking","talking","talk","VERB"
"10012878_CL",16,2,"List 2","godmother",47,"-","-",15972,1974,14738,"asking","asking","ask","VERB"
"10012878_CL",16,2,"List 2","godmother",47,"-","-",15972,1974,14738,"cooking","cooking","cook","NOUN"
"10012878_CL",16,2,"List 2","godmother",47,"-","-",15972,1974,14738,"parenting","parenting","parent","NOUN"
"10012878_CL",17,2,"List 2","skittles",39,"-","-",20662,2281,19370,"eating","eating","eat","VERB"
"10012878_CL",17,2,"List 2","skittles",39,"-","-",20662,2281,19370,"art","art","art","NOUN"
"10012878_CL",17,2,"List 2","skittles",39,"-","-",20662,2281,19370,"satisfaction","satisfaction","satisfaction","NOUN"
"10012878_CL",18,2,"List 2","mice",48,"-","-",27840,1581,26627,"experiments","experiments","experiment","NOUN"
"10012878_CL",18,2,"List 2","mice",48,"-","-",27840,1581,26627,"feed","feed","feed","NOUN"
"10012878_CL",18,2,"List 2","mice",48,"-","-",27840,1581,26627,"entertainment","entertainment","entertainment","NOUN"
"10012878_CL",19,2,"List 2","barman",40,"-","-",11157,1690,10027,"drinks","drinks","drink","NOUN"
"10012878_CL",19,2,"List 2","barman",40,"-","-",11157,1690,10027,"mixing","mixing","mix","NOUN"
"10012878_CL",19,2,"List 2","barman",40,"-","-",11157,1690,10027,"conversation","conversation","conversation","NOUN"
"10012878_CL",20,2,"List 2","coverall",51,"-","-",17503,5015,16482,"coverage","coverage","coverage","NOUN"
"10012878_CL",20,2,"List 2","coverall",51,"-","-",17503,5015,16482,"fashion","fashion","fashion","NOUN"
"10012878_CL",20,2,"List 2","coverall",51,"-","-",17503,5015,16482,"clothing","clothing","clothing","NOUN"
"10012878_CL",21,2,"List 2","satchel",37,"-","-",13891,1962,12488,"fashion","fashion","fashion","NOUN"
"10012878_CL",21,2,"List 2","satchel",37,"-","-",13891,1962,12488,"carrying","carrying","carry","VERB"
"10012878_CL",21,2,"List 2","satchel",37,"-","-",13891,1962,12488,"holding","holding","hold","NOUN"
"10012878_CL",22,2,"List 2","goalpost",38,"-","-",11187,3386,10224,"scoring","scoring","scoring","NOUN"
"10012878_CL",22,2,"List 2","goalpost",38,"-","-",11187,3386,10224,"sports","sports","sport","NOUN"
"10012878_CL",22,2,"List 2","goalpost",38,"-","-",11187,3386,10224,"catching","catching","catch","VERB"
"10012878_CL",23,2,"List 2","hotplate",46,"-","-",17529,2273,4699,"warming","warming","war","NOUN"
"10012878_CL",23,2,"List 2","hotplate",46,"-","-",17529,2273,4699,"food","food","food","NOUN"
"10012878_CL",24,2,"List 2","blower",54,"-","-",19770,2976,18475,"blowing","blowing","blow","VERB"
"10012878_CL",24,2,"List 2","blower",54,"-","-",19770,2976,18475,"assistance","assistance","assistance","NOUN"
"10012878_CL",25,2,"List 2","yogurt",50,"-","-",10184,1620,9089,"consumption","consumption","consumption","NOUN"
"10012878_CL",25,2,"List 2","yogurt",50,"-","-",10184,1620,9089,"food","food","food","NOUN"
"10012878_CL",25,2,"List 2","yogurt",50,"-","-",10184,1620,9089,"hunger","hunger","hunger","NOUN"
"10012878_CL",26,2,"List 2","teabag",43,"-","-",14432,1777,13346,"mixing","mixing","mix","NOUN"
"10012878_CL",26,2,"List 2","teabag",43,"-","-",14432,1777,13346,"making","making","make","NOUN"
"10012878_CL",26,2,"List 2","teabag",43,"-","-",14432,1777,13346,"tea","tea","tea","NOUN"
"10012878_CL",26,2,"List 2","teabag",43,"-","-",14432,1777,13346,"drink","drink","drink","NOUN"
"10012878_CL",27,2,"List 2","gondola",53,"-","-",30249,6148,29227,"viewing","viewing","viewe","VERB"
"10012878_CL",27,2,"List 2","gondola",53,"-","-",30249,6148,29227,"entertainment","entertainment","entertainment","NOUN"
"10012878_CL",27,2,"List 2","gondola",53,"-","-",30249,6148,29227,"privacy","privacy","privacy","NOUN"
"10012878_CL",27,2,"List 2","gondola",53,"-","-",30249,6148,29227,"relaxing","relaxing","relax","VERB"
"10012878_CL",27,2,"List 2","gondola",53,"-","-",30249,6148,29227,"fun","fun","fun","NOUN"
"10012878_CL",27,2,"List 2","gondola",53,"-","-",30249,6148,29227,"vacation","vacation","vacation","NOUN"
"10012878_CL",28,2,"List 2","antibiotics",56,"-","-",16197,1627,15134,"medicine","medicine","medicine","NOUN"
"10012878_CL",28,2,"List 2","antibiotics",56,"-","-",16197,1627,15134,"treatment","treatment","treatment","NOUN"
"10012878_CL",28,2,"List 2","antibiotics",56,"-","-",16197,1627,15134,"illnesses","illnesses","illness","NOUN"
"10012878_CL",28,2,"List 2","antibiotics",56,"-","-",16197,1627,15134,"curing","curing","cure","NOUN"
"10012878_CL",29,2,"List 2","tripe",57,"-","-",47141,40718,46054,"consuming","consuming","consume","VERB"
"10012878_CL",29,2,"List 2","tripe",57,"-","-",47141,40718,46054,"eating","eating","eat","VERB"
"10012878_CL",30,2,"List 2","dolphin",49,"-","-",14868,1307,13808,"swimming","swimming","swimm","VERB"
"10012878_CL",30,2,"List 2","dolphin",49,"-","-",14868,1307,13808,"talking","talking","talk","VERB"
"10012878_CL",30,2,"List 2","dolphin",49,"-","-",14868,1307,13808,"entertainment","entertainment","entertainment","NOUN"
"10012878_CL",31,2,"List 2","bottle",36,"-","-",16548,1263,15582,"drinking","drinking","drink","VERB"
"10012878_CL",31,2,"List 2","bottle",36,"-","-",16548,1263,15582,"holding","holding","hold","NOUN"
"10012878_CL",31,2,"List 2","bottle",36,"-","-",16548,1263,15582,"filling","filling","fill","NOUN"
"10012878_CL",31,2,"List 2","bottle",36,"-","-",16548,1263,15582,"preserving","preserving","preserve","VERB"
"10012878_CL",32,2,"List 2","turban",41,"-","-",23563,1751,22148,"holding","holding","hold","NOUN"
"10012878_CL",32,2,"List 2","turban",41,"-","-",23563,1751,22148,"fashion","fashion","fashion","NOUN"
"10012878_CL",32,2,"List 2","turban",41,"-","-",23563,1751,22148,"religion","religion","religion","NOUN"
"10012878_CL",33,2,"List 2","gunpowder",55,"-","-",16301,1761,11694,"shooting","shooting","shoot","NOUN"
"10012878_CL",33,2,"List 2","gunpowder",55,"-","-",16301,1761,11694,"crafting","crafting","craft","NOUN"
"10012878_CL",33,2,"List 2","gunpowder",55,"-","-",16301,1761,11694,"making","making","make","NOUN"
"10012878_CL",33,2,"List 2","gunpowder",55,"-","-",16301,1761,11694,"bullets","bullets","bullet","NOUN"
"10012878_CL",34,2,"List 2","prankster",52,"-","-",14664,1444,13641,"jokes","jokes","joke","NOUN"
"10012878_CL",34,2,"List 2","prankster",52,"-","-",14664,1444,13641,"views","views","views","NOUN"
"10012878_CL",34,2,"List 2","prankster",52,"-","-",14664,1444,13641,"laughter","laughter","laughter","NOUN"
"10012878_CL",34,2,"List 2","prankster",52,"-","-",14664,1444,13641,"entertainment","entertainment","entertainment","NOUN"
"10012878_CL",35,2,"List 2","newscaster",33,"-","-",15187,2841,13990,"gossip","gossip","gossip","NOUN"
"10012878_CL",35,2,"List 2","newscaster",33,"-","-",15187,2841,13990,"entertainment","entertainment","entertainment","NOUN"
"10012878_CL",35,2,"List 2","newscaster",33,"-","-",15187,2841,13990,"curiousity","curiosity","curiosity","NOUN"
"10012878_CL",36,2,"List 2","rainwater",61,"-","-",22051,4133,19190,"recycling","recycling","recycl","VERB"
"10012878_CL",36,2,"List 2","rainwater",61,"-","-",22051,4133,19190,"drink","drink","drink","NOUN"
"10012878_CL",36,2,"List 2","rainwater",61,"-","-",22051,4133,19190,"planting","planting","plan","VERB"
"10012878_CL",36,2,"List 2","rainwater",61,"-","-",22051,4133,19190,"farming","farming","far","NOUN"
"10012878_CL",37,2,"List 2","yourself",35,"-","-",54671,3313,24213,"adventures","adventures","adventure","NOUN"
"10012878_CL",37,2,"List 2","yourself",35,"-","-",54671,3313,24213,"entertainment","entertainment","entertainment","NOUN"
"10012878_CL",38,2,"List 2","boot",42,"-","-",5967,1267,5151,"walking","walking","walk","NOUN"
"10012878_CL",38,2,"List 2","boot",42,"-","-",5967,1267,5151,"stomping","stomping","stomp","NOUN"
"10012878_CL",39,2,"List 2","toy",44,"-","-",6401,1215,4583,"playing","playing","play","VERB"
"10012878_CL",39,2,"List 2","toy",44,"-","-",6401,1215,4583,"entertainment","entertainment","entertainment","NOUN"
"10012878_CL",40,2,"List 2","choreographer",45,"-","-",9942,1277,5927,"art","art","art","NOUN"
"10012878_CL",40,2,"List 2","choreographer",45,"-","-",9942,1277,5927,"dancing","dancing","dancing","NOUN"
"10016155",11,24,"List 74","engineer",2203,"-","-",27448,3665,24400,"chemical","chemical","chemical","ADJ"
"10016155",11,24,"List 74","engineer",2203,"-","-",27448,3665,24400,"electrical","electrical","electrical","ADJ"
"10016155",11,24,"List 74","engineer",2203,"-","-",27448,3665,24400,"mechanical","mechanical","mechanical","ADJ"
"10016155",12,24,"List 74","watchband",2207,"-","-",12292,2447,11625,"worn","worn","wear","ADJ"
"10016155",12,24,"List 74","watchband",2207,"-","-",12292,2447,11625,"used","used","use","VERB"
"10016155",12,24,"List 74","watchband",2207,"-","-",12292,2447,11625,"touched","touched","touch","VERB"
"10016155",13,24,"List 74","abacus",2197,"-","-",17071,14472,15439,"thrown","thrown","throw","VERB"
"10016155",15,24,"List 74","duster",2192,"-","-",8561,3584,7898,"clean","clean","clean","ADJ"
"10016155",15,24,"List 74","duster",2192,"-","-",8561,3584,7898,"pick","pick","pick","VERB"
"10016155",16,24,"List 74","eyewash",2220,"-","-",15596,2915,10132,"ease","ease","ease","INTJ"
"10016155",16,24,"List 74","eyewash",2220,"-","-",15596,2915,10132,"pain","pain","pain","NOUN"
"10016155",16,24,"List 74","eyewash",2220,"-","-",15596,2915,10132,"rinse","rinse","rinse","NOUN"
"10016155",17,24,"List 74","underclothing",2200,"-","-",13476,3366,12946,"worn","worn","wear","ADJ"
"10016155",17,24,"List 74","underclothing",2200,"-","-",13476,3366,12946,"washed","washed","washed","VERB"
"10016155",17,24,"List 74","underclothing",2200,"-","-",13476,3366,12946,"folded","folded","fold","VERB"
"10016155",18,24,"List 74","lunchroom",2201,"-","-",16962,12765,16635,"eat","eat","eat","VERB"
"10016155",19,24,"List 74","percolator",2195,"-","-",3887,3127,3413,"idk","id","id","NOUN"
"10016155",20,24,"List 74","props",2221,"-","-",5081,2079,4813,"used","used","use","VERB"
"10016155",20,24,"List 74","props",2221,"-","-",5081,2079,4813,"play","play","play","VERB"
"10016155",21,24,"List 74","teacher",2202,"-","-",8168,4143,7831,"help","help","help","VERB"
"10016155",21,24,"List 74","teacher",2202,"-","-",8168,4143,7831,"students","students","student","NOUN"
"10016155",21,24,"List 74","teacher",2202,"-","-",8168,4143,7831,"learn","learn","learn","VERB"
"10016155",22,24,"List 74","electrician",2211,"-","-",14855,2488,14346,"works","works","work","VERB"
"10016155",22,24,"List 74","electrician",2211,"-","-",14855,2488,14346,"electrical","electrical","electrical","ADJ"
"10016155",22,24,"List 74","electrician",2211,"-","-",14855,2488,14346,"problems","problems","problem","NOUN"
"10016155",22,24,"List 74","electrician",2211,"-","-",14855,2488,14346,"issues","issues","issue","NOUN"
"10016155",23,24,"List 74","flaxseed",2216,"-","-",6553,1837,6202,"eaten","eaten","eat","VERB"
"10016155",23,24,"List 74","flaxseed",2216,"-","-",6553,1837,6202,"grown","grown","grow","VERB"
"10016155",24,24,"List 74","gasket",2208,"-","-",12374,8656,10866,"used","used","use","VERB"
"10016155",24,24,"List 74","gasket",2208,"-","-",12374,8656,10866,"fixe","fix","fix","VERB"
"10016155",25,24,"List 74","trench",2218,"-","-",9216,2206,8917,"dug","dug","dig","VERB"
"10016155",25,24,"List 74","trench",2218,"-","-",9216,2206,8917,"walk","walk","walk","VERB"
"10016155",26,24,"List 74","rowboat",2194,"-","-",11358,2741,11030,"get","get","get","VERB"
"10016155",26,24,"List 74","rowboat",2194,"-","-",11358,2741,11030,"places","places","place","NOUN"
"10016155",27,24,"List 74","thumbtack",2210,"-","-",10786,4237,10411,"hold","hold","hold","INTJ"
"10016155",27,24,"List 74","thumbtack",2210,"-","-",10786,4237,10411,"something","something","something","PRON"
"10016155",28,24,"List 74","tangerine",2214,"-","-",7545,2032,7292,"eaten","eaten","eat","VERB"
"10016155",28,24,"List 74","tangerine",2214,"-","-",7545,2032,7292,"picked","picked","pick","VERB"
"10016155",28,24,"List 74","tangerine",2214,"-","-",7545,2032,7292,"grown","grown","grow","VERB"
"10016155",29,24,"List 74","coaster",2204,"-","-",11278,3962,10225,"hold","hold","hold","INTJ"
"10016155",29,24,"List 74","coaster",2204,"-","-",11278,3962,10225,"drinks","drinks","drink","NOUN"
"10016155",30,24,"List 74","shank",2205,"-","-",3401,1781,2480,"stab","stab","stab","NOUN"
"10016155",31,24,"List 74","parchment",2219,"-","-",6892,3297,6706,"used","used","use","VERB"
"10016155",31,24,"List 74","parchment",2219,"-","-",6892,3297,6706,"cooking","cooking","cook","NOUN"
"10016155",32,24,"List 74","tablecloth",2213,"-","-",8240,1629,7989,"used","used","use","VERB"
"10016155",32,24,"List 74","tablecloth",2213,"-","-",8240,1629,7989,"help","help","help","VERB"
"10016155",32,24,"List 74","tablecloth",2213,"-","-",8240,1629,7989,"keep","keep","keep","VERB"
"10016155",32,24,"List 74","tablecloth",2213,"-","-",8240,1629,7989,"table","table","table","NOUN"
"10016155",32,24,"List 74","tablecloth",2213,"-","-",8240,1629,7989,"clean","clean","clean","ADJ"
"10016155",33,24,"List 74","worksheet",2198,"-","-",6433,2387,6147,"turn","turn","turn","VERB"
"10016155",33,24,"List 74","worksheet",2198,"-","-",6433,2387,6147,"work","work","work","NOUN"
"10016155",34,24,"List 74","stem",2196,"-","-",6604,5472,6471,"picked","picked","pick","VERB"
"10016155",35,24,"List 74","lunch",2212,"-","-",2173,1108,1886,"eaten","eaten","eat","VERB"
"10016155",36,24,"List 74","cheek",2193,"-","-",11216,4528,11035,"gets","gets","get","VERB"
"10016155",36,24,"List 74","cheek",2193,"-","-",11216,4528,11035,"red","red","re","ADJ"
"10016155",36,24,"List 74","cheek",2193,"-","-",11216,4528,11035,"helps","helps","help","VERB"
"10016155",36,24,"List 74","cheek",2193,"-","-",11216,4528,11035,"smile","smile","smile","VERB"
"10016155",37,24,"List 74","salamander",2206,"-","-",13764,4657,13292,"pet","pet","pet","NOUN"
"10016155",37,24,"List 74","salamander",2206,"-","-",13764,4657,13292,"wild","wild","wild","ADJ"
"10016155",37,24,"List 74","salamander",2206,"-","-",13764,4657,13292,"also","also","also","ADV"
"10016155",38,24,"List 74","ruler",2217,"-","-",5872,1748,5652,"used","used","use","VERB"
"10016155",38,24,"List 74","ruler",2217,"-","-",5872,1748,5652,"measure","measure","measure","NOUN"
"10016155",39,24,"List 74","stepbrother",2215,"-","-",9883,3092,9686,"advice","advice","advice","NOUN"
"10016155",39,24,"List 74","stepbrother",2215,"-","-",9883,3092,9686,"quality","quality","quality","NOUN"
"10016155",39,24,"List 74","stepbrother",2215,"-","-",9883,3092,9686,"time","time","time","NOUN"
"10016155",40,24,"List 74","stage",2209,"-","-",9937,2876,9383,"perform","perform","perform","VERB"
"10016155",40,24,"List 74","stage",2209,"-","-",9937,2876,9383,"sing","sing","se","VERB"
"10016155",40,24,"List 74","stage",2209,"-","-",9937,2876,9383,"dance","dance","dance","NOUN"
"10016155",40,24,"List 74","stage",2209,"-","-",9937,2876,9383,"worship","worship","worship","NOUN"
"10032501AW",11,11,"List 11","billiards",328,"-","-",86845,57245,82431,"sitting","sitting","sit","VERB"
"10032501AW",11,11,"List 11","billiards",328,"-","-",86845,57245,82431,"coaster","coaster","coaster","NOUN"
"10032501AW",11,11,"List 11","billiards",328,"-","-",86845,57245,82431,"storage","storage","storage","NOUN"
"10032501AW",11,11,"List 11","billiards",328,"-","-",86845,57245,82431,"table","table","table","NOUN"
"10032501AW",12,11,"List 11","mongoose",330,"-","-",17212,5249,11497,"eaten","eaten","eat","VERB"
"10032501AW",12,11,"List 11","mongoose",330,"-","-",17212,5249,11497,"cooked","cooked","cook","VERB"
"10032501AW",12,11,"List 11","mongoose",330,"-","-",17212,5249,11497,"pet","pet","pet","NOUN"
"10032501AW",13,11,"List 11","village",322,"-","-",36352,6554,25275,"visit","visit","visit","VERB"
"10032501AW",13,11,"List 11","village",322,"-","-",36352,6554,25275,"resident","resident","resident","NOUN"
"10032501AW",14,11,"List 11","hibachi",313,"-","-",29292,24679,25435,"cooking","cooking","cook","NOUN"
"10032501AW",15,11,"List 11","furnace",331,"-","-",11514,2131,4409,"heating","heating","heating","NOUN"
"10032501AW",15,11,"List 11","furnace",331,"-","-",11514,2131,4409,"burning","burning","burn","VERB"
"10032501AW",16,11,"List 11","apartments",310,"-","-",34165,5595,33084,"tenant","tenant","tenant","NOUN"
"10032501AW",16,11,"List 11","apartments",310,"-","-",34165,5595,33084,"sleep","sleep","sleep","NOUN"
"10032501AW",16,11,"List 11","apartments",310,"-","-",34165,5595,33084,"cook","cook","cake","VERB"
"10032501AW",16,11,"List 11","apartments",310,"-","-",34165,5595,33084,"eat","eat","eat","VERB"
"10032501AW",16,11,"List 11","apartments",310,"-","-",34165,5595,33084,"clean","clean","clean","ADJ"
"10032501AW",16,11,"List 11","apartments",310,"-","-",34165,5595,33084,"storage","storage","storage","NOUN"
"10032501AW",16,11,"List 11","apartments",310,"-","-",34165,5595,33084,"shelter","shelter","shelter","NOUN"
"10032501AW",17,11,"List 11","teaspoonful",323,"-","-",42647,11953,34526,"seasoning","seasoning","season","VERB"
"10032501AW",17,11,"List 11","teaspoonful",323,"-","-",42647,11953,34526,"sweetener","sweetener","sweetener","NOUN"
"10032501AW",17,11,"List 11","teaspoonful",323,"-","-",42647,11953,34526,"mix","mix","mix","NOUN"
"10032501AW",17,11,"List 11","teaspoonful",323,"-","-",42647,11953,34526,"scoop","scoop","scoop","NOUN"
"10032501AW",18,11,"List 11","flowerpot",315,"-","-",15826,2169,4115,"plant","plant","plant","NOUN"
"10032501AW",18,11,"List 11","flowerpot",315,"-","-",15826,2169,4115,"storage","storage","storage","NOUN"
"10032501AW",19,11,"List 11","grandchild",316,"-","-",25033,2346,24053,"play","play","play","VERB"
"10032501AW",19,11,"List 11","grandchild",316,"-","-",25033,2346,24053,"care","care","care","NOUN"
"10032501AW",20,11,"List 11","taffy",324,"-","-",27432,2447,24919,"eat","eat","eat","VERB"
"10032501AW",20,11,"List 11","taffy",324,"-","-",27432,2447,24919,"stretch","stretch","stretch","NOUN"
"10032501AW",20,11,"List 11","taffy",324,"-","-",27432,2447,24919,"suck","suck","suck","VERB"
"10032501AW",20,11,"List 11","taffy",324,"-","-",27432,2447,24919,"bite","bite","bite","X"
"10032501AW",20,11,"List 11","taffy",324,"-","-",27432,2447,24919,"lick","lick","lick","NOUN"
"10032501AW",20,11,"List 11","taffy",324,"-","-",27432,2447,24919,"tear","tear","tear","NOUN"
"10032501AW",20,11,"List 11","taffy",324,"-","-",27432,2447,24919,"crush","crush","crush","NOUN"
"10032501AW",20,11,"List 11","taffy",324,"-","-",27432,2447,24919,"melt","melt","melt","NOUN"
"10032501AW",21,11,"List 11","mullets",319,"-","-",18045,2055,15458,"cut","cut","cut","VERB"
"10032501AW",21,11,"List 11","mullets",319,"-","-",18045,2055,15458,"washed","washed","washed","VERB"
"10032501AW",21,11,"List 11","mullets",319,"-","-",18045,2055,15458,"dyed","dyed","dye","ADJ"
"10032501AW",21,11,"List 11","mullets",319,"-","-",18045,2055,15458,"straightened","straightened","straighten","VERB"
"10032501AW",21,11,"List 11","mullets",319,"-","-",18045,2055,15458,"curled","curled","curl","VERB"
"10032501AW",22,11,"List 11","flatiron",311,"-","-",24782,5684,23726,"hold","hold","hold","INTJ"
"10032501AW",22,11,"List 11","flatiron",311,"-","-",24782,5684,23726,"weapon","weapon","weapon","NOUN"
"10032501AW",22,11,"List 11","flatiron",311,"-","-",24782,5684,23726,"straighten","straighten","straighten","ADV"
"10032501AW",23,11,"List 11","bondsman",308,"-","-",71479,41760,68725,"hug","hug","hug","X"
"10032501AW",23,11,"List 11","bondsman",308,"-","-",71479,41760,68725,"hit","hit","hit","VERB"
"10032501AW",24,11,"List 11","raincoat",326,"-","-",23484,1979,15435,"wear","wear","wear","VERB"
"10032501AW",24,11,"List 11","raincoat",326,"-","-",23484,1979,15435,"fold","fold","fold","VERB"
"10032501AW",24,11,"List 11","raincoat",326,"-","-",23484,1979,15435,"burn","burn","burn","VERB"
"10032501AW",24,11,"List 11","raincoat",326,"-","-",23484,1979,15435,"shelter","shelter","shelter","NOUN"
"10032501AW",25,11,"List 11","casserole",306,"-","-",22414,3166,18461,"eat","eat","eat","VERB"
"10032501AW",25,11,"List 11","casserole",306,"-","-",22414,3166,18461,"reheat","reheat","reheat","NOUN"
"10032501AW",25,11,"List 11","casserole",306,"-","-",22414,3166,18461,"scoop","scoop","scoop","NOUN"
"10032501AW",25,11,"List 11","casserole",306,"-","-",22414,3166,18461,"stab","stab","stab","NOUN"
"10032501AW",26,11,"List 11","crust",304,"-","-",8475,2169,7390,"eat","eat","eat","VERB"
"10032501AW",26,11,"List 11","crust",304,"-","-",8475,2169,7390,"crushed","crushed","crush","VERB"
"10032501AW",26,11,"List 11","crust",304,"-","-",8475,2169,7390,"cut","cut","cut","VERB"
"10032501AW",27,11,"List 11","molasses",321,"-","-",30848,1931,29847,"syrup","syrup","syrup","NOUN"
"10032501AW",27,11,"List 11","molasses",321,"-","-",30848,1931,29847,"lick","lick","lick","NOUN"
"10032501AW",27,11,"List 11","molasses",321,"-","-",30848,1931,29847,"sweetner","sweetener","sweetener","NOUN"
"10032501AW",28,11,"List 11","butt",312,"-","-",20240,5097,15604,"slap","slap","slap","NOUN"
"10032501AW",28,11,"List 11","butt",312,"-","-",20240,5097,15604,"fondle","fondle","fondle","NOUN"
"10032501AW",28,11,"List 11","butt",312,"-","-",20240,5097,15604,"rub","rub","rub","NOUN"
"10032501AW",28,11,"List 11","butt",312,"-","-",20240,5097,15604,"cushion","cushion","cushion","NOUN"
"10032501AW",29,11,"List 11","parakeet",329,"-","-",8809,4277,4781,"pet","pet","pet","NOUN"
"10032501AW",30,11,"List 11","nut",307,"-","-",26911,6352,20166,"eat","eat","eat","VERB"
"10032501AW",30,11,"List 11","nut",307,"-","-",26911,6352,20166,"crush","crush","crush","NOUN"
"10032501AW",30,11,"List 11","nut",307,"-","-",26911,6352,20166,"topping","topping","topping","NOUN"
"10032501AW",31,11,"List 11","pan",327,"-","-",12572,4371,11411,"fry","fry","fry","NOUN"
"10032501AW",31,11,"List 11","pan",327,"-","-",12572,4371,11411,"clean","clean","clean","ADJ"
"10032501AW",31,11,"List 11","pan",327,"-","-",12572,4371,11411,"weapon","weapon","weapon","NOUN"
"10032501AW",32,11,"List 11","corn",317,"-","-",14705,1645,11298,"eat","eat","eat","VERB"
"10032501AW",32,11,"List 11","corn",317,"-","-",14705,1645,11298,"boil","boil","boil","NOUN"
"10032501AW",32,11,"List 11","corn",317,"-","-",14705,1645,11298,"crush","crush","crush","NOUN"
"10032501AW",32,11,"List 11","corn",317,"-","-",14705,1645,11298,"ingredient","ingredient","ingredient","NOUN"
"10032501AW",33,11,"List 11","stepdaughter",314,"-","-",11812,4348,4951,"hug","hug","hug","X"
"10032501AW",34,11,"List 11","trigger",320,"-","-",7852,4875,5298,"push","push","push","INTJ"
"10032501AW",35,11,"List 11","belt",318,"-","-",11412,6058,9802,"accessory","accessory","accessory","INTJ"
"10032501AW",35,11,"List 11","belt",318,"-","-",11412,6058,9802,"weapon","weapon","weapon","NOUN"
"10032501AW",36,11,"List 11","acupuncture",302,"-","-",14969,5538,14075,"weapon","weapon","weapon","NOUN"
"10032501AW",36,11,"List 11","acupuncture",302,"-","-",14969,5538,14075,"medical","medical","medical","ADJ"
"10032501AW",36,11,"List 11","acupuncture",302,"-","-",14969,5538,14075,"tool","tool","tool","NOUN"
"10032501AW",37,11,"List 11","rectum",309,"-","-",33346,6813,32299,"stretched","stretched","stretch","VERB"
"10032501AW",37,11,"List 11","rectum",309,"-","-",33346,6813,32299,"exit","exit","exit","NOUN"
"10032501AW",38,11,"List 11","device",303,"-","-",51612,1846,41935,"diary","diary","diary","INTJ"
"10032501AW",38,11,"List 11","device",303,"-","-",51612,1846,41935,"book","book","book","NOUN"
"10032501AW",38,11,"List 11","device",303,"-","-",51612,1846,41935,"storage","storage","storage","NOUN"
"10032501AW",39,11,"List 11","dirt",325,"-","-",11728,7083,7693,"dug","dug","dug","X"
"10032501AW",40,11,"List 11","kettledrum",305,"-","-",72159,67847,69822,"instrument","instrument","instrument","NOUN"
"10043633MWA",11,11,"List 36","edibles",1064,"-","-",35909,1425,10472,"eaten","eaten","eat","VERB"
"10043633MWA",11,11,"List 36","edibles",1064,"-","-",35909,1425,10472,"made","made","make","VERB"
"10043633MWA",11,11,"List 36","edibles",1064,"-","-",35909,1425,10472,"sold","sold","sell","VERB"
"10043633MWA",11,11,"List 36","edibles",1064,"-","-",35909,1425,10472,"bought","bought","buy","NOUN"
"10043633MWA",12,11,"List 36","barber",1061,"-","-",17695,3398,14821,"called","called","call","VERB"
"10043633MWA",12,11,"List 36","barber",1061,"-","-",17695,3398,14821,"used","used","use","VERB"
"10043633MWA",12,11,"List 36","barber",1061,"-","-",17695,3398,14821,"killed","killed","kill","VERB"
"10043633MWA",13,11,"List 36","alfalfa",1074,"-","-",30951,7184,16502,"listened","listened","listen","VERB"
"10043633MWA",13,11,"List 36","alfalfa",1074,"-","-",30951,7184,16502,"watched","watched","watch","VERB"
"10043633MWA",13,11,"List 36","alfalfa",1074,"-","-",30951,7184,16502,"talk","talk","talk","VERB"
"10043633MWA",14,11,"List 36","evergreen",1079,"-","-",23631,13599,22337,"seen","seen","see","VERB"
"10043633MWA",14,11,"List 36","evergreen",1079,"-","-",23631,13599,22337,"sold","sold","sell","VERB"
"10043633MWA",14,11,"List 36","evergreen",1079,"-","-",23631,13599,22337,"cut","cut","cut","VERB"
"10043633MWA",14,11,"List 36","evergreen",1079,"-","-",23631,13599,22337,"viewed","viewed","viewed","VERB"
"10043633MWA",15,11,"List 36","flashbulb",1077,"-","-",20826,2940,20705,"broken","broken","break","VERB"
"10043633MWA",15,11,"List 36","flashbulb",1077,"-","-",20826,2940,20705,"turned","turned","turn","VERB"
"10043633MWA",15,11,"List 36","flashbulb",1077,"-","-",20826,2940,20705,"turned","turned","turn","VERB"
"10043633MWA",15,11,"List 36","flashbulb",1077,"-","-",20826,2940,20705,"bought","bought","buy","NOUN"
"10043633MWA",15,11,"List 36","flashbulb",1077,"-","-",20826,2940,20705,"sold","sold","sell","VERB"
"10043633MWA",17,11,"List 36","llama",1055,"-","-",20252,1363,17069,"sold","sold","sell","VERB"
"10043633MWA",17,11,"List 36","llama",1055,"-","-",20252,1363,17069,"rode","rode","rode","VERB"
"10043633MWA",17,11,"List 36","llama",1055,"-","-",20252,1363,17069,"bought","bought","buy","NOUN"
"10043633MWA",17,11,"List 36","llama",1055,"-","-",20252,1363,17069,"viewed","viewed","viewed","VERB"
"10043633MWA",17,11,"List 36","llama",1055,"-","-",20252,1363,17069,"kicked","kicked","kick","VERB"
"10043633MWA",17,11,"List 36","llama",1055,"-","-",20252,1363,17069,"tripped","tripped","trip","VERB"
"10043633MWA",18,11,"List 36","curler",1069,"-","-",19491,2623,8362,"bought","bought","buy","NOUN"
"10043633MWA",18,11,"List 36","curler",1069,"-","-",19491,2623,8362,"used","used","use","VERB"
"10043633MWA",18,11,"List 36","curler",1069,"-","-",19491,2623,8362,"sold","sold","sell","VERB"
"10043633MWA",19,11,"List 36","leftovers",1071,"-","-",18694,1778,17731,"eaten","eaten","eat","VERB"
"10043633MWA",19,11,"List 36","leftovers",1071,"-","-",18694,1778,17731,"saved","saved","save","VERB"
"10043633MWA",19,11,"List 36","leftovers",1071,"-","-",18694,1778,17731,"made","made","make","VERB"
"10043633MWA",20,11,"List 36","tombstone",1073,"-","-",34025,29817,33711,"bought","bought","buy","NOUN"
"10043633MWA",20,11,"List 36","tombstone",1073,"-","-",34025,29817,33711,"sold","sold","sell","VERB"
"10043633MWA",20,11,"List 36","tombstone",1073,"-","-",34025,29817,33711,"created","created","create","VERB"
"10043633MWA",21,11,"List 36","manicure",1081,"-","-",52688,3475,51744,"bought","bought","buy","NOUN"
"10043633MWA",21,11,"List 36","manicure",1081,"-","-",52688,3475,51744,"sold","sold","sell","VERB"
"10043633MWA",21,11,"List 36","manicure",1081,"-","-",52688,3475,51744,"given","given","give","VERB"
"10043633MWA",22,11,"List 36","teardrop",1065,"-","-",9680,2481,9558,"cried","cried","cry","VERB"
"10043633MWA",22,11,"List 36","teardrop",1065,"-","-",9680,2481,9558,"wiped","wiped","wip","VERB"
"10043633MWA",22,11,"List 36","teardrop",1065,"-","-",9680,2481,9558,"away","away","away","ADV"
"10043633MWA",22,11,"List 36","teardrop",1065,"-","-",9680,2481,9558,"shot","shot","shot","NOUN"
"10043633MWA",23,11,"List 36","harmonica",1062,"-","-",57836,1329,40161,"played","played","play","VERB"
"10043633MWA",23,11,"List 36","harmonica",1062,"-","-",57836,1329,40161,"buzzed","buzzed","buzze","VERB"
"10043633MWA",23,11,"List 36","harmonica",1062,"-","-",57836,1329,40161,"sold","sold","sell","VERB"
"10043633MWA",23,11,"List 36","harmonica",1062,"-","-",57836,1329,40161,"bought","bought","buy","NOUN"
"10043633MWA",24,11,"List 36","drugstore",1080,"-","-",28766,1841,15385,"visited","visited","visit","VERB"
"10043633MWA",24,11,"List 36","drugstore",1080,"-","-",28766,1841,15385,"opened","opened","open","VERB"
"10043633MWA",24,11,"List 36","drugstore",1080,"-","-",28766,1841,15385,"closed","closed","close","ADJ"
"10043633MWA",25,11,"List 36","switchboard",1075,"-","-",3427,2909,3367,"used","used","use","VERB"
"10043633MWA",26,11,"List 36","vitamins",1078,"-","-",12128,3266,8966,"taken","taken","take","VERB"
"10043633MWA",26,11,"List 36","vitamins",1078,"-","-",12128,3266,8966,"sold","sold","sell","VERB"
"10043633MWA",26,11,"List 36","vitamins",1078,"-","-",12128,3266,8966,"bought","bought","buy","NOUN"
"10043633MWA",27,11,"List 36","laxative",1053,"-","-",16937,1576,10654,"taken","taken","take","VERB"
"10043633MWA",27,11,"List 36","laxative",1053,"-","-",16937,1576,10654,"bought","bought","buy","NOUN"
"10043633MWA",27,11,"List 36","laxative",1053,"-","-",16937,1576,10654,"sold","sold","sell","VERB"
"10043633MWA",28,11,"List 36","beagle",1076,"-","-",20047,2170,19642,"played","played","play","VERB"
"10043633MWA",28,11,"List 36","beagle",1076,"-","-",20047,2170,19642,"viewed","viewed","viewed","VERB"
"10043633MWA",28,11,"List 36","beagle",1076,"-","-",20047,2170,19642,"walked","walked","walk","VERB"
"10043633MWA",28,11,"List 36","beagle",1076,"-","-",20047,2170,19642,"rode","rode","rode","VERB"
"10043633MWA",28,11,"List 36","beagle",1076,"-","-",20047,2170,19642,"bought","bought","buy","NOUN"
"10043633MWA",28,11,"List 36","beagle",1076,"-","-",20047,2170,19642,"sold","sold","sell","VERB"
"10043633MWA",29,11,"List 36","screwdriver",1070,"-","-",12955,1641,12829,"bought","bought","buy","NOUN"
"10043633MWA",29,11,"List 36","screwdriver",1070,"-","-",12955,1641,12829,"sold","sold","sell","VERB"
"10043633MWA",29,11,"List 36","screwdriver",1070,"-","-",12955,1641,12829,"used","used","use","VERB"
"10043633MWA",29,11,"List 36","screwdriver",1070,"-","-",12955,1641,12829,"broken","broken","break","VERB"
"10043633MWA",29,11,"List 36","screwdriver",1070,"-","-",12955,1641,12829,"bent","bent","bent","ADJ"
"10043633MWA",30,11,"List 36","houseboat",1072,"-","-",8325,1947,6851,"bought","bought","buy","NOUN"
"10043633MWA",30,11,"List 36","houseboat",1072,"-","-",8325,1947,6851,"sold","sold","sell","VERB"
"10043633MWA",30,11,"List 36","houseboat",1072,"-","-",8325,1947,6851,"rode","rode","rode","VERB"
"10043633MWA",30,11,"List 36","houseboat",1072,"-","-",8325,1947,6851,"broken","broken","break","VERB"
"10043633MWA",31,11,"List 36","telescope",1060,"-","-",7952,1713,7848,"used","used","use","VERB"
"10043633MWA",31,11,"List 36","telescope",1060,"-","-",7952,1713,7848,"broken","broken","break","VERB"
"10043633MWA",31,11,"List 36","telescope",1060,"-","-",7952,1713,7848,"bought","bought","buy","NOUN"
"10043633MWA",31,11,"List 36","telescope",1060,"-","-",7952,1713,7848,"sold","sold","sell","VERB"
"10043633MWA",32,11,"List 36","rain",1068,"-","-",7721,1482,4354,"felt","felt","feel","VERB"
"10043633MWA",32,11,"List 36","rain",1068,"-","-",7721,1482,4354,"caught","caught","catch","NOUN"
"10043633MWA",33,11,"List 36","engine",1066,"-","-",15653,2459,15442,"fix","fix","fix","VERB"
"10043633MWA",33,11,"List 36","engine",1066,"-","-",15653,2459,15442,"broken","broken","break","VERB"
"10043633MWA",33,11,"List 36","engine",1066,"-","-",15653,2459,15442,"bought","bought","buy","NOUN"
"10043633MWA",33,11,"List 36","engine",1066,"-","-",15653,2459,15442,"sold","sold","sell","VERB"
"10043633MWA",34,11,"List 36","saltshaker",1059,"-","-",6704,1401,6504,"broken","broken","break","VERB"
"10043633MWA",34,11,"List 36","saltshaker",1059,"-","-",6704,1401,6504,"sold","sold","sell","VERB"
"10043633MWA",34,11,"List 36","saltshaker",1059,"-","-",6704,1401,6504,"bought","bought","buy","NOUN"
"10043633MWA",35,11,"List 36","male",1058,"-","-",12444,4214,10719,"broken","broken","break","VERB"
"10043633MWA",36,11,"List 36","woodshed",1052,"-","-",4375,1720,4280,"built","built","build","VERB"
"10043633MWA",36,11,"List 36","woodshed",1052,"-","-",4375,1720,4280,"bought","bought","buy","NOUN"
"10043633MWA",36,11,"List 36","woodshed",1052,"-","-",4375,1720,4280,"sold","sold","sell","VERB"
"10043633MWA",37,11,"List 36","lambskin",1056,"-","-",6676,1335,6572,"sold","sold","sell","VERB"
"10043633MWA",37,11,"List 36","lambskin",1056,"-","-",6676,1335,6572,"torn","torn","tear","NOUN"
"10043633MWA",37,11,"List 36","lambskin",1056,"-","-",6676,1335,6572,"bought","bought","buy","NOUN"
"10043633MWA",38,11,"List 36","motorcycle",1067,"-","-",7101,1542,7023,"bought","bought","buy","NOUN"
"10043633MWA",38,11,"List 36","motorcycle",1067,"-","-",7101,1542,7023,"sold","sold","sell","VERB"
"10043633MWA",38,11,"List 36","motorcycle",1067,"-","-",7101,1542,7023,"fixed","fixed","fix","VERB"
"10043633MWA",38,11,"List 36","motorcycle",1067,"-","-",7101,1542,7023,"refurbished","refurbished","refurbish","VERB"
"10043633MWA",39,11,"List 36","mentor",1054,"-","-",5901,2129,5733,"listened","listened","listen","VERB"
"10043633MWA",39,11,"List 36","mentor",1054,"-","-",5901,2129,5733,"bought","bought","buy","NOUN"
"10043633MWA",39,11,"List 36","mentor",1054,"-","-",5901,2129,5733,"sold","sold","sell","VERB"
"10043633MWA",40,11,"List 36","ornament",1063,"-","-",4064,1162,3571,"bought","bought","buy","NOUN"
"10043633MWA",40,11,"List 36","ornament",1063,"-","-",4064,1162,3571,"sold","sold","sell","VERB"
"10043633MWA",40,11,"List 36","ornament",1063,"-","-",4064,1162,3571,"broken","broken","break","VERB"
"10048843AC",11,2,"List 77","pigtail",2291,"-","-",11062,2402,10319,"hair","hair","hair","NOUN"
"10048843AC",11,2,"List 77","pigtail",2291,"-","-",11062,2402,10319,"ponytail","ponytail","ponytail","NOUN"
"10048843AC",11,2,"List 77","pigtail",2291,"-","-",11062,2402,10319,"hot","hot","hot","ADJ"
"10048843AC",12,2,"List 77","clergy",2282,"-","-",4737,3322,3945,"court","court","court","NOUN"
"10048843AC",13,2,"List 77","nameplate",2301,"-","-",4432,2008,3753,"identification","identification","identification","NOUN"
"10048843AC",14,2,"List 77","costumer",2294,"-","-",7705,1834,6679,"buying","buying","buy","VERB"
"10048843AC",14,2,"List 77","costumer",2294,"-","-",7705,1834,6679,"money","money","money","NOUN"
"10048843AC",15,2,"List 77","photograph",2296,"-","-",5055,1093,4386,"picture","picture","picture","NOUN"
"10048843AC",15,2,"List 77","photograph",2296,"-","-",5055,1093,4386,"memories","memories","memories","NOUN"
"10048843AC",16,2,"List 77","mouthwash",2303,"-","-",6393,3401,5007,"fresh","fresh","fresh","ADJ"
"10048843AC",16,2,"List 77","mouthwash",2303,"-","-",6393,3401,5007,"mint","mint","mint","NOUN"
"10048843AC",17,2,"List 77","brisket",2300,"-","-",8296,1209,7604,"food","food","food","NOUN"
"10048843AC",17,2,"List 77","brisket",2300,"-","-",8296,1209,7604,"barbeque","barbecue","barbecue","NOUN"
"10048843AC",17,2,"List 77","brisket",2300,"-","-",8296,1209,7604,"grill","grill","grill","NOUN"
"10048843AC",18,2,"List 77","headset",2305,"-","-",11617,2485,10938,"noise","noise","noise","NOUN"
"10048843AC",18,2,"List 77","headset",2305,"-","-",11617,2485,10938,"quite","quite","quite","ADV"
"10048843AC",18,2,"List 77","headset",2305,"-","-",11617,2485,10938,"focus","focus","focus","NOUN"
"10048843AC",19,2,"List 77","baby",2290,"-","-",7981,1291,6967,"cry","cry","cry","VERB"
"10048843AC",19,2,"List 77","baby",2290,"-","-",7981,1291,6967,"loud","loud","loud","ADV"
"10048843AC",19,2,"List 77","baby",2290,"-","-",7981,1291,6967,"sweet","sweet","sweet","ADJ"
"10048843AC",19,2,"List 77","baby",2290,"-","-",7981,1291,6967,"little","little","little","ADJ"
"10048843AC",20,2,"List 77","iron",2297,"-","-",7647,3184,7127,"cast","cast","cast","NOUN"
"10048843AC",20,2,"List 77","iron",2297,"-","-",7647,3184,7127,"hard","hard","hard","ADJ"
"10048843AC",20,2,"List 77","iron",2297,"-","-",7647,3184,7127,"element","element","element","NOUN"
"10048843AC",21,2,"List 77","portrait",2308,"-","-",5619,1073,4883,"memory","memory","memory","NOUN"
"10048843AC",21,2,"List 77","portrait",2308,"-","-",5619,1073,4883,"fancy","fancy","fancy","ADJ"
"10048843AC",22,2,"List 77","scallion",2292,"-","-",3671,2804,3086,"food","food","food","NOUN"
"10048843AC",23,2,"List 77","pumpkin",2306,"-","-",8720,2652,7337,"fall","fall","fall","NOUN"
"10048843AC",23,2,"List 77","pumpkin",2306,"-","-",8720,2652,7337,"cold","cold","cold","ADJ"
"10048843AC",23,2,"List 77","pumpkin",2306,"-","-",8720,2652,7337,"halloween","halloween","halloween","AUX"
"10048843AC",24,2,"List 77","undercoat",2299,"-","-",4772,1685,4033,"warm","warm","warm","ADJ"
"10048843AC",25,2,"List 77","bamboo",2295,"-","-",4574,1284,3975,"green","green","green","ADJ"
"10048843AC",25,2,"List 77","bamboo",2295,"-","-",4574,1284,3975,"food","food","food","NOUN"
"10048843AC",25,2,"List 77","bamboo",2295,"-","-",4574,1284,3975,"leaf","leaf","leaf","NOUN"
"10048843AC",26,2,"List 77","pimento",2304,"-","-",3004,1245,2713,"food","food","food","NOUN"
"10048843AC",26,2,"List 77","pimento",2304,"-","-",3004,1245,2713,"cheese","cheese","cheese","NOUN"
"10048843AC",27,2,"List 77","punchbowl",2309,"-","-",5732,1595,5443,"hold","hold","hold","INTJ"
"10048843AC",27,2,"List 77","punchbowl",2309,"-","-",5732,1595,5443,"liquid","liquid","liquid","AUX"
"10048843AC",27,2,"List 77","punchbowl",2309,"-","-",5732,1595,5443,"cold","cold","cold","ADJ"
"10048843AC",28,2,"List 77","nun",2288,"-","-",4275,2890,3840,"religion","religion","religion","NOUN"
"10048843AC",29,2,"List 77","thumbnail",2285,"-","-",3605,2269,3204,"pointy","pointy","pointy","NOUN"
"10048843AC",30,2,"List 77","homemaker",2286,"-","-",7037,3312,6503,"worker","worker","worker","NOUN"
"10048843AC",30,2,"List 77","homemaker",2286,"-","-",7037,3312,6503,"food","food","food","NOUN"
"10048843AC",30,2,"List 77","homemaker",2286,"-","-",7037,3312,6503,"cook","cook","cake","VERB"
"10048843AC",31,2,"List 77","jukebox",2284,"-","-",5123,1252,4722,"sound","sound","sound","VERB"
"10048843AC",31,2,"List 77","jukebox",2284,"-","-",5123,1252,4722,"music","music","music","NOUN"
"10048843AC",31,2,"List 77","jukebox",2284,"-","-",5123,1252,4722,"dance","dance","dance","NOUN"
"10048843AC",31,2,"List 77","jukebox",2284,"-","-",5123,1252,4722,"fun","fun","fun","NOUN"
"10048843AC",32,2,"List 77","bank",2298,"-","-",4274,1036,3110,"money","money","money","NOUN"
"10048843AC",32,2,"List 77","bank",2298,"-","-",4274,1036,3110,"loan","loan","loan","NOUN"
"10048843AC",33,2,"List 77","ketchup",2283,"-","-",5160,1125,4794,"sauce","sauce","sauce","NOUN"
"10048843AC",33,2,"List 77","ketchup",2283,"-","-",5160,1125,4794,"red","red","red","ADJ"
"10048843AC",33,2,"List 77","ketchup",2283,"-","-",5160,1125,4794,"tomato","tomato","tomato","NOUN"
"10048843AC",34,2,"List 77","marksman",2311,"-","-",5467,2265,3523,"man","man","man","NOUN"
"10048843AC",34,2,"List 77","marksman",2311,"-","-",5467,2265,3523,"worker","worker","worker","NOUN"
"10048843AC",35,2,"List 77","mop",2293,"-","-",4238,1262,3853,"wet","wet","wet","ADJ"
"10048843AC",35,2,"List 77","mop",2293,"-","-",4238,1262,3853,"clean","clean","clean","ADJ"
"10048843AC",36,2,"List 77","bookend",2302,"-","-",2786,1949,2436,"read","read","read","VERB"
"10048843AC",37,2,"List 77","foodstuff",2310,"-","-",3771,1183,3272,"food","food","food","NOUN"
"10048843AC",37,2,"List 77","foodstuff",2310,"-","-",3771,1183,3272,"cook","cook","cake","VERB"
"10048843AC",38,2,"List 77","crotch",2307,"-","-",4879,3486,4516,"body","body","body","NOUN"
"10048843AC",38,2,"List 77","crotch",2307,"-","-",4879,3486,4516,"part","part","part","NOUN"
"10048843AC",39,2,"List 77","nail",2287,"-","-",5111,1346,4165,"hold","hold","hold","INTJ"
"10048843AC",39,2,"List 77","nail",2287,"-","-",5111,1346,4165,"seal","seal","seal","NOUN"
"10048843AC",40,2,"List 77","shingles",2289,"-","-",2744,1381,2342,"disease","disease","disease","NOUN"
"10050187SL",11,6,"List 6","whisky",175,"-","-",7188,1670,4754,"drink","drink","drink","NOUN"
"10050187SL",11,6,"List 6","whisky",175,"-","-",7188,1670,4754,"cook","cook","cake","VERB"
"10050187SL",13,6,"List 6","snowfall",167,"-","-",8665,4277,8461,"winter","winter","winter","NOUN"
"10050187SL",13,6,"List 6","snowfall",167,"-","-",8665,4277,8461,"freeze","freeze","freeze","VERB"
"10050187SL",14,6,"List 6","scale",176,"-","-",9996,1410,9838,"weight","weight","weight","NOUN"
"10050187SL",14,6,"List 6","scale",176,"-","-",9996,1410,9838,"size","size","size","NOUN"
"10050187SL",16,6,"List 6","crystal",171,"-","-",13846,11232,13622,"tell","tell","tell","VERB"
"10050187SL",16,6,"List 6","crystal",171,"-","-",13846,11232,13622,"future","future","future","NOUN"
"10050187SL",19,6,"List 6","family",154,"-","-",6054,4529,5946,"loved","loved","love","VERB"
"10050187SL",19,6,"List 6","family",154,"-","-",6054,4529,5946,"ones","ones","one","NOUN"
"10050187SL",20,6,"List 6","bird",172,"-","-",7688,1542,7430,"flies","flies","flie","VERB"
"10050187SL",20,6,"List 6","bird",172,"-","-",7688,1542,7430,"lands","lands","land","NOUN"
"10050187SL",20,6,"List 6","bird",172,"-","-",7688,1542,7430,"chirps","chirps","chirp","NOUN"
"10050187SL",21,6,"List 6","canvass",178,"-","-",8566,3332,8307,"painting","painting","paint","NOUN"
"10050187SL",21,6,"List 6","canvass",178,"-","-",8566,3332,8307,"art","art","art","NOUN"
"10050187SL",22,6,"List 6","tofu",181,"-","-",8589,1359,8399,"food","food","food","NOUN"
"10050187SL",22,6,"List 6","tofu",181,"-","-",8589,1359,8399,"meat","meat","meat","NOUN"
"10050187SL",22,6,"List 6","tofu",181,"-","-",8589,1359,8399,"replacement","replacement","replacement","NOUN"
"10050187SL",23,6,"List 6","screw",153,"-","-",5576,1921,5298,"hold","hold","hold","INTJ"
"10050187SL",23,6,"List 6","screw",153,"-","-",5576,1921,5298,"things","things","thing","NOUN"
"10050187SL",23,6,"List 6","screw",153,"-","-",5576,1921,5298,"together","together","together","ADV"
"10050187SL",24,6,"List 6","tinfoil",156,"-","-",11128,2132,10715,"cover","cover","cover","NOUN"
"10050187SL",24,6,"List 6","tinfoil",156,"-","-",11128,2132,10715,"something","something","something","PRON"
"10050187SL",24,6,"List 6","tinfoil",156,"-","-",11128,2132,10715,"keep","keep","keep","VERB"
"10050187SL",24,6,"List 6","tinfoil",156,"-","-",11128,2132,10715,"things","things","thing","NOUN"
"10050187SL",24,6,"List 6","tinfoil",156,"-","-",11128,2132,10715,"hot","hot","hot","ADJ"
"10050187SL",25,6,"List 6","desert",161,"-","-",17659,5019,17339,"cake","cake","cake","NOUN"
"10050187SL",25,6,"List 6","desert",161,"-","-",17659,5019,17339,"cookies","cookies","cookie","NOUN"
"10050187SL",25,6,"List 6","desert",161,"-","-",17659,5019,17339,"ice","ice","ice","NOUN"
"10050187SL",25,6,"List 6","desert",161,"-","-",17659,5019,17339,"crea","cream","cream","NOUN"
"10050187SL",26,6,"List 6","harvest",169,"-","-",5476,2463,5296,"fall","fall","fall","NOUN"
"10050187SL",26,6,"List 6","harvest",169,"-","-",5476,2463,5296,"food","food","food","NOUN"
"10050187SL",27,6,"List 6","bicep",152,"-","-",2559,1500,2224,"muscle","muscle","muscle","NOUN"
"10050187SL",28,6,"List 6","tabasco",174,"-","-",3562,1389,3333,"hot","hot","hot","ADJ"
"10050187SL",28,6,"List 6","tabasco",174,"-","-",3562,1389,3333,"sauce","sauce","sauce","NOUN"
"10050187SL",29,6,"List 6","ginger",179,"-","-",9437,6506,9202,"spice","spice","spice","NOUN"
"10050187SL",29,6,"List 6","ginger",179,"-","-",9437,6506,9202,"food","food","food","NOUN"
"10050187SL",30,6,"List 6","wand",170,"-","-",19081,5322,17921,"curling","curling","curling","NOUN"
"10050187SL",30,6,"List 6","wand",170,"-","-",19081,5322,17921,"hair","hair","hair","NOUN"
"10050187SL",30,6,"List 6","wand",170,"-","-",19081,5322,17921,"spraying","spraying","spraie","VERB"
"10050187SL",31,6,"List 6","blindfold",168,"-","-",7742,2150,7438,"cover","cover","cover","NOUN"
"10050187SL",31,6,"List 6","blindfold",168,"-","-",7742,2150,7438,"eyes","eyes","eyes","NOUN"
"10050187SL",31,6,"List 6","blindfold",168,"-","-",7742,2150,7438,"keep","keep","keep","VERB"
"10050187SL",31,6,"List 6","blindfold",168,"-","-",7742,2150,7438,"secret","secret","secret","NOUN"
"10050187SL",32,6,"List 6","berry",180,"-","-",9489,3933,9243,"smoothies","smoothies","smoothie","NOUN"
"10050187SL",32,6,"List 6","berry",180,"-","-",9489,3933,9243,"pies","pies","pies","NOUN"
"10050187SL",32,6,"List 6","berry",180,"-","-",9489,3933,9243,"flavoring","flavoring","flavor","NOUN"
"10050187SL",33,6,"List 6","van",164,"-","-",5140,1538,4672,"drive","drive","drive","VERB"
"10050187SL",33,6,"List 6","van",164,"-","-",5140,1538,4672,"hauling","hauling","haul","NOUN"
"10050187SL",34,6,"List 6","bathe",157,"-","-",4334,1469,3403,"clean","clean","clean","ADJ"
"10050187SL",36,6,"List 6","balcony",177,"-","-",3484,1294,3164,"stand","stand","stand","VERB"
"10050187SL",37,6,"List 6","physician",162,"-","-",7253,3699,6942,"health","health","health","NOUN"
"10050187SL",37,6,"List 6","physician",162,"-","-",7253,3699,6942,"examination","examination","examination","NOUN"
"10050187SL",38,6,"List 6","chinaware",159,"-","-",6753,2333,6399,"decoration","decoration","decoration","NOUN"
"10050187SL",38,6,"List 6","chinaware",159,"-","-",6753,2333,6399,"serving","serving","serive","VERB"
"10050187SL",39,6,"List 6","ticket",165,"-","-",7143,1443,7049,"speeding","speeding","speed","NOUN"
"10050187SL",39,6,"List 6","ticket",165,"-","-",7143,1443,7049,"entering","entering","enter","VERB"
"10050187SL",39,6,"List 6","ticket",165,"-","-",7143,1443,7049,"event","event","event","NOUN"
"10077702_ela",11,25,"List 50","pudding",1497,"-","-",8479,3535,6290,"eating","eating","eat","VERB"
"10077702_ela",11,25,"List 50","pudding",1497,"-","-",8479,3535,6290,"dessert","dessert","dessert","NOUN"
"10077702_ela",12,25,"List 50","celery",1485,"-","-",20077,2164,19056,"stuffing","stuffing","stuff","VERB"
"10077702_ela",12,25,"List 50","celery",1485,"-","-",20077,2164,19056,"eating","eating","eat","VERB"
"10077702_ela",12,25,"List 50","celery",1485,"-","-",20077,2164,19056,"cooking","cooking","cook","NOUN"
"10077702_ela",13,25,"List 50","councilwoman",1489,"-","-",19913,2879,10615,"debates","debates","debate","NOUN"
"10077702_ela",13,25,"List 50","councilwoman",1489,"-","-",19913,2879,10615,"representation","representation","representation","NOUN"
"10077702_ela",14,25,"List 50","geranium",1472,"-","-",19936,2504,16840,"planting","planting","plan","VERB"
"10077702_ela",14,25,"List 50","geranium",1472,"-","-",19936,2504,16840,"herbology","herpetology","herpetology","NOUN"
"10077702_ela",14,25,"List 50","geranium",1472,"-","-",19936,2504,16840,"botany","botany","botany","NOUN"
"10077702_ela",15,25,"List 50","pineapple",1478,"-","-",19834,2024,18818,"pina","piney","piney","NOUN"
"10077702_ela",15,25,"List 50","pineapple",1478,"-","-",19834,2024,18818,"colada","cola","cola","NOUN"
"10077702_ela",15,25,"List 50","pineapple",1478,"-","-",19834,2024,18818,"cough","cough","cough","NOUN"
"10077702_ela",15,25,"List 50","pineapple",1478,"-","-",19834,2024,18818,"remedy","remedy","remedy","INTJ"
"10077702_ela",15,25,"List 50","pineapple",1478,"-","-",19834,2024,18818,"smoothie","smoothie","smoothie","NOUN"
"10077702_ela",15,25,"List 50","pineapple",1478,"-","-",19834,2024,18818,"desserts","desserts","dessert","NOUN"
"10077702_ela",16,25,"List 50","nanny",1481,"-","-",13994,2407,12820,"cleaning","cleaning","cleaning","NOUN"
"10077702_ela",16,25,"List 50","nanny",1481,"-","-",13994,2407,12820,"protect","protect","protect","VERB"
"10077702_ela",16,25,"List 50","nanny",1481,"-","-",13994,2407,12820,"kids","kids","kid","NOUN"
"10077702_ela",16,25,"List 50","nanny",1481,"-","-",13994,2407,12820,"watch","watch","watch","VERB"
"10077702_ela",16,25,"List 50","nanny",1481,"-","-",13994,2407,12820,"children","children","child","NOUN"
"10077702_ela",17,25,"List 50","houseboy",1501,"-","-",13822,2244,8445,"cleaning","cleaning","cleaning","NOUN"
"10077702_ela",17,25,"List 50","houseboy",1501,"-","-",13822,2244,8445,"mowing","mowing","mow","VERB"
"10077702_ela",17,25,"List 50","houseboy",1501,"-","-",13822,2244,8445,"lawn","lawn","lawn","NOUN"
"10077702_ela",18,25,"List 50","corset",1494,"-","-",20056,2406,18739,"fashion","fashion","fashion","NOUN"
"10077702_ela",18,25,"List 50","corset",1494,"-","-",20056,2406,18739,"lingerie","lingerie","lingerie","NOUN"
"10077702_ela",18,25,"List 50","corset",1494,"-","-",20056,2406,18739,"waist","waist","waist","NOUN"
"10077702_ela",18,25,"List 50","corset",1494,"-","-",20056,2406,18739,"training","training","training","NOUN"
"10077702_ela",19,25,"List 50","necktie",1483,"-","-",11261,2593,10129,"weddings","weddings","wedding","NOUN"
"10077702_ela",19,25,"List 50","necktie",1483,"-","-",11261,2593,10129,"prom","prom","prom","NOUN"
"10077702_ela",19,25,"List 50","necktie",1483,"-","-",11261,2593,10129,"formals","formals","formal","NOUN"
"10077702_ela",19,25,"List 50","necktie",1483,"-","-",11261,2593,10129,"photography","photography","photography","NOUN"
"10077702_ela",20,25,"List 50","orange",1490,"-","-",11622,1945,8815,"juice","juice","juice","NOUN"
"10077702_ela",20,25,"List 50","orange",1490,"-","-",11622,1945,8815,"peeling","peeling","peel","VERB"
"10077702_ela",21,25,"List 50","shallot",1480,"-","-",4281,2205,3219,"cooking","cooking","cook","NOUN"
"10077702_ela",22,25,"List 50","cliff",1495,"-","-",14213,3095,12151,"diving","diving","diive","NOUN"
"10077702_ela",22,25,"List 50","cliff",1495,"-","-",14213,3095,12151,"hiking","hiking","hik","VERB"
"10077702_ela",22,25,"List 50","cliff",1495,"-","-",14213,3095,12151,"climbing","climbing","climb","VERB"
"10077702_ela",23,25,"List 50","coin",1486,"-","-",10584,1592,9559,"payments","payments","payment","NOUN"
"10077702_ela",23,25,"List 50","coin",1486,"-","-",10584,1592,9559,"wishes","wishes","wish","NOUN"
"10077702_ela",23,25,"List 50","coin",1486,"-","-",10584,1592,9559,"bets","bets","bet","NOUN"
"10077702_ela",24,25,"List 50","wildcat",1475,"-","-",9974,7650,8643,"hunting","hunting","hunt","VERB"
"10077702_ela",25,25,"List 50","pullover",1477,"-","-",21695,1829,19715,"warmth","warmth","warmth","NOUN"
"10077702_ela",25,25,"List 50","pullover",1477,"-","-",21695,1829,19715,"fashion","fashion","fashion","NOUN"
"10077702_ela",25,25,"List 50","pullover",1477,"-","-",21695,1829,19715,"comfortability","comfort ability","comfortable","NOUN"
"10077702_ela",26,25,"List 50","shavings",1499,"-","-",8020,2959,5329,"sawdust","sawdust","sawdust","ADJ"
"10077702_ela",27,25,"List 50","cent",1474,"-","-",6392,2765,5355,"payment","payment","payment","NOUN"
"10077702_ela",27,25,"List 50","cent",1474,"-","-",6392,2765,5355,"tip","tip","tip","NOUN"
"10077702_ela",28,25,"List 50","saddle",1500,"-","-",6744,1439,4926,"horseback","horseback","horseback","NOUN"
"10077702_ela",28,25,"List 50","saddle",1500,"-","-",6744,1439,4926,"riding","riding","ride","NOUN"
"10077702_ela",29,25,"List 50","potato",1484,"-","-",12325,1571,11534,"cooking","cooking","cook","NOUN"
"10077702_ela",29,25,"List 50","potato",1484,"-","-",12325,1571,11534,"frying","frying","fry","VERB"
"10077702_ela",29,25,"List 50","potato",1484,"-","-",12325,1571,11534,"baking","baking","baking","NOUN"
"10077702_ela",29,25,"List 50","potato",1484,"-","-",12325,1571,11534,"eating","eating","eat","VERB"
"10077702_ela",30,25,"List 50","Ladder",1498,"-","-",9668,1621,8784,"climbing","climbing","climb","VERB"
"10077702_ela",30,25,"List 50","Ladder",1498,"-","-",9668,1621,8784,"reaching","reaching","reach","VERB"
"10077702_ela",30,25,"List 50","Ladder",1498,"-","-",9668,1621,8784,"construction","construction","construction","NOUN"
"10077702_ela",31,25,"List 50","drywall",1482,"-","-",10140,3691,9309,"construction","construction","construction","NOUN"
"10077702_ela",31,25,"List 50","drywall",1482,"-","-",10140,3691,9309,"repair","repair","repair","NOUN"
"10077702_ela",31,25,"List 50","drywall",1482,"-","-",10140,3691,9309,"building","building","building","NOUN"
"10077702_ela",32,25,"List 50","poultry",1488,"-","-",10946,2563,9578,"cooking","cooking","cook","NOUN"
"10077702_ela",32,25,"List 50","poultry",1488,"-","-",10946,2563,9578,"eating","eating","eat","VERB"
"10077702_ela",33,25,"List 50","muzzle",1491,"-","-",10592,1959,4368,"restraint","restraint","restraint","VERB"
"10077702_ela",35,25,"List 50","sombrero",1493,"-","-",6349,2074,5442,"hat","hat","hat","NOUN"
"10077702_ela",35,25,"List 50","sombrero",1493,"-","-",6349,2074,5442,"decoration","decoration","decoration","NOUN"
"10077702_ela",36,25,"List 50","merchant",1479,"-","-",7685,2385,6259,"seller","seller","seller","NOUN"
"10077702_ela",36,25,"List 50","merchant",1479,"-","-",7685,2385,6259,"persuasion","persuasion","persuasion","NOUN"
"10077702_ela",37,25,"List 50","metal",1492,"-","-",19438,2025,18632,"welding","welding","weld","NOUN"
"10077702_ela",37,25,"List 50","metal",1492,"-","-",19438,2025,18632,"building","building","building","NOUN"
"10077702_ela",37,25,"List 50","metal",1492,"-","-",19438,2025,18632,"construction","construction","construction","NOUN"
"10077702_ela",37,25,"List 50","metal",1492,"-","-",19438,2025,18632,"jewelry","jewelry","jewelry","NOUN"
"10077702_ela",38,25,"List 50","needle",1496,"-","-",16103,3477,14893,"blood","blood","blood","NOUN"
"10077702_ela",38,25,"List 50","needle",1496,"-","-",16103,3477,14893,"drawing","drawing","drawe","VERB"
"10077702_ela",38,25,"List 50","needle",1496,"-","-",16103,3477,14893,"iv","iv","iv","X"
"10077702_ela",38,25,"List 50","needle",1496,"-","-",16103,3477,14893,"medication","medication","medication","NOUN"
"10077702_ela",40,25,"List 50","joystick",1473,"-","-",6930,4449,6122,"video","video","video","NOUN"
"10077702_ela",40,25,"List 50","joystick",1473,"-","-",6930,4449,6122,"games","games","game","NOUN"
"10085738",11,18,"List 68","violinist",2035,"-","-",18294,7619,16875,"orchestra","orchestra","orchestra","X"
"10085738",11,18,"List 68","violinist",2035,"-","-",18294,7619,16875,"wedding","wedding","wedding","NOUN"
"10085738",12,18,"List 68","chickenfeed",2025,"-","-",5244,2039,4904,"feed","feed","feed","NOUN"
"10085738",12,18,"List 68","chickenfeed",2025,"-","-",5244,2039,4904,"chickens","chickens","chicken","NOUN"
"10085738",13,18,"List 68","sketchpad",2016,"-","-",6241,2309,5923,"draw","draw","dree","VERB"
"10085738",13,18,"List 68","sketchpad",2016,"-","-",6241,2309,5923,"write","write","write","X"
"10085738",13,18,"List 68","sketchpad",2016,"-","-",6241,2309,5923,"notes","notes","note","NOUN"
"10085738",14,18,"List 68","chisel",2013,"-","-",9109,2801,8895,"sculptures","sculptures","sculpture","NOUN"
"10085738",14,18,"List 68","chisel",2013,"-","-",9109,2801,8895,"buildings","buildings","building","NOUN"
"10085738",15,18,"List 68","umbrella",2020,"-","-",6131,2401,5553,"rain","rain","rain","NOUN"
"10085738",15,18,"List 68","umbrella",2020,"-","-",6131,2401,5553,"sun","sun","sun","NOUN"
"10085738",16,18,"List 68","whistle",2015,"-","-",9081,1499,8703,"stop","stop","stop","VERB"
"10085738",16,18,"List 68","whistle",2015,"-","-",9081,1499,8703,"someone","someone","someone","PRON"
"10085738",16,18,"List 68","whistle",2015,"-","-",9081,1499,8703,"stop","stop","stop","VERB"
"10085738",16,18,"List 68","whistle",2015,"-","-",9081,1499,8703,"game","game","game","NOUN"
"10085738",17,18,"List 68","supper",2014,"-","-",4870,2220,4550,"dinner","dinner","dinner","NOUN"
"10085738",17,18,"List 68","supper",2014,"-","-",4870,2220,4550,"eat","eat","eat","VERB"
"10085738",18,18,"List 68","questionnaire",2012,"-","-",13974,2474,13732,"ask","ask","ask","VERB"
"10085738",18,18,"List 68","questionnaire",2012,"-","-",13974,2474,13732,"questions","questions","question","NOUN"
"10085738",18,18,"List 68","questionnaire",2012,"-","-",13974,2474,13732,"learn","learn","learn","VERB"
"10085738",18,18,"List 68","questionnaire",2012,"-","-",13974,2474,13732,"people","people","people","NOUN"
"10085738",19,18,"List 68","teaspoon",2041,"-","-",5002,1609,4611,"baking","baking","baking","NOUN"
"10085738",19,18,"List 68","teaspoon",2041,"-","-",5002,1609,4611,"eating","eating","eat","VERB"
"10085738",20,18,"List 68","stitching",2032,"-","-",13265,4008,12947,"wound","wound","wound","NOUN"
"10085738",20,18,"List 68","stitching",2032,"-","-",13265,4008,12947,"clothes","clothes","clothess","NOUN"
"10085738",20,18,"List 68","stitching",2032,"-","-",13265,4008,12947,"making","making","make","NOUN"
"10085738",20,18,"List 68","stitching",2032,"-","-",13265,4008,12947,"blankets","blankets","blanket","NOUN"
"10085738",22,18,"List 68","primates",2036,"-","-",7225,6056,6956,"animals","animals","animal","NOUN"
"10085738",23,18,"List 68","slacks",2026,"-","-",2762,1609,2323,"pants","pants","pants","NOUN"
"10085738",24,18,"List 68","staircase",2023,"-","-",11258,1838,11049,"walk","walk","walk","VERB"
"10085738",24,18,"List 68","staircase",2023,"-","-",11258,1838,11049,"decorate","decorate","decorate","VERB"
"10085738",26,18,"List 68","dorm",2037,"-","-",3180,2162,2731,"live","live","live","VERB"
"10085738",27,18,"List 68","slipknot",2024,"-","-",10825,4462,10630,"can","can","can","AUX"
"10085738",27,18,"List 68","slipknot",2024,"-","-",10825,4462,10630,"easily","easily","easily","ADV"
"10085738",27,18,"List 68","slipknot",2024,"-","-",10825,4462,10630,"escape","escape","escape","NOUN"
"10085738",28,18,"List 68","servant",2038,"-","-",8399,1879,8257,"worker","worker","worker","NOUN"
"10085738",28,18,"List 68","servant",2038,"-","-",8399,1879,8257,"cleans","cleans","clean","NOUN"
"10085738",29,18,"List 68","winch",2021,"-","-",5848,3094,5582,"nice","nice","nice","ADJ"
"10085738",30,18,"List 68","pig",2031,"-","-",13908,9330,13166,"food","food","food","NOUN"
"10085738",30,18,"List 68","pig",2031,"-","-",13908,9330,13166,"hunting","hunting","hunt","VERB"
"10085738",32,18,"List 68","toothbrush",2040,"-","-",9202,1675,8915,"brush","brush","brush","INTJ"
"10085738",32,18,"List 68","toothbrush",2040,"-","-",9202,1675,8915,"teeth","teeth","tooth","NOUN"
"10085738",32,18,"List 68","toothbrush",2040,"-","-",9202,1675,8915,"clean","clean","clean","ADJ"
"10085738",32,18,"List 68","toothbrush",2040,"-","-",9202,1675,8915,"grout","grout","grout","NOUN"
"10085738",33,18,"List 68","wiring",2018,"-","-",19761,5010,19322,"walls","walls","wall","NOUN"
"10085738",33,18,"List 68","wiring",2018,"-","-",19761,5010,19322,"tvs","tv","tv","NOUN"
"10085738",34,18,"List 68","zucchini",2027,"-","-",3591,2883,3264,"eat","eat","eat","VERB"
"10085738",35,18,"List 68","guy",2033,"-","-",19311,13500,19123,"picking","picking","pick","VERB"
"10085738",35,18,"List 68","guy",2033,"-","-",19311,13500,19123,"heavy","heavy","heavy","ADJ"
"10085738",35,18,"List 68","guy",2033,"-","-",19311,13500,19123,"stuff","stuff","stuff","NOUN"
"10085738",36,18,"List 68","ottoman",2028,"-","-",5554,3278,5256,"prop","prop","prop","NOUN"
"10085738",36,18,"List 68","ottoman",2028,"-","-",5554,3278,5256,"legs","legs","leg","NOUN"
"10085738",37,18,"List 68","button",2034,"-","-",6682,1317,6450,"push","push","push","INTJ"
"10085738",37,18,"List 68","button",2034,"-","-",6682,1317,6450,"fasten","fasten","fasten","ADV"
"10085738",38,18,"List 68","businessman",2022,"-","-",20053,13953,19833,"help","help","help","VERB"
"10085738",38,18,"List 68","businessman",2022,"-","-",20053,13953,19833,"paperwork","paperwork","paperwork","NOUN"
"10085738",39,18,"List 68","nursery",2039,"-","-",4838,3608,4594,"baby","baby","baby","NOUN"
"10085738",40,18,"List 68","bellman",2029,"-","-",10941,1562,10731,"luggage","luggage","luggage","NOUN"
"10085738",40,18,"List 68","bellman",2029,"-","-",10941,1562,10731,"directions","directions","direction","NOUN"
"10086350JAM",11,25,"List 100","breadboard",2988,"-","-",40620,7195,34356,"hold","hold","hold","INTJ"
"10086350JAM",11,25,"List 100","breadboard",2988,"-","-",40620,7195,34356,"serve","serve","serve","VERB"
"10086350JAM",11,25,"List 100","breadboard",2988,"-","-",40620,7195,34356,"wash","wash","wash","INTJ"
"10086350JAM",11,25,"List 100","breadboard",2988,"-","-",40620,7195,34356,"make","make","make","VERB"
"10086350JAM",11,25,"List 100","breadboard",2988,"-","-",40620,7195,34356,"sand","sand","sand","NOUN"
"10086350JAM",13,25,"List 100","debris",2972,"-","-",31304,5525,27578,"topping","topping","topping","NOUN"
"10086350JAM",13,25,"List 100","debris",2972,"-","-",31304,5525,27578,"cleanup","cleanup","cleanup","NOUN"
"10086350JAM",13,25,"List 100","debris",2972,"-","-",31304,5525,27578,"distribution","distribution","distribution","NOUN"
"10086350JAM",14,25,"List 100","badminton",3000,"-","-",39692,3252,38883,"play","play","play","VERB"
"10086350JAM",14,25,"List 100","badminton",3000,"-","-",39692,3252,38883,"serve","serve","serve","VERB"
"10086350JAM",14,25,"List 100","badminton",3000,"-","-",39692,3252,38883,"setup","setup","setup","NOUN"
"10086350JAM",14,25,"List 100","badminton",3000,"-","-",39692,3252,38883,"score","score","score","NOUN"
"10086350JAM",14,25,"List 100","badminton",3000,"-","-",39692,3252,38883,"watch","watch","watch","VERB"
"10086350JAM",14,25,"List 100","badminton",3000,"-","-",39692,3252,38883,"purchase","purchase","purchase","INTJ"
"10086350JAM",14,25,"List 100","badminton",3000,"-","-",39692,3252,38883,"record","record","record","NOUN"
"10086350JAM",15,25,"List 100","topaz",2993,"-","-",27723,2985,26345,"wear","wear","wear","VERB"
"10086350JAM",15,25,"List 100","topaz",2993,"-","-",27723,2985,26345,"show","show","show","VERB"
"10086350JAM",15,25,"List 100","topaz",2993,"-","-",27723,2985,26345,"make","make","make","VERB"
"10086350JAM",15,25,"List 100","topaz",2993,"-","-",27723,2985,26345,"jewelry","jewelry","jewelry","NOUN"
"10086350JAM",15,25,"List 100","topaz",2993,"-","-",27723,2985,26345,"sell","sell","sell","VERB"
"10086350JAM",15,25,"List 100","topaz",2993,"-","-",27723,2985,26345,"buy","buy","buy","VERB"
"10086350JAM",16,25,"List 100","knickers",2978,"-","-",29046,2795,27915,"wear","wear","wear","VERB"
"10086350JAM",16,25,"List 100","knickers",2978,"-","-",29046,2795,27915,"take","take","take","VERB"
"10086350JAM",16,25,"List 100","knickers",2978,"-","-",29046,2795,27915,"put","put","put","VERB"
"10086350JAM",16,25,"List 100","knickers",2978,"-","-",29046,2795,27915,"throw","throw","throw","INTJ"
"10086350JAM",16,25,"List 100","knickers",2978,"-","-",29046,2795,27915,"wash","wash","wash","INTJ"
"10086350JAM",16,25,"List 100","knickers",2978,"-","-",29046,2795,27915,"dirty","dirty","dirty","ADJ"
"10086350JAM",17,25,"List 100","bowling",2981,"-","-",43051,2944,41308,"play","play","play","VERB"
"10086350JAM",17,25,"List 100","bowling",2981,"-","-",43051,2944,41308,"watch","watch","watch","VERB"
"10086350JAM",17,25,"List 100","bowling",2981,"-","-",43051,2944,41308,"score","score","score","NOUN"
"10086350JAM",17,25,"List 100","bowling",2981,"-","-",43051,2944,41308,"loose","loose","loose","ADV"
"10086350JAM",17,25,"List 100","bowling",2981,"-","-",43051,2944,41308,"win","win","win","VERB"
"10086350JAM",17,25,"List 100","bowling",2981,"-","-",43051,2944,41308,"practice","practice","practice","NOUN"
"10086350JAM",18,25,"List 100","greenhouse",2976,"-","-",36967,2746,35763,"plant","plant","plant","NOUN"
"10086350JAM",18,25,"List 100","greenhouse",2976,"-","-",36967,2746,35763,"set","set","set","VERB"
"10086350JAM",18,25,"List 100","greenhouse",2976,"-","-",36967,2746,35763,"maintain","maintain","maintain","VERB"
"10086350JAM",18,25,"List 100","greenhouse",2976,"-","-",36967,2746,35763,"organize","organize","organize","VERB"
"10086350JAM",18,25,"List 100","greenhouse",2976,"-","-",36967,2746,35763,"clean","clean","clean","ADJ"
"10086350JAM",18,25,"List 100","greenhouse",2976,"-","-",36967,2746,35763,"regulate","regulate","regulate","VERB"
"10086350JAM",18,25,"List 100","greenhouse",2976,"-","-",36967,2746,35763,"sell","sell","sell","VERB"
"10086350JAM",18,25,"List 100","greenhouse",2976,"-","-",36967,2746,35763,"buy","buy","buy","VERB"
"10086350JAM",19,25,"List 100","wallboard",2979,"-","-",43033,3443,40209,"write","write","write","VERB"
"10086350JAM",19,25,"List 100","wallboard",2979,"-","-",43033,3443,40209,"throw","throw","throw","INTJ"
"10086350JAM",19,25,"List 100","wallboard",2979,"-","-",43033,3443,40209,"put","put","put","VERB"
"10086350JAM",19,25,"List 100","wallboard",2979,"-","-",43033,3443,40209,"pin","pin","pin","NOUN"
"10086350JAM",19,25,"List 100","wallboard",2979,"-","-",43033,3443,40209,"display","display","display","NOUN"
"10086350JAM",19,25,"List 100","wallboard",2979,"-","-",43033,3443,40209,"hide","hide","hide","NOUN"
"10086350JAM",19,25,"List 100","wallboard",2979,"-","-",43033,3443,40209,"organize","organize","organize","VERB"
"10086350JAM",20,25,"List 100","school",2980,"-","-",48187,2725,47304,"attend","attend","attend","VERB"
"10086350JAM",20,25,"List 100","school",2980,"-","-",48187,2725,47304,"build","build","build","NOUN"
"10086350JAM",20,25,"List 100","school",2980,"-","-",48187,2725,47304,"create","create","create","VERB"
"10086350JAM",20,25,"List 100","school",2980,"-","-",48187,2725,47304,"despise","despise","despise","NOUN"
"10086350JAM",20,25,"List 100","school",2980,"-","-",48187,2725,47304,"cherish","cherish","cherish","NOUN"
"10086350JAM",20,25,"List 100","school",2980,"-","-",48187,2725,47304,"go","go","go","VERB"
"10086350JAM",20,25,"List 100","school",2980,"-","-",48187,2725,47304,"leave","leave","leave","VERB"
"10086350JAM",20,25,"List 100","school",2980,"-","-",48187,2725,47304,"run","run","run","NOUN"
"10086350JAM",20,25,"List 100","school",2980,"-","-",48187,2725,47304,"late","late","late","ADJ"
"10086350JAM",20,25,"List 100","school",2980,"-","-",48187,2725,47304,"early","early","early","ADV"
"10086350JAM",20,25,"List 100","school",2980,"-","-",48187,2725,47304,"show","show","show","VERB"
"10086350JAM",21,25,"List 100","waffle",2984,"-","-",40471,2980,38027,"eat","eat","eat","VERB"
"10086350JAM",21,25,"List 100","waffle",2984,"-","-",40471,2980,38027,"make","make","make","VERB"
"10086350JAM",21,25,"List 100","waffle",2984,"-","-",40471,2980,38027,"serve","serve","serve","VERB"
"10086350JAM",21,25,"List 100","waffle",2984,"-","-",40471,2980,38027,"order","order","order","NOUN"
"10086350JAM",21,25,"List 100","waffle",2984,"-","-",40471,2980,38027,"drown","drown","dry","NOUN"
"10086350JAM",21,25,"List 100","waffle",2984,"-","-",40471,2980,38027,"syrup","syrup","syrup","NOUN"
"10086350JAM",21,25,"List 100","waffle",2984,"-","-",40471,2980,38027,"buttered","buttered","butter","VERB"
"10086350JAM",22,25,"List 100","Fern",2977,"-","-",49919,4304,48504,"watch","watch","watch","VERB"
"10086350JAM",22,25,"List 100","Fern",2977,"-","-",49919,4304,48504,"tend","tend","tend","VERB"
"10086350JAM",22,25,"List 100","Fern",2977,"-","-",49919,4304,48504,"keep","keep","keep","VERB"
"10086350JAM",22,25,"List 100","Fern",2977,"-","-",49919,4304,48504,"water","water","water","NOUN"
"10086350JAM",22,25,"List 100","Fern",2977,"-","-",49919,4304,48504,"dry","dry","dry","ADJ"
"10086350JAM",22,25,"List 100","Fern",2977,"-","-",49919,4304,48504,"rot","rot","rot","NOUN"
"10086350JAM",22,25,"List 100","Fern",2977,"-","-",49919,4304,48504,"drown","drown","dry","NOUN"
"10086350JAM",22,25,"List 100","Fern",2977,"-","-",49919,4304,48504,"cut","cut","cut","VERB"
"10086350JAM",22,25,"List 100","Fern",2977,"-","-",49919,4304,48504,"splice","splice","splice","NOUN"
"10086350JAM",23,25,"List 100","fieldstone",2991,"-","-",18899,4665,17518,"watch","watch","watch","VERB"
"10086350JAM",23,25,"List 100","fieldstone",2991,"-","-",18899,4665,17518,"take","take","take","VERB"
"10086350JAM",23,25,"List 100","fieldstone",2991,"-","-",18899,4665,17518,"give","give","give","VERB"
"10086350JAM",23,25,"List 100","fieldstone",2991,"-","-",18899,4665,17518,"study","study","study","NOUN"
"10086350JAM",24,25,"List 100","waist",2998,"-","-",61299,2335,59207,"train","train","train","NOUN"
"10086350JAM",24,25,"List 100","waist",2998,"-","-",61299,2335,59207,"bend","bend","bend","NOUN"
"10086350JAM",24,25,"List 100","waist",2998,"-","-",61299,2335,59207,"sinch","sins","sins","NOUN"
"10086350JAM",24,25,"List 100","waist",2998,"-","-",61299,2335,59207,"tighten","tighten","tighten","ADJ"
"10086350JAM",24,25,"List 100","waist",2998,"-","-",61299,2335,59207,"enhance","enhance","enhance","NOUN"
"10086350JAM",24,25,"List 100","waist",2998,"-","-",61299,2335,59207,"highlight","highlight","highlight","INTJ"
"10086350JAM",24,25,"List 100","waist",2998,"-","-",61299,2335,59207,"hide","hide","hide","NOUN"
"10086350JAM",24,25,"List 100","waist",2998,"-","-",61299,2335,59207,"slim","slim","slim","ADJ"
"10086350JAM",25,25,"List 100","centipede",2987,"-","-",28757,2584,26782,"watch","watch","watch","VERB"
"10086350JAM",25,25,"List 100","centipede",2987,"-","-",28757,2584,26782,"grow","grow","grow","VERB"
"10086350JAM",25,25,"List 100","centipede",2987,"-","-",28757,2584,26782,"hatch","hatch","hatch","NOUN"
"10086350JAM",25,25,"List 100","centipede",2987,"-","-",28757,2584,26782,"kill","kill","kill","VERB"
"10086350JAM",25,25,"List 100","centipede",2987,"-","-",28757,2584,26782,"study","study","study","NOUN"
"10086350JAM",25,25,"List 100","centipede",2987,"-","-",28757,2584,26782,"draw","draw","dree","VERB"
"10086350JAM",25,25,"List 100","centipede",2987,"-","-",28757,2584,26782,"paint","paint","paint","VERB"
"10086350JAM",26,25,"List 100","earplugs",2997,"-","-",31720,3447,28672,"listen","listen","listen","VERB"
"10086350JAM",26,25,"List 100","earplugs",2997,"-","-",31720,3447,28672,"clean","clean","clean","ADJ"
"10086350JAM",26,25,"List 100","earplugs",2997,"-","-",31720,3447,28672,"charge","charge","charge","NOUN"
"10086350JAM",26,25,"List 100","earplugs",2997,"-","-",31720,3447,28672,"sync","sync","sync","NOUN"
"10086350JAM",26,25,"List 100","earplugs",2997,"-","-",31720,3447,28672,"give","give","give","VERB"
"10086350JAM",26,25,"List 100","earplugs",2997,"-","-",31720,3447,28672,"take","take","take","VERB"
"10086350JAM",26,25,"List 100","earplugs",2997,"-","-",31720,3447,28672,"recieve","receive","receive","VERB"
"10086350JAM",27,25,"List 100","wrist",2994,"-","-",36595,2580,35608,"bend","bend","bend","NOUN"
"10086350JAM",27,25,"List 100","wrist",2994,"-","-",36595,2580,35608,"twist","twist","twist","NOUN"
"10086350JAM",27,25,"List 100","wrist",2994,"-","-",36595,2580,35608,"roll","roll","roll","VERB"
"10086350JAM",27,25,"List 100","wrist",2994,"-","-",36595,2580,35608,"flick","flick","flick","VERB"
"10086350JAM",27,25,"List 100","wrist",2994,"-","-",36595,2580,35608,"support","support","support","NOUN"
"10086350JAM",27,25,"List 100","wrist",2994,"-","-",36595,2580,35608,"damage","damage","damage","NOUN"
"10086350JAM",27,25,"List 100","wrist",2994,"-","-",36595,2580,35608,"injur","injure","injure","NOUN"
"10086350JAM",27,25,"List 100","wrist",2994,"-","-",36595,2580,35608,"tattoo","tattoo","tattoo","NOUN"
"10086350JAM",28,25,"List 100","respirator",2996,"-","-",29382,2791,28612,"wear","wear","wear","VERB"
"10086350JAM",28,25,"List 100","respirator",2996,"-","-",29382,2791,28612,"buy","buy","buy","VERB"
"10086350JAM",28,25,"List 100","respirator",2996,"-","-",29382,2791,28612,"sell","sell","sell","VERB"
"10086350JAM",28,25,"List 100","respirator",2996,"-","-",29382,2791,28612,"apply","apply","apply","VERB"
"10086350JAM",28,25,"List 100","respirator",2996,"-","-",29382,2791,28612,"remove","remove","remove","VERB"
"10086350JAM",28,25,"List 100","respirator",2996,"-","-",29382,2791,28612,"clean","clean","clean","ADJ"
"10086350JAM",28,25,"List 100","respirator",2996,"-","-",29382,2791,28612,"use","use","use","VERB"
"10086350JAM",29,25,"List 100","deck",2989,"-","-",45458,3337,39673,"walk","walk","walk","VERB"
"10086350JAM",29,25,"List 100","deck",2989,"-","-",45458,3337,39673,"sit","sit","sit","VERB"
"10086350JAM",29,25,"List 100","deck",2989,"-","-",45458,3337,39673,"stand","stand","stand","VERB"
"10086350JAM",29,25,"List 100","deck",2989,"-","-",45458,3337,39673,"jump","jump","jump","VERB"
"10086350JAM",29,25,"List 100","deck",2989,"-","-",45458,3337,39673,"paint","paint","paint","VERB"
"10086350JAM",29,25,"List 100","deck",2989,"-","-",45458,3337,39673,"stain","stain","stain","NOUN"
"10086350JAM",29,25,"List 100","deck",2989,"-","-",45458,3337,39673,"admire","admire","admire","NOUN"
"10086350JAM",29,25,"List 100","deck",2989,"-","-",45458,3337,39673,"build","build","build","NOUN"
"10086350JAM",29,25,"List 100","deck",2989,"-","-",45458,3337,39673,"demolish","demolish","demolish","INTJ"
"10086350JAM",29,25,"List 100","deck",2989,"-","-",45458,3337,39673,"burn","burn","burn","VERB"
"10086350JAM",30,25,"List 100","dish",2982,"-","-",38280,4312,37447,"serve","serve","serve","VERB"
"10086350JAM",30,25,"List 100","dish",2982,"-","-",38280,4312,37447,"eat","eat","eat","VERB"
"10086350JAM",30,25,"List 100","dish",2982,"-","-",38280,4312,37447,"wash","wash","wash","INTJ"
"10086350JAM",30,25,"List 100","dish",2982,"-","-",38280,4312,37447,"dirty","dirty","dirty","ADJ"
"10086350JAM",30,25,"List 100","dish",2982,"-","-",38280,4312,37447,"use","use","use","VERB"
"10086350JAM",30,25,"List 100","dish",2982,"-","-",38280,4312,37447,"throw","throw","throw","INTJ"
"10086350JAM",30,25,"List 100","dish",2982,"-","-",38280,4312,37447,"catch","catch","catch","VERB"
"10086350JAM",30,25,"List 100","dish",2982,"-","-",38280,4312,37447,"break","break","break","NOUN"
"10086350JAM",30,25,"List 100","dish",2982,"-","-",38280,4312,37447,"buy","buy","buy","VERB"
"10086350JAM",30,25,"List 100","dish",2982,"-","-",38280,4312,37447,"sell","sell","sell","VERB"
"10086350JAM",30,25,"List 100","dish",2982,"-","-",38280,4312,37447,"collect","collect","collect","NOUN"
"10086350JAM",31,25,"List 100","guardrail",2992,"-","-",50058,4084,48797,"paint","paint","paint","VERB"
"10086350JAM",31,25,"List 100","guardrail",2992,"-","-",50058,4084,48797,"stain","stain","stain","NOUN"
"10086350JAM",31,25,"List 100","guardrail",2992,"-","-",50058,4084,48797,"decorate","decorate","decorate","VERB"
"10086350JAM",31,25,"List 100","guardrail",2992,"-","-",50058,4084,48797,"hold","hold","hold","INTJ"
"10086350JAM",31,25,"List 100","guardrail",2992,"-","-",50058,4084,48797,"use","use","use","VERB"
"10086350JAM",31,25,"List 100","guardrail",2992,"-","-",50058,4084,48797,"support","support","support","NOUN"
"10086350JAM",31,25,"List 100","guardrail",2992,"-","-",50058,4084,48797,"destroy","destroy","destroy","VERB"
"10086350JAM",32,25,"List 100","dye",2973,"-","-",49964,4396,45091,"use","use","use","VERB"
"10086350JAM",32,25,"List 100","dye",2973,"-","-",49964,4396,45091,"blend","blend","blend","NOUN"
"10086350JAM",32,25,"List 100","dye",2973,"-","-",49964,4396,45091,"apply","apply","apply","VERB"
"10086350JAM",32,25,"List 100","dye",2973,"-","-",49964,4396,45091,"recieve","receive","receive","VERB"
"10086350JAM",32,25,"List 100","dye",2973,"-","-",49964,4396,45091,"give","give","give","VERB"
"10086350JAM",32,25,"List 100","dye",2973,"-","-",49964,4396,45091,"sell","sell","sell","VERB"
"10086350JAM",32,25,"List 100","dye",2973,"-","-",49964,4396,45091,"buy","buy","buy","VERB"
"10086350JAM",32,25,"List 100","dye",2973,"-","-",49964,4396,45091,"gift","gift","gift","NOUN"
"10086350JAM",32,25,"List 100","dye",2973,"-","-",49964,4396,45091,"wash","wash","wash","INTJ"
"10086350JAM",33,25,"List 100","blowgun",2986,"-","-",20595,3851,19119,"use","use","use","VERB"
"10086350JAM",33,25,"List 100","blowgun",2986,"-","-",20595,3851,19119,"buy","buy","buy","VERB"
"10086350JAM",33,25,"List 100","blowgun",2986,"-","-",20595,3851,19119,"sell","sell","sell","VERB"
"10086350JAM",33,25,"List 100","blowgun",2986,"-","-",20595,3851,19119,"draw","draw","dree","VERB"
"10086350JAM",34,25,"List 100","pulley",2974,"-","-",31049,2596,24849,"use","use","use","VERB"
"10086350JAM",34,25,"List 100","pulley",2974,"-","-",31049,2596,24849,"set","set","set","VERB"
"10086350JAM",34,25,"List 100","pulley",2974,"-","-",31049,2596,24849,"remove","remove","remove","VERB"
"10086350JAM",34,25,"List 100","pulley",2974,"-","-",31049,2596,24849,"adjust","adjust","adjust","VERB"
"10086350JAM",34,25,"List 100","pulley",2974,"-","-",31049,2596,24849,"observe","observe","observe","ADJ"
"10086350JAM",35,25,"List 100","trampoline",2995,"-","-",36766,2362,32621,"jump","jump","jump","VERB"
"10086350JAM",35,25,"List 100","trampoline",2995,"-","-",36766,2362,32621,"sit","sit","sit","VERB"
"10086350JAM",35,25,"List 100","trampoline",2995,"-","-",36766,2362,32621,"lay","lay","lay","VERB"
"10086350JAM",35,25,"List 100","trampoline",2995,"-","-",36766,2362,32621,"play","play","play","VERB"
"10086350JAM",35,25,"List 100","trampoline",2995,"-","-",36766,2362,32621,"stand","stand","stand","VERB"
"10086350JAM",35,25,"List 100","trampoline",2995,"-","-",36766,2362,32621,"enjoy","enjoy","enjoy","VERB"
"10086350JAM",35,25,"List 100","trampoline",2995,"-","-",36766,2362,32621,"use","use","use","VERB"
"10086350JAM",35,25,"List 100","trampoline",2995,"-","-",36766,2362,32621,"buy","buy","buy","VERB"
"10086350JAM",35,25,"List 100","trampoline",2995,"-","-",36766,2362,32621,"sell","sell","sell","VERB"
"10086350JAM",35,25,"List 100","trampoline",2995,"-","-",36766,2362,32621,"desire","desire","desire","NOUN"
"10086350JAM",36,25,"List 100","limb",2983,"-","-",63535,4141,53285,"break","break","break","NOUN"
"10086350JAM",36,25,"List 100","limb",2983,"-","-",63535,4141,53285,"wash","wash","wash","INTJ"
"10086350JAM",36,25,"List 100","limb",2983,"-","-",63535,4141,53285,"hold","hold","hold","INTJ"
"10086350JAM",36,25,"List 100","limb",2983,"-","-",63535,4141,53285,"support","support","support","NOUN"
"10086350JAM",36,25,"List 100","limb",2983,"-","-",63535,4141,53285,"hit","hit","hit","VERB"
"10086350JAM",36,25,"List 100","limb",2983,"-","-",63535,4141,53285,"hurt","hurt","hurt","VERB"
"10086350JAM",36,25,"List 100","limb",2983,"-","-",63535,4141,53285,"burn","burn","burn","VERB"
"10086350JAM",37,25,"List 100","brow",2999,"-","-",48527,2412,46646,"draw","draw","dree","VERB"
"10086350JAM",37,25,"List 100","brow",2999,"-","-",48527,2412,46646,"scratch","scratch","scratch","NOUN"
"10086350JAM",37,25,"List 100","brow",2999,"-","-",48527,2412,46646,"tweeze","tweezers","tweezers","NOUN"
"10086350JAM",37,25,"List 100","brow",2999,"-","-",48527,2412,46646,"thread","thread","thread","NOUN"
"10086350JAM",37,25,"List 100","brow",2999,"-","-",48527,2412,46646,"wax","wax","wax","NOUN"
"10086350JAM",37,25,"List 100","brow",2999,"-","-",48527,2412,46646,"raise","raise","raise","VERB"
"10086350JAM",37,25,"List 100","brow",2999,"-","-",48527,2412,46646,"lower","lower","lower","ADJ"
"10086350JAM",37,25,"List 100","brow",2999,"-","-",48527,2412,46646,"furrow","furrow","furrow","NOUN"
"10086350JAM",37,25,"List 100","brow",2999,"-","-",48527,2412,46646,"dye","dye","dye","INTJ"
"10086350JAM",37,25,"List 100","brow",2999,"-","-",48527,2412,46646,"shave","shave","shave","NOUN"
"10086350JAM",37,25,"List 100","brow",2999,"-","-",48527,2412,46646,"grow","grow","grow","VERB"
"10086350JAM",38,25,"List 100","marketeer",2990,"-","-",24066,4051,22154,"know","know","know","VERB"
"10086350JAM",38,25,"List 100","marketeer",2990,"-","-",24066,4051,22154,"become","become","become","VERB"
"10086350JAM",38,25,"List 100","marketeer",2990,"-","-",24066,4051,22154,"meet","meet","meet","VERB"
"10086350JAM",38,25,"List 100","marketeer",2990,"-","-",24066,4051,22154,"use","use","use","VERB"
"10086350JAM",38,25,"List 100","marketeer",2990,"-","-",24066,4051,22154,"hire","hire","hire","VERB"
"10086350JAM",38,25,"List 100","marketeer",2990,"-","-",24066,4051,22154,"recommend","recommend","recommend","VERB"
"10086350JAM",39,25,"List 100","hound",2975,"-","-",69390,8961,66126,"buy","buy","buy","VERB"
"10086350JAM",39,25,"List 100","hound",2975,"-","-",69390,8961,66126,"sell","sell","sell","VERB"
"10086350JAM",39,25,"List 100","hound",2975,"-","-",69390,8961,66126,"breed","breed","breed","NOUN"
"10086350JAM",39,25,"List 100","hound",2975,"-","-",69390,8961,66126,"pet","pet","pet","NOUN"
"10086350JAM",39,25,"List 100","hound",2975,"-","-",69390,8961,66126,"play","play","play","VERB"
"10086350JAM",39,25,"List 100","hound",2975,"-","-",69390,8961,66126,"bathe","bathe","bato","NOUN"
"10086350JAM",39,25,"List 100","hound",2975,"-","-",69390,8961,66126,"hunt","hunt","hunt","NOUN"
"10086350JAM",39,25,"List 100","hound",2975,"-","-",69390,8961,66126,"kill","kill","kill","VERB"
"10086350JAM",39,25,"List 100","hound",2975,"-","-",69390,8961,66126,"bury","bury","bury","NOUN"
"10086350JAM",40,25,"List 100","tee",2985,"-","-",39863,7033,38756,"stick","stick","stick","NOUN"
"10086350JAM",40,25,"List 100","tee",2985,"-","-",39863,7033,38756,"grass","grass","grass","NOUN"
"10086350JAM",40,25,"List 100","tee",2985,"-","-",39863,7033,38756,"hit","hit","hit","VERB"
"10086350JAM",40,25,"List 100","tee",2985,"-","-",39863,7033,38756,"knock","knock","knock","NOUN"
"10086350JAM",40,25,"List 100","tee",2985,"-","-",39863,7033,38756,"set","set","set","VERB"
"10086350JAM",40,25,"List 100","tee",2985,"-","-",39863,7033,38756,"place","place","place","NOUN"
"10086350JAM",40,25,"List 100","tee",2985,"-","-",39863,7033,38756,"give","give","give","VERB"
"10086350JAM",40,25,"List 100","tee",2985,"-","-",39863,7033,38756,"take","take","take","VERB"
"10086350JAM",40,25,"List 100","tee",2985,"-","-",39863,7033,38756,"use","use","use","VERB"
"10088817XD",11,17,"List 17","bubble",496,"-","-",34169,4360,13846,"pop","pop","pop","NOUN"
"10088817XD",11,17,"List 17","bubble",496,"-","-",34169,4360,13846,"blow","blow","blow","VERB"
"10088817XD",11,17,"List 17","bubble",496,"-","-",34169,4360,13846,"eat","eat","eat","VERB"
"10088817XD",12,17,"List 17","colander",502,"-","-",53368,23412,31175,"strain","strain","strain","NOUN"
"10088817XD",12,17,"List 17","colander",502,"-","-",53368,23412,31175,"pour","pour","pour","VERB"
"10088817XD",13,17,"List 17","gearbox",488,"-","-",70926,60476,68357,"increase","increase","increase","NOUN"
"10088817XD",13,17,"List 17","gearbox",488,"-","-",70926,60476,68357,"decrease","decrease","decrease","NOUN"
"10088817XD",13,17,"List 17","gearbox",488,"-","-",70926,60476,68357,"break","break","break","NOUN"
"10088817XD",14,17,"List 17","bookseller",484,"-","-",30681,3062,26779,"sell","sell","sell","VERB"
"10088817XD",14,17,"List 17","bookseller",484,"-","-",30681,3062,26779,"return","return","return","NOUN"
"10088817XD",14,17,"List 17","bookseller",484,"-","-",30681,3062,26779,"scan","scan","scan","ADJ"
"10088817XD",14,17,"List 17","bookseller",484,"-","-",30681,3062,26779,"read","read","read","VERB"
"10088817XD",14,17,"List 17","bookseller",484,"-","-",30681,3062,26779,"stock","stock","stock","NOUN"
"10088817XD",14,17,"List 17","bookseller",484,"-","-",30681,3062,26779,"produce","produce","produce","VERB"
"10088817XD",15,17,"List 17","headphones",487,"-","-",64559,4167,63290,"break","break","break","NOUN"
"10088817XD",15,17,"List 17","headphones",487,"-","-",64559,4167,63290,"play","play","play","VERB"
"10088817XD",15,17,"List 17","headphones",487,"-","-",64559,4167,63290,"music","music","music","NOUN"
"10088817XD",15,17,"List 17","headphones",487,"-","-",64559,4167,63290,"dirty","dirty","dirty","ADJ"
"10088817XD",16,17,"List 17","frame",503,"-","-",27827,5734,25077,"hang","hang","hang","VERB"
"10088817XD",16,17,"List 17","frame",503,"-","-",27827,5734,25077,"break","break","break","NOUN"
"10088817XD",16,17,"List 17","frame",503,"-","-",27827,5734,25077,"protect","protect","protect","VERB"
"10088817XD",16,17,"List 17","frame",503,"-","-",27827,5734,25077,"broadcast","broadcast","broadcast","NOUN"
"10088817XD",17,17,"List 17","wart",504,"-","-",22095,2389,18540,"pop","pop","pop","NOUN"
"10088817XD",18,17,"List 17","handbook",500,"-","-",51043,4232,49749,"break","break","break","NOUN"
"10088817XD",18,17,"List 17","handbook",500,"-","-",51043,4232,49749,"give","give","give","VERB"
"10088817XD",18,17,"List 17","handbook",500,"-","-",51043,4232,49749,"information","information","information","NOUN"
"10088817XD",18,17,"List 17","handbook",500,"-","-",51043,4232,49749,"water","water","water","NOUN"
"10088817XD",18,17,"List 17","handbook",500,"-","-",51043,4232,49749,"damaged","damaged","damage","VERB"
"10088817XD",18,17,"List 17","handbook",500,"-","-",51043,4232,49749,"tear","tear","tear","NOUN"
"10088817XD",18,17,"List 17","handbook",500,"-","-",51043,4232,49749,"thrown","thrown","throw","VERB"
"10088817XD",18,17,"List 17","handbook",500,"-","-",51043,4232,49749,"drop","drop","drop","VERB"
"10088817XD",18,17,"List 17","handbook",500,"-","-",51043,4232,49749,"ran","ran","run","VERB"
"10088817XD",19,17,"List 17","feline",495,"-","-",54016,24306,52186,"scratch","scratch","scratch","NOUN"
"10088817XD",19,17,"List 17","feline",495,"-","-",54016,24306,52186,"cry","cry","cry","VERB"
"10088817XD",19,17,"List 17","feline",495,"-","-",54016,24306,52186,"fall","fall","fall","NOUN"
"10088817XD",19,17,"List 17","feline",495,"-","-",54016,24306,52186,"roll","roll","roll","VERB"
"10088817XD",19,17,"List 17","feline",495,"-","-",54016,24306,52186,"sit","sit","sit","VERB"
"10088817XD",19,17,"List 17","feline",495,"-","-",54016,24306,52186,"hug","hug","hug","X"
"10088817XD",19,17,"List 17","feline",495,"-","-",54016,24306,52186,"kiss","kiss","kiss","NOUN"
"10088817XD",20,17,"List 17","kid",497,"-","-",273008,92289,147195,"baby","baby","baby","NOUN"
"10088817XD",20,17,"List 17","kid",497,"-","-",273008,92289,147195,"whoop","whoop","whoop","VERB"
"10088817XD",20,17,"List 17","kid",497,"-","-",273008,92289,147195,"feed","feed","feed","NOUN"
"10088817XD",20,17,"List 17","kid",497,"-","-",273008,92289,147195,"take","take","take","VERB"
"10088817XD",20,17,"List 17","kid",497,"-","-",273008,92289,147195,"care","care","care","NOUN"
"10088817XD",20,17,"List 17","kid",497,"-","-",273008,92289,147195,"talk","talk","talk","VERB"
"10088817XD",20,17,"List 17","kid",497,"-","-",273008,92289,147195,"read","read","read","VERB"
"10088817XD",21,17,"List 17","drill",486,"-","-",27663,9539,18097,"screws","screws","screw","NOUN"
"10088817XD",21,17,"List 17","drill",486,"-","-",27663,9539,18097,"building","building","building","NOUN"
"10088817XD",22,17,"List 17","aftershave",506,"-","-",96424,81789,94571,"wash","wash","wash","INTJ"
"10088817XD",22,17,"List 17","aftershave",506,"-","-",96424,81789,94571,"rinse","rinse","rinse","NOUN"
"10088817XD",22,17,"List 17","aftershave",506,"-","-",96424,81789,94571,"lotion","lotion","lotion","NOUN"
"10088817XD",23,17,"List 17","doorknob",509,"-","-",34617,3049,13810,"twist","twist","twist","NOUN"
"10088817XD",23,17,"List 17","doorknob",509,"-","-",34617,3049,13810,"break","break","break","NOUN"
"10088817XD",23,17,"List 17","doorknob",509,"-","-",34617,3049,13810,"install","install","install","ADV"
"10088817XD",24,17,"List 17","memorabilia",491,"-","-",108492,81810,107301,"sale","sale","sale","NOUN"
"10088817XD",24,17,"List 17","memorabilia",491,"-","-",108492,81810,107301,"observe","observe","observe","ADJ"
"10088817XD",24,17,"List 17","memorabilia",491,"-","-",108492,81810,107301,"study","study","study","NOUN"
"10088817XD",24,17,"List 17","memorabilia",491,"-","-",108492,81810,107301,"put","put","put","VERB"
"10088817XD",24,17,"List 17","memorabilia",491,"-","-",108492,81810,107301,"museum","museum","museum","NOUN"
"10088817XD",25,17,"List 17","mincemeat",505,"-","-",46936,12512,46225,"eat","eat","eat","VERB"
"10088817XD",25,17,"List 17","mincemeat",505,"-","-",46936,12512,46225,"cook","cook","cake","VERB"
"10088817XD",25,17,"List 17","mincemeat",505,"-","-",46936,12512,46225,"buy","buy","buy","VERB"
"10088817XD",25,17,"List 17","mincemeat",505,"-","-",46936,12512,46225,"sale","sale","sale","NOUN"
"10088817XD",25,17,"List 17","mincemeat",505,"-","-",46936,12512,46225,"hunt","hunt","hunt","NOUN"
"10088817XD",26,17,"List 17","wastebasket",485,"-","-",24771,3816,23111,"throw","throw","throw","INTJ"
"10088817XD",26,17,"List 17","wastebasket",485,"-","-",24771,3816,23111,"away","away","away","ADV"
"10088817XD",26,17,"List 17","wastebasket",485,"-","-",24771,3816,23111,"weigh","weigh","weigh","INTJ"
"10088817XD",26,17,"List 17","wastebasket",485,"-","-",24771,3816,23111,"note","note","note","NOUN"
"10088817XD",27,17,"List 17","groom",483,"-","-",27084,11832,25692,"shave","shave","shave","NOUN"
"10088817XD",27,17,"List 17","groom",483,"-","-",27084,11832,25692,"marry","marry","marry","INTJ"
"10088817XD",27,17,"List 17","groom",483,"-","-",27084,11832,25692,"clean","clean","clean","ADJ"
"10088817XD",27,17,"List 17","groom",483,"-","-",27084,11832,25692,"love","love","love","NOUN"
"10088817XD",28,17,"List 17","parka",482,"-","-",45225,9844,43943,"wear","wear","wear","VERB"
"10088817XD",28,17,"List 17","parka",482,"-","-",45225,9844,43943,"wash","wash","wash","INTJ"
"10088817XD",28,17,"List 17","parka",482,"-","-",45225,9844,43943,"dry","dry","dry","ADJ"
"10088817XD",28,17,"List 17","parka",482,"-","-",45225,9844,43943,"give","give","give","VERB"
"10088817XD",28,17,"List 17","parka",482,"-","-",45225,9844,43943,"away","away","away","ADV"
"10088817XD",28,17,"List 17","parka",482,"-","-",45225,9844,43943,"keep","keep","keep","VERB"
"10088817XD",28,17,"List 17","parka",482,"-","-",45225,9844,43943,"roll","roll","roll","VERB"
"10088817XD",28,17,"List 17","parka",482,"-","-",45225,9844,43943,"step","step","step","NOUN"
"10088817XD",29,17,"List 17","jacket",494,"-","-",66084,2896,42832,"wear","wear","wear","VERB"
"10088817XD",29,17,"List 17","jacket",494,"-","-",66084,2896,42832,"tear","tear","tear","NOUN"
"10088817XD",29,17,"List 17","jacket",494,"-","-",66084,2896,42832,"wash","wash","wash","INTJ"
"10088817XD",29,17,"List 17","jacket",494,"-","-",66084,2896,42832,"grow","grow","grow","VERB"
"10088817XD",29,17,"List 17","jacket",494,"-","-",66084,2896,42832,"pass","pass","pass","VERB"
"10088817XD",30,17,"List 17","caddy",490,"-","-",52418,25048,46076,"store","store","store","NOUN"
"10088817XD",30,17,"List 17","caddy",490,"-","-",52418,25048,46076,"stuff","stuff","stuff","NOUN"
"10088817XD",30,17,"List 17","caddy",490,"-","-",52418,25048,46076,"spill","spill","spill","NOUN"
"10088817XD",30,17,"List 17","caddy",490,"-","-",52418,25048,46076,"stuff","stuff","stuff","NOUN"
"10088817XD",30,17,"List 17","caddy",490,"-","-",52418,25048,46076,"can","can","can","AUX"
"10088817XD",30,17,"List 17","caddy",490,"-","-",52418,25048,46076,"break","break","break","NOUN"
"10088817XD",30,17,"List 17","caddy",490,"-","-",52418,25048,46076,"can","can","can","AUX"
"10088817XD",30,17,"List 17","caddy",490,"-","-",52418,25048,46076,"tear","tear","tear","NOUN"
"10088817XD",31,17,"List 17","fingerboard",507,"-","-",31085,14978,29918,"play","play","play","VERB"
"10088817XD",31,17,"List 17","fingerboard",507,"-","-",31085,14978,29918,"throw","throw","throw","INTJ"
"10088817XD",31,17,"List 17","fingerboard",507,"-","-",31085,14978,29918,"away","away","away","ADV"
"10088817XD",31,17,"List 17","fingerboard",507,"-","-",31085,14978,29918,"lose","lose","lose","VERB"
"10088817XD",32,17,"List 17","rum",492,"-","-",23401,2070,22012,"drink","drink","drink","NOUN"
"10088817XD",32,17,"List 17","rum",492,"-","-",23401,2070,22012,"throw","throw","throw","INTJ"
"10088817XD",32,17,"List 17","rum",492,"-","-",23401,2070,22012,"spill","spill","spill","NOUN"
"10088817XD",32,17,"List 17","rum",492,"-","-",23401,2070,22012,"throw","throw","throw","INTJ"
"10088817XD",32,17,"List 17","rum",492,"-","-",23401,2070,22012,"away","away","away","ADV"
"10088817XD",33,17,"List 17","washerwoman",511,"-","-",47055,24933,44901,"wash","wash","wash","INTJ"
"10088817XD",33,17,"List 17","washerwoman",511,"-","-",47055,24933,44901,"dry","dry","dry","ADJ"
"10088817XD",33,17,"List 17","washerwoman",511,"-","-",47055,24933,44901,"work","work","work","NOUN"
"10088817XD",33,17,"List 17","washerwoman",511,"-","-",47055,24933,44901,"love","love","love","NOUN"
"10088817XD",33,17,"List 17","washerwoman",511,"-","-",47055,24933,44901,"pay","pay","pay","VERB"
"10088817XD",34,17,"List 17","sleigh",508,"-","-",30751,3167,29557,"ride","ride","ride","NOUN"
"10088817XD",34,17,"List 17","sleigh",508,"-","-",30751,3167,29557,"fall","fall","fall","NOUN"
"10088817XD",34,17,"List 17","sleigh",508,"-","-",30751,3167,29557,"lose","lose","lose","VERB"
"10088817XD",34,17,"List 17","sleigh",508,"-","-",30751,3167,29557,"break","break","break","NOUN"
"10088817XD",34,17,"List 17","sleigh",508,"-","-",30751,3167,29557,"buy","buy","buy","VERB"
"10088817XD",35,17,"List 17","chapel",498,"-","-",20988,3174,17551,"burn","burn","burn","VERB"
"10088817XD",35,17,"List 17","chapel",498,"-","-",20988,3174,17551,"build","build","build","NOUN"
"10088817XD",35,17,"List 17","chapel",498,"-","-",20988,3174,17551,"clean","clean","clean","ADJ"
"10088817XD",35,17,"List 17","chapel",498,"-","-",20988,3174,17551,"dirty","dirty","dirty","ADJ"
"10088817XD",36,17,"List 17","leech",499,"-","-",12032,2607,10442,"kill","kill","kill","VERB"
"10088817XD",36,17,"List 17","leech",499,"-","-",12032,2607,10442,"release","release","release","INTJ"
"10088817XD",36,17,"List 17","leech",499,"-","-",12032,2607,10442,"study","study","study","NOUN"
"10088817XD",37,17,"List 17","kitten",493,"-","-",20617,2836,17635,"love","love","love","NOUN"
"10088817XD",37,17,"List 17","kitten",493,"-","-",20617,2836,17635,"save","save","save","VERB"
"10088817XD",37,17,"List 17","kitten",493,"-","-",20617,2836,17635,"buy","buy","buy","VERB"
"10088817XD",37,17,"List 17","kitten",493,"-","-",20617,2836,17635,"hug","hug","hug","X"
"10088817XD",38,17,"List 17","gingersnap",489,"-","-",54124,18757,52482,"eat","eat","eat","VERB"
"10088817XD",38,17,"List 17","gingersnap",489,"-","-",54124,18757,52482,"bake","bake","bake","VERB"
"10088817XD",38,17,"List 17","gingersnap",489,"-","-",54124,18757,52482,"sale","sale","sale","NOUN"
"10088817XD",38,17,"List 17","gingersnap",489,"-","-",54124,18757,52482,"receive","receive","receive","VERB"
"10088817XD",39,17,"List 17","spice",510,"-","-",16186,5562,14424,"cook","cook","cake","VERB"
"10088817XD",39,17,"List 17","spice",510,"-","-",16186,5562,14424,"drop","drop","drop","VERB"
"10088817XD",39,17,"List 17","spice",510,"-","-",16186,5562,14424,"lose","lose","lose","VERB"
"10088817XD",39,17,"List 17","spice",510,"-","-",16186,5562,14424,"spill","spill","spill","NOUN"
"10088817XD",40,17,"List 17","nutshell",501,"-","-",93540,38817,44803,"eat","eat","eat","VERB"
"10088817XD",40,17,"List 17","nutshell",501,"-","-",93540,38817,44803,"find","find","find","VERB"
"10088817XD",40,17,"List 17","nutshell",501,"-","-",93540,38817,44803,"sell","sell","sell","VERB"
"10088817XD",40,17,"List 17","nutshell",501,"-","-",93540,38817,44803,"cook","cook","cake","VERB"
"10089475KD",11,12,"List 37","mustard",1105,"-","-",14975,3882,12043,"burger","burger","burger","NOUN"
"10089475KD",11,12,"List 37","mustard",1105,"-","-",14975,3882,12043,"egg","egg","egg","NOUN"
"10089475KD",11,12,"List 37","mustard",1105,"-","-",14975,3882,12043,"salad","salad","salad","NOUN"
"10089475KD",12,12,"List 37","kneecap",1093,"-","-",21600,4424,15590,"kneel","kneel","kneel","NOUN"
"10089475KD",12,12,"List 37","kneecap",1093,"-","-",21600,4424,15590,"football","football","football","NOUN"
"10089475KD",12,12,"List 37","kneecap",1093,"-","-",21600,4424,15590,"rugby","rugby","rugby","NOUN"
"10089475KD",12,12,"List 37","kneecap",1093,"-","-",21600,4424,15590,"prayer","prayer","prayer","NOUN"
"10089475KD",13,12,"List 37","jet",1085,"-","-",27946,3504,27466,"travel","travel","travel","NOUN"
"10089475KD",13,12,"List 37","jet",1085,"-","-",27946,3504,27466,"fun","fun","fun","NOUN"
"10089475KD",13,12,"List 37","jet",1085,"-","-",27946,3504,27466,"convenience","convenience","convenience","NOUN"
"10089475KD",13,12,"List 37","jet",1085,"-","-",27946,3504,27466,"war","war","war","NOUN"
"10089475KD",13,12,"List 37","jet",1085,"-","-",27946,3504,27466,"emergency","emergency","emergency","NOUN"
"10089475KD",14,12,"List 37","gear",1084,"-","-",19795,3656,18673,"dive","dive","dive","ADJ"
"10089475KD",14,12,"List 37","gear",1084,"-","-",19795,3656,18673,"work","work","work","NOUN"
"10089475KD",14,12,"List 37","gear",1084,"-","-",19795,3656,18673,"dress","dress","dress","NOUN"
"10089475KD",14,12,"List 37","gear",1084,"-","-",19795,3656,18673,"protection","protection","protection","NOUN"
"10089475KD",15,12,"List 37","clover",1090,"-","-",28474,22339,27979,"repair","repair","repair","NOUN"
"10089475KD",15,12,"List 37","clover",1090,"-","-",28474,22339,27979,"soil","soil","soil","NOUN"
"10089475KD",15,12,"List 37","clover",1090,"-","-",28474,22339,27979,"erosion","erosion","erosion","NOUN"
"10089475KD",16,12,"List 37","chair",1111,"-","-",14565,1482,13898,"sit","sit","sit","VERB"
"10089475KD",16,12,"List 37","chair",1111,"-","-",14565,1482,13898,"clean","clean","clean","ADJ"
"10089475KD",16,12,"List 37","chair",1111,"-","-",14565,1482,13898,"sleep","sleep","sleep","NOUN"
"10089475KD",17,12,"List 37","lamplight",1096,"-","-",17350,2659,15311,"see","see","see","VERB"
"10089475KD",17,12,"List 37","lamplight",1096,"-","-",17350,2659,15311,"read","read","read","VERB"
"10089475KD",17,12,"List 37","lamplight",1096,"-","-",17350,2659,15311,"write","write","write","VERB"
"10089475KD",17,12,"List 37","lamplight",1096,"-","-",17350,2659,15311,"tell","tell","tell","VERB"
"10089475KD",17,12,"List 37","lamplight",1096,"-","-",17350,2659,15311,"stories","stories","story","NOUN"
"10089475KD",18,12,"List 37","tummy",1106,"-","-",18418,1960,17893,"eat","eat","eat","VERB"
"10089475KD",18,12,"List 37","tummy",1106,"-","-",18418,1960,17893,"store","store","store","NOUN"
"10089475KD",18,12,"List 37","tummy",1106,"-","-",18418,1960,17893,"food","food","food","NOUN"
"10089475KD",18,12,"List 37","tummy",1106,"-","-",18418,1960,17893,"fight","fight","fight","NOUN"
"10089475KD",18,12,"List 37","tummy",1106,"-","-",18418,1960,17893,"rubs","rubs","rub","NOUN"
"10089475KD",18,12,"List 37","tummy",1106,"-","-",18418,1960,17893,"carry","carry","carry","VERB"
"10089475KD",18,12,"List 37","tummy",1106,"-","-",18418,1960,17893,"baby","baby","baby","NOUN"
"10089475KD",19,12,"List 37","scorecard",1091,"-","-",8535,3956,7459,"keep","keep","keep","VERB"
