Username,ID,ExperimentName,Session,Trial,Date,TimeDif,"Condition Number","Stimuli File","Order File","Condition Description","Condition Notes",Stimuli*Cue,Stimuli*Answer,Stimuli*Shuffle,"Stimuli*Stimuli Notes",Stimuli*Value,Stimuli*Rand,Procedure*Item,"Procedure*Trial Type","Procedure*Max Time","Procedure*Min Time",Procedure*Text,"Procedure*Procedure Notes",Procedure*Shuffle,Response*RT,Response*Response,Response*Accuracy,Response*RTfirst,Response*RTlast,Response*strictAcc,Response*lenientAcc,Response*focus,Response*JOL,Response*Focus
62c63362e7342ad8be294866,zcwihj76pn,"Affordance Norms_Prolific",1,1,2023-07-25T16:55:09+00:00,14.429924964905,17,"updated stim.csv",Version17.csv,"Version 17","List 17",,,,,,,0,Instruct,-,10,"In this section, you will be presented with a series of objects. Please name as many possible uses for this object as you can think of by typing them in the box below each object.",,Instruct1,14275,,,-1,-1,,,,,1
62c63362e7342ad8be294866,zcwihj76pn,"Affordance Norms_Prolific",1,2,2023-07-25T16:55:22+00:00,13.25630903244,17,"updated stim.csv",Version17.csv,"Version 17","List 17",,,,,,,0,Instruct,-,10,"Please keep in mind that a single object will have more than one use. For example, a ball can be thrown or can be bounced or even stepped on. When listing multiple uses for one object, please separate each use with a comma (i.e., thrown, bounced, stepped on)",,Instruct2,13023,,,-1,-1,,,,,1
62c63362e7342ad8be294866,zcwihj76pn,"Affordance Norms_Prolific",1,3,2023-07-25T16:55:28+00:00,5.2243068218231,17,"updated stim.csv",Version17.csv,"Version 17","List 17",,,,,,,0,Instruct,-,-,"Before starting the experiment, you will complete a short practice sesstion. Press ENTER when you are ready to begin.",,Instruct3,4992,,,-1,-1,,,,,1
62c63362e7342ad8be294866,zcwihj76pn,"Affordance Norms_Prolific",1,4,2023-07-25T16:56:17+00:00,49.251324176788,17,"updated stim.csv",Version17.csv,"Version 17","List 17",grain,,635,4.708333333,1700,0.685106443,636,BOI,-,-,"Please name all of the ways you could use this object. Keep in mind that one object can have many uses. Separate your responses with a comma.",,n,49010,,,5227,45747,,,,"to make bread, to make a recipe, to make cookies, to make a granola bar, to use to feed live stock",1
62c63362e7342ad8be294866,zcwihj76pn,"Affordance Norms_Prolific",1,5,2023-07-25T16:56:41+00:00,24.41068983078,17,"updated stim.csv",Version17.csv,"Version 17","List 17",glove,,631,5.217391304,2788,0.288599309,632,BOI,-,-,"Please name all of the ways you could use this object. Keep in mind that one object can have many uses. Separate your responses with a comma.",,n,24174,,,2888,21945,,,,"put on hand, keep hands warm, to put a barrier between you and germs",1
62c63362e7342ad8be294866,zcwihj76pn,"Affordance Norms_Prolific",1,6,2023-07-25T16:57:01+00:00,19.803209066391,17,"updated stim.csv",Version17.csv,"Version 17","List 17",spaghetti,,634,4.608695652,2807,0.295026168,635,BOI,-,-,"Please name all of the ways you could use this object. Keep in mind that one object can have many uses. Separate your responses with a comma.",,n,19559,,,1849,16935,,,,"to eat, to wear as a hat, to have a food fight",1
62c63362e7342ad8be294866,zcwihj76pn,"Affordance Norms_Prolific",1,7,2023-07-25T16:57:18+00:00,16.629565000534,17,"updated stim.csv",Version17.csv,"Version 17","List 17",shortening,,633,4.961538462,2303,0.081957919,634,BOI,-,-,"Please name all of the ways you could use this object. Keep in mind that one object can have many uses. Separate your responses with a comma.",,n,16388,,,2243,13995,,,,"for cookies, for cakes, for making a recipe",1
62c63362e7342ad8be294866,zcwihj76pn,"Affordance Norms_Prolific",1,8,2023-07-25T16:57:42+00:00,24.230631113052,17,"updated stim.csv",Version17.csv,"Version 17","List 17",paperwork,,632,4.28,439,0.557499565,633,BOI,-,-,"Please name all of the ways you could use this object. Keep in mind that one object can have many uses. Separate your responses with a comma.",,n,23990,,,2623,21035,,,,"to keep the company informed, to fill out an appliction, to fill out medical information",1
62c63362e7342ad8be294866,zcwihj76pn,"Affordance Norms_Prolific",1,9,2023-07-25T16:57:44+00:00,2.3747589588165,17,"updated stim.csv",Version17.csv,"Version 17","List 17",,,,,,,0,Instruct,-,-,"You have completed this section. Press ENTER to continue",,"Instruct 5",2143,,,-1,-1,,,,,1
62c63362e7342ad8be294866,zcwihj76pn,"Affordance Norms_Prolific",1,10,2023-07-25T16:57:47+00:00,2.8608310222626,17,"updated stim.csv",Version17.csv,"Version 17","List 17",,,,,,,0,Instruct,-,-,"You will now start the full experiment. Press ENTER when you are ready to begin.",,,2631,,,-1,-1,,,,,1
62c63362e7342ad8be294866,zcwihj76pn,"Affordance Norms_Prolific",1,11,2023-07-25T16:58:07+00:00,19.886380910873,17,"updated stim.csv",Version17.csv,"Version 17","List 17",scarf,,492,6.4,1428,0.954803536,493,BOI,-,-,"Please name all of the ways you could use this object. Keep in mind that one object can have many uses. Separate your responses with a comma.",,y,19616,,,2342,16190,,,,"wear around neck, to keep warm, to ties two things together",1
62c63362e7342ad8be294866,zcwihj76pn,"Affordance Norms_Prolific",1,12,2023-07-25T16:58:33+00:00,25.603130102158,17,"updated stim.csv",Version17.csv,"Version 17","List 17",teabag,,503,4.56,2894,0.169280994,504,BOI,-,-,"Please name all of the ways you could use this object. Keep in mind that one object can have many uses. Separate your responses with a comma.",,y,25371,,,2190,22778,,,,"for tea, to put over eyes for wrinkles, to use to deter pests",1
62c63362e7342ad8be294866,zcwihj76pn,"Affordance Norms_Prolific",1,13,2023-07-25T16:59:03+00:00,30.690448045731,17,"updated stim.csv",Version17.csv,"Version 17","List 17",sandbox,,491,5.64,2206,0.418822922,492,BOI,-,-,"Please name all of the ways you could use this object. Keep in mind that one object can have many uses. Separate your responses with a comma.",,y,30454,,,1863,25921,,,,"for cats to poop in, for kids to play in, play horseshoes",1
62c63362e7342ad8be294866,zcwihj76pn,"Affordance Norms_Prolific",1,14,2023-07-25T16:59:21+00:00,17.686084985733,17,"updated stim.csv",Version17.csv,"Version 17","List 17",rhubarb,,488,4.703703704,1106,0.844195125,489,BOI,-,-,"Please name all of the ways you could use this object. Keep in mind that one object can have many uses. Separate your responses with a comma.",,y,17434,,,2779,15788,,,,"pie, cake, cookies, a side dish",1
62c63362e7342ad8be294866,zcwihj76pn,"Affordance Norms_Prolific",1,15,2023-07-25T16:59:36+00:00,15.156152963638,17,"updated stim.csv",Version17.csv,"Version 17","List 17",publication,,487,5.041666667,1092,0.483566212,488,BOI,-,-,"Please name all of the ways you could use this object. Keep in mind that one object can have many uses. Separate your responses with a comma.",,y,12512,,,2928,9598,,,,"to inform, to read, to learn",1
62c63362e7342ad8be294866,zcwihj76pn,"Affordance Norms_Prolific",1,16,2023-07-25T16:59:54+00:00,18.313586950302,17,"updated stim.csv",Version17.csv,"Version 17","List 17",sleeve,,497,4.52,494,0.136839401,498,BOI,-,-,"Please name all of the ways you could use this object. Keep in mind that one object can have many uses. Separate your responses with a comma.",,y,18077,,,1981,16037,,,,"to put arms through, to keep shirt on, to wipe nose with",1
62c63362e7342ad8be294866,zcwihj76pn,"Affordance Norms_Prolific",1,17,2023-07-25T17:00:11+00:00,16.552275896072,17,"updated stim.csv",Version17.csv,"Version 17","List 17",schoolhouse,,493,6.333333333,1370,0.521573786,494,BOI,-,-,"Please name all of the ways you could use this object. Keep in mind that one object can have many uses. Separate your responses with a comma.",,y,16316,,,2102,14165,,,,"to learn, to gather students, to socialize",1
62c63362e7342ad8be294866,zcwihj76pn,"Affordance Norms_Prolific",1,18,2023-07-25T17:00:28+00:00,16.924107074738,17,"updated stim.csv",Version17.csv,"Version 17","List 17",teacher,,504,5.083333333,1662,0.960305963,505,BOI,-,-,"Please name all of the ways you could use this object. Keep in mind that one object can have many uses. Separate your responses with a comma.",,y,16680,,,6836,14674,,,,"to teach, to guide, to learn from",0.798
62c63362e7342ad8be294866,zcwihj76pn,"Affordance Norms_Prolific",1,19,2023-07-25T17:00:56+00:00,27.834141016006,17,"updated stim.csv",Version17.csv,"Version 17","List 17",toastmaster,,509,5.125,2470,0.414376322,510,BOI,-,-,"Please name all of the ways you could use this object. Keep in mind that one object can have many uses. Separate your responses with a comma.",,y,27262,,,2780,25617,,,,"to give a speech, to make nice comments, to describe an event with a person",1
62c63362e7342ad8be294866,zcwihj76pn,"Affordance Norms_Prolific",1,20,2023-07-25T17:01:17+00:00,21.561814069748,17,"updated stim.csv",Version17.csv,"Version 17","List 17",mouthpiece,,485,5.739130435,848,0.55221895,486,BOI,-,-,"Please name all of the ways you could use this object. Keep in mind that one object can have many uses. Separate your responses with a comma.",,y,21324,,,2251,19460,,,,"to wear, to speak thru, to keep teeth aligned",1
62c63362e7342ad8be294866,zcwihj76pn,"Affordance Norms_Prolific",1,21,2023-07-25T17:01:36+00:00,18.90135884285,17,"updated stim.csv",Version17.csv,"Version 17","List 17",sex,,494,5.458333333,959,0.291234004,495,BOI,-,-,"Please name all of the ways you could use this object. Keep in mind that one object can have many uses. Separate your responses with a comma.",,y,18665,,,2875,15622,,,,"pleasure, to be intimate, to be close to another",1
62c63362e7342ad8be294866,zcwihj76pn,"Affordance Norms_Prolific",1,22,2023-07-25T17:01:56+00:00,19.664033174515,17,"updated stim.csv",Version17.csv,"Version 17","List 17",smuggler,,498,4.291666667,1484,0.291119552,499,BOI,-,-,"Please name all of the ways you could use this object. Keep in mind that one object can have many uses. Separate your responses with a comma.",,y,19430,,,1724,17479,,,,"to steal, to hide items, to transport",1
62c63362e7342ad8be294866,zcwihj76pn,"Affordance Norms_Prolific",1,23,2023-07-25T17:02:15+00:00,19.029413938522,17,"updated stim.csv",Version17.csv,"Version 17","List 17",turf,,510,4.55,2900,0.585234567,511,BOI,-,-,"Please name all of the ways you could use this object. Keep in mind that one object can have many uses. Separate your responses with a comma.",,y,18796,,,3762,15949,,,,"to play baseball, to play football, to play soccer",1
62c63362e7342ad8be294866,zcwihj76pn,"Affordance Norms_Prolific",1,24,2023-07-25T17:02:31+00:00,15.719022989273,17,"updated stim.csv",Version17.csv,"Version 17","List 17",riverboat,,489,4.913043478,393,0.357783512,490,BOI,-,-,"Please name all of the ways you could use this object. Keep in mind that one object can have many uses. Separate your responses with a comma.",,y,15476,,,2035,13839,,,,"to cruise the river, to gamble, to get fresh air",1
62c63362e7342ad8be294866,zcwihj76pn,"Affordance Norms_Prolific",1,25,2023-07-25T17:02:47+00:00,16.825046062469,17,"updated stim.csv",Version17.csv,"Version 17","List 17",spine,,499,5.782608696,1231,0.767395268,500,BOI,-,-,"Please name all of the ways you could use this object. Keep in mind that one object can have many uses. Separate your responses with a comma.",,y,16591,,,1852,14907,,,,"to support the body, to bind a book, to keep my head up",1
62c63362e7342ad8be294866,zcwihj76pn,"Affordance Norms_Prolific",1,26,2023-07-25T17:03:08+00:00,20.476938962936,17,"updated stim.csv",Version17.csv,"Version 17","List 17",stem,,500,4.375,1793,0.66125809,501,BOI,-,-,"Please name all of the ways you could use this object. Keep in mind that one object can have many uses. Separate your responses with a comma.",,y,20231,,,2176,18183,,,,"to support buds, to grow from a plant, to provide nutrients to a plant",1
62c63362e7342ad8be294866,zcwihj76pn,"Affordance Norms_Prolific",1,27,2023-07-25T17:03:18+00:00,10.309406995773,17,"updated stim.csv",Version17.csv,"Version 17","List 17",shopper,,495,4.64,339,0.446014369,496,BOI,-,-,"Please name all of the ways you could use this object. Keep in mind that one object can have many uses. Separate your responses with a comma.",,y,10077,,,1882,8564,,,,"to buy, consume, browse",1
62c63362e7342ad8be294866,zcwihj76pn,"Affordance Norms_Prolific",1,28,2023-07-25T17:03:32+00:00,13.616400957108,17,"updated stim.csv",Version17.csv,"Version 17","List 17",toast,,508,6.518518519,824,0.694713047,509,BOI,-,-,"Please name all of the ways you could use this object. Keep in mind that one object can have many uses. Separate your responses with a comma.",,y,12647,,,2586,11161,,,,"bread, eat, coaster",1
62c63362e7342ad8be294866,zcwihj76pn,"Affordance Norms_Prolific",1,29,2023-07-25T17:03:50+00:00,17.965687036514,17,"updated stim.csv",Version17.csv,"Version 17","List 17",stomp,,501,6,598,0.920044528,502,BOI,-,-,"Please name all of the ways you could use this object. Keep in mind that one object can have many uses. Separate your responses with a comma.",,y,17728,,,1948,15984,,,,"to put out something, to make noise, to create sound",1
62c63362e7342ad8be294866,zcwihj76pn,"Affordance Norms_Prolific",1,30,2023-07-25T17:04:09+00:00,18.876729011536,17,"updated stim.csv",Version17.csv,"Version 17","List 17",roosters,,490,4.434782609,1643,0.578632093,491,BOI,-,-,"Please name all of the ways you could use this object. Keep in mind that one object can have many uses. Separate your responses with a comma.",,y,18632,,,1254,15241,,,,"to wake up, to help make eggs, to protect the coupe",1
62c63362e7342ad8be294866,zcwihj76pn,"Affordance Norms_Prolific",1,31,2023-07-25T17:04:37+00:00,28.44396686554,17,"updated stim.csv",Version17.csv,"Version 17","List 17",thread,,507,4.84,2410,0.204229314,508,BOI,-,-,"Please name all of the ways you could use this object. Keep in mind that one object can have many uses. Separate your responses with a comma.",,y,28195,,,2333,26199,,,,"to sow, to mend, to tie two things together",1
62c63362e7342ad8be294866,zcwihj76pn,"Affordance Norms_Prolific",1,32,2023-07-25T17:04:52+00:00,15.177128076553,17,"updated stim.csv",Version17.csv,"Version 17","List 17",thimble,,505,5.375,18,0.348121216,506,BOI,-,-,"Please name all of the ways you could use this object. Keep in mind that one object can have many uses. Separate your responses with a comma.",,y,14942,,,1587,11768,,,,"to protect thumb, to play monopoly",1
62c63362e7342ad8be294866,zcwihj76pn,"Affordance Norms_Prolific",1,33,2023-07-25T17:05:09+00:00,16.648396015167,17,"updated stim.csv",Version17.csv,"Version 17","List 17",joint,,483,5,278,0.987732434,484,BOI,-,-,"Please name all of the ways you could use this object. Keep in mind that one object can have many uses. Separate your responses with a comma.",,y,16406,,,2068,14685,,,,"to move arms, to move legs, to get inflamed",1
62c63362e7342ad8be294866,zcwihj76pn,"Affordance Norms_Prolific",1,34,2023-07-25T17:05:27+00:00,17.772104024887,17,"updated stim.csv",Version17.csv,"Version 17","List 17",lizard,,484,6.217391304,2904,0.952578602,485,BOI,-,-,"Please name all of the ways you could use this object. Keep in mind that one object can have many uses. Separate your responses with a comma.",,y,17515,,,3981,15677,,,,"to eat, pet, terrarium",1
62c63362e7342ad8be294866,zcwihj76pn,"Affordance Norms_Prolific",1,35,2023-07-25T17:05:38+00:00,11.736670970917,17,"updated stim.csv",Version17.csv,"Version 17","List 17",strawberry,,502,4.956521739,1053,0.823962679,503,BOI,-,-,"Please name all of the ways you could use this object. Keep in mind that one object can have many uses. Separate your responses with a comma.",,y,11493,,,1440,9379,,,,"to eat, make cake, make cookies",1
62c63362e7342ad8be294866,zcwihj76pn,"Affordance Norms_Prolific",1,36,2023-07-25T17:05:56+00:00,17.706170082092,17,"updated stim.csv",Version17.csv,"Version 17","List 17",thorn,,506,5.15,978,0.460991121,507,BOI,-,-,"Please name all of the ways you could use this object. Keep in mind that one object can have many uses. Separate your responses with a comma.",,y,17477,,,2383,15793,,,,"pricked, to stab, to protect the plant",1
62c63362e7342ad8be294866,zcwihj76pn,"Affordance Norms_Prolific",1,37,2023-07-25T17:06:18+00:00,21.504693031311,17,"updated stim.csv",Version17.csv,"Version 17","List 17",homemaker,,481,5.875,1876,0.805264649,482,BOI,-,-,"Please name all of the ways you could use this object. Keep in mind that one object can have many uses. Separate your responses with a comma.",,y,21263,,,1535,19245,,,,"to do chores, to keep tidy, to be responsible for the house duties",1
62c63362e7342ad8be294866,zcwihj76pn,"Affordance Norms_Prolific",1,38,2023-07-25T17:06:30+00:00,12.693605899811,17,"updated stim.csv",Version17.csv,"Version 17","List 17",jawbreaker,,482,5,1181,0.795382639,483,BOI,-,-,"Please name all of the ways you could use this object. Keep in mind that one object can have many uses. Separate your responses with a comma.",,y,12445,,,2606,10832,,,,"for sugar, to eat, to suck on",1
62c63362e7342ad8be294866,zcwihj76pn,"Affordance Norms_Prolific",1,39,2023-07-25T17:06:47+00:00,16.918447971344,17,"updated stim.csv",Version17.csv,"Version 17","List 17",negligee,,486,6.083333333,1269,0.257158523,487,BOI,-,-,"Please name all of the ways you could use this object. Keep in mind that one object can have many uses. Separate your responses with a comma.",,y,16676,,,12907,13672,,,,unsure,1
62c63362e7342ad8be294866,zcwihj76pn,"Affordance Norms_Prolific",1,40,2023-07-25T17:07:03+00:00,15.441012144089,17,"updated stim.csv",Version17.csv,"Version 17","List 17",sister,,496,5.68,1414,0.836964408,497,BOI,-,-,"Please name all of the ways you could use this object. Keep in mind that one object can have many uses. Separate your responses with a comma.",,y,15201,,,5458,13672,,,,"sibling, nun, family",1
62c63362e7342ad8be294866,zcwihj76pn,"Affordance Norms_Prolific",1,41,2023-07-25T17:07:06+00:00,2.8828089237213,17,"updated stim.csv",Version17.csv,"Version 17","List 17",,,,,,,0,Instruct,,,"You will now be asked a few questions about your experience today.",,"Instruct 4",2646,,,-1,-1,,,,,1
