"Username","ID","ExperimentName","Session","Trial","Date","TimeDif","Condition.Number","Stimuli.File","Order.File","Condition.Description","Condition.Notes","Stimuli.Cue","Stimuli.Answer","Stimuli.Shuffle","Stimuli.Stimuli.Notes","Stimuli.Value","Stimuli.Rand","Procedure.Item","Procedure.Trial.Type","Procedure.Max.Time","Procedure.Min.Time","Procedure.Text","Procedure.Procedure.Notes","Procedure.Shuffle","Response.RT","Response.Response","Response.Accuracy","Response.RTfirst","Response.RTlast","Response.strictAcc","Response.lenientAcc","Response.focus","Response.JOL","Response.Focus"
"10059201","32ji7zekpn","Affordance Norms_USM",1,11,"2023-09-07T03:39:16+00:00",17.726639986038,4,"updated stim.csv","Version4.csv","Version 4","List 4","clothesline",NA,98,4.692307692,1551,0.8649799,99,"BOI","-","-","Please name all of the ways you could use this object. Keep in mind that one object can have many uses. Separate your responses with a comma.",NA,"y",17531,NA,NA,2765,16948,NA,NA,NA,"hanging, hitting obstecle",1
"10059201","32ji7zekpn","Affordance Norms_USM",1,12,"2023-09-07T03:39:37+00:00",21.352163076401,4,"updated stim.csv","Version4.csv","Version 4","List 4","basil",NA,95,5.28,761,0.138632098,96,"BOI","-","-","Please name all of the ways you could use this object. Keep in mind that one object can have many uses. Separate your responses with a comma.",NA,"y",21169,NA,NA,4505,20423,NA,NA,NA,"shredded, crushed, sprinkled",1
"10059201","32ji7zekpn","Affordance Norms_USM",1,13,"2023-09-07T03:39:57+00:00",20.072193861008,4,"updated stim.csv","Version4.csv","Version 4","List 4","deck",NA,99,5.708333333,855,0.1283264,100,"BOI","-","-","Please name all of the ways you could use this object. Keep in mind that one object can have many uses. Separate your responses with a comma.",NA,"y",19886,NA,NA,3920,13652,NA,NA,NA,"stood upon, hitting someone, ",1
"10059201","32ji7zekpn","Affordance Norms_USM",1,14,"2023-09-07T03:40:12+00:00",14.366643190384,4,"updated stim.csv","Version4.csv","Version 4","List 4","tablespoon",NA,91,5.653846154,1329,0.879948299,92,"BOI","-","-","Please name all of the ways you could use this object. Keep in mind that one object can have many uses. Separate your responses with a comma.",NA,"y",14172,NA,NA,2279,8983,NA,NA,NA,"measurement, ",1
"10059201","32ji7zekpn","Affordance Norms_USM",1,15,"2023-09-07T03:40:24+00:00",11.845716953278,4,"updated stim.csv","Version4.csv","Version 4","List 4","monument",NA,120,5.291666667,1177,0.650827048,121,"BOI","-","-","Please name all of the ways you could use this object. Keep in mind that one object can have many uses. Separate your responses with a comma.",NA,"y",11031,NA,NA,2331,10392,NA,NA,NA,"structure, achievment",1
"10059201","32ji7zekpn","Affordance Norms_USM",1,16,"2023-09-07T03:40:38+00:00",14.149060964584,4,"updated stim.csv","Version4.csv","Version 4","List 4","wristwatch",NA,94,5.259259259,2989,0.89961033,95,"BOI","-","-","Please name all of the ways you could use this object. Keep in mind that one object can have many uses. Separate your responses with a comma.",NA,"y",13966,NA,NA,1856,12537,NA,NA,NA,"telling time, styling choice, ",1
"10059201","32ji7zekpn","Affordance Norms_USM",1,17,"2023-09-07T03:40:53+00:00",15.197100877762,4,"updated stim.csv","Version4.csv","Version 4","List 4","periscope",NA,104,6.041666667,2033,0.323434189,105,"BOI","-","-","Please name all of the ways you could use this object. Keep in mind that one object can have many uses. Separate your responses with a comma.",NA,"y",15002,NA,NA,3135,14816,NA,NA,NA,"looking through, scouting, locating",1
"10059201","32ji7zekpn","Affordance Norms_USM",1,18,"2023-09-07T03:41:12+00:00",19.121445178986,4,"updated stim.csv","Version4.csv","Version 4","List 4","sweatshirt",NA,107,5.458333333,1423,0.486295703,108,"BOI","-","-","Please name all of the ways you could use this object. Keep in mind that one object can have many uses. Separate your responses with a comma.",NA,"y",18934,NA,NA,1718,18004,NA,NA,NA,"style, wearing, tied, tossed",1
"10059201","32ji7zekpn","Affordance Norms_USM",1,19,"2023-09-07T03:41:25+00:00",12.713501930237,4,"updated stim.csv","Version4.csv","Version 4","List 4","coachman",NA,116,4.409090909,2059,0.435620803,117,"BOI","-","-","Please name all of the ways you could use this object. Keep in mind that one object can have many uses. Separate your responses with a comma.",NA,"y",12524,NA,NA,7455,12124,NA,NA,NA,"yelling, coaching",1
"10059201","32ji7zekpn","Affordance Norms_USM",1,20,"2023-09-07T03:41:32+00:00",6.8970839977264,4,"updated stim.csv","Version4.csv","Version 4","List 4","handclap",NA,101,6.090909091,1836,0.787837108,102,"BOI","-","-","Please name all of the ways you could use this object. Keep in mind that one object can have many uses. Separate your responses with a comma.",NA,"y",6717,NA,NA,4449,6259,NA,NA,NA,"loud sound",1
"10059201","32ji7zekpn","Affordance Norms_USM",1,21,"2023-09-07T03:41:36+00:00",4.2303380966187,4,"updated stim.csv","Version4.csv","Version 4","List 4","sangria",NA,105,4.56,1292,0.109871009,106,"BOI","-","-","Please name all of the ways you could use this object. Keep in mind that one object can have many uses. Separate your responses with a comma.",NA,"y",4065,NA,NA,2199,3249,NA,NA,NA,"mixing",1
"10059201","32ji7zekpn","Affordance Norms_USM",1,22,"2023-09-07T03:41:46+00:00",9.7373948097229,4,"updated stim.csv","Version4.csv","Version 4","List 4","gumbo",NA,100,4.541666667,240,0.465962689,101,"BOI","-","-","Please name all of the ways you could use this object. Keep in mind that one object can have many uses. Separate your responses with a comma.",NA,"y",9558,NA,NA,1698,7606,NA,NA,NA,"eating, mixing, cooking, ",1
"10059201","32ji7zekpn","Affordance Norms_USM",1,23,"2023-09-07T03:41:55+00:00",8.9688911437988,4,"updated stim.csv","Version4.csv","Version 4","List 4","shank",NA,106,5.652173913,233,0.291050238,107,"BOI","-","-","Please name all of the ways you could use this object. Keep in mind that one object can have many uses. Separate your responses with a comma.",NA,"y",8783,NA,NA,1714,6735,NA,NA,NA,"stabbing, ",1
"10059201","32ji7zekpn","Affordance Norms_USM",1,24,"2023-09-07T03:42:18+00:00",23.186305999756,4,"updated stim.csv","Version4.csv","Version 4","List 4","defendant",NA,114,4.75,721,0.382136645,115,"BOI","-","-","Please name all of the ways you could use this object. Keep in mind that one object can have many uses. Separate your responses with a comma.",NA,"y",23006,NA,NA,9127,22068,NA,NA,NA,"on the defensive, in court, ",1
"10059201","32ji7zekpn","Affordance Norms_USM",1,25,"2023-09-07T03:42:26+00:00",8.564199924469,4,"updated stim.csv","Version4.csv","Version 4","List 4","nylon",NA,111,6.04,512,0.022831047,112,"BOI","-","-","Please name all of the ways you could use this object. Keep in mind that one object can have many uses. Separate your responses with a comma.",NA,"y",8380,NA,NA,2348,5275,NA,NA,NA,"clothing, ",1
"10059201","32ji7zekpn","Affordance Norms_USM",1,26,"2023-09-07T03:42:42+00:00",15.301834106445,4,"updated stim.csv","Version4.csv","Version 4","List 4","gentleman",NA,118,5.16,1750,0.027468228,119,"BOI","-","-","Please name all of the ways you could use this object. Keep in mind that one object can have many uses. Separate your responses with a comma.",NA,"y",15123,NA,NA,6959,14901,NA,NA,NA,"in control of himself",1
"10059201","32ji7zekpn","Affordance Norms_USM",1,27,"2023-09-07T03:42:53+00:00",11.501279830933,4,"updated stim.csv","Version4.csv","Version 4","List 4","jurist",NA,119,5.08,402,0.030067237,120,"BOI","-","-","Please name all of the ways you could use this object. Keep in mind that one object can have many uses. Separate your responses with a comma.",NA,"y",11318,NA,NA,3175,10991,NA,NA,NA,"weighing the life of someone on trial",1
"10059201","32ji7zekpn","Affordance Norms_USM",1,28,"2023-09-07T03:43:06+00:00",12.610048055649,4,"updated stim.csv","Version4.csv","Version 4","List 4","tee",NA,112,4.861185984,2182,0.615183644,113,"BOI","-","-","Please name all of the ways you could use this object. Keep in mind that one object can have many uses. Separate your responses with a comma.",NA,"y",12420,NA,NA,3100,12088,NA,NA,NA,"shirt, what a golf ball rests on",1
"10059201","32ji7zekpn","Affordance Norms_USM",1,29,"2023-09-07T03:43:15+00:00",9.2254559993744,4,"updated stim.csv","Version4.csv","Version 4","List 4","chestnut",NA,97,5.391304348,2944,0.762834183,98,"BOI","-","-","Please name all of the ways you could use this object. Keep in mind that one object can have many uses. Separate your responses with a comma.",NA,"y",9052,NA,NA,4303,8819,NA,NA,NA,"nut",1
"10059201","32ji7zekpn","Affordance Norms_USM",1,30,"2023-09-07T03:43:27+00:00",12.479170084,4,"updated stim.csv","Version4.csv","Version 4","List 4","vacuum",NA,110,5.458333333,986,0.340651121,111,"BOI","-","-","Please name all of the ways you could use this object. Keep in mind that one object can have many uses. Separate your responses with a comma.",NA,"y",12296,NA,NA,10526,12083,NA,NA,NA,"cleaning",1
"10059201","32ji7zekpn","Affordance Norms_USM",1,31,"2023-09-07T03:43:33+00:00",5.4711430072784,4,"updated stim.csv","Version4.csv","Version 4","List 4","harness",NA,102,6.47826087,244,0.637010138,103,"BOI","-","-","Please name all of the ways you could use this object. Keep in mind that one object can have many uses. Separate your responses with a comma.",NA,"y",5278,NA,NA,3815,4910,NA,NA,NA,"control",1
"10059201","32ji7zekpn","Affordance Norms_USM",1,32,"2023-09-07T03:43:43+00:00",10.237720012665,4,"updated stim.csv","Version4.csv","Version 4","List 4","chef",NA,96,5.545454545,2263,0.063596043,97,"BOI","-","-","Please name all of the ways you could use this object. Keep in mind that one object can have many uses. Separate your responses with a comma.",NA,"y",8395,NA,NA,1305,8272,NA,NA,NA,"cook, yell orders",1
"10059201","32ji7zekpn","Affordance Norms_USM",1,33,"2023-09-07T03:43:57+00:00",13.625859975815,4,"updated stim.csv","Version4.csv","Version 4","List 4","helicopter",NA,103,5.44,84,0.252057786,104,"BOI","-","-","Please name all of the ways you could use this object. Keep in mind that one object can have many uses. Separate your responses with a comma.",NA,"y",13450,NA,NA,2783,9983,NA,NA,NA,"fly, scout, carry, ",1
"10059201","32ji7zekpn","Affordance Norms_USM",1,34,"2023-09-07T03:44:03+00:00",6.1104378700256,4,"updated stim.csv","Version4.csv","Version 4","List 4","cattle",NA,113,5.2,2522,0.855940638,114,"BOI","-","-","Please name all of the ways you could use this object. Keep in mind that one object can have many uses. Separate your responses with a comma.",NA,"y",5926,NA,NA,3290,4260,NA,NA,NA,"cow, ",1
"10059201","32ji7zekpn","Affordance Norms_USM",1,35,"2023-09-07T03:44:07+00:00",3.8677790164948,4,"updated stim.csv","Version4.csv","Version 4","List 4","chow",NA,115,4.913043478,390,0.962937957,116,"BOI","-","-","Please name all of the ways you could use this object. Keep in mind that one object can have many uses. Separate your responses with a comma.",NA,"y",3705,NA,NA,1945,3337,NA,NA,NA,"food, ",1
"10059201","32ji7zekpn","Affordance Norms_USM",1,36,"2023-09-07T03:44:23+00:00",16.675935029984,4,"updated stim.csv","Version4.csv","Version 4","List 4","councilman",NA,117,4.5,1006,0.638440057,118,"BOI","-","-","Please name all of the ways you could use this object. Keep in mind that one object can have many uses. Separate your responses with a comma.",NA,"y",16497,NA,NA,9668,16076,NA,NA,NA,"leader, in a commitee",1
"10059201","32ji7zekpn","Affordance Norms_USM",1,37,"2023-09-07T03:44:28+00:00",4.1485350131989,4,"updated stim.csv","Version4.csv","Version 4","List 4","teahouse",NA,108,5.833333333,2439,0.34499283,109,"BOI","-","-","Please name all of the ways you could use this object. Keep in mind that one object can have many uses. Separate your responses with a comma.",NA,"y",3966,NA,NA,2580,3739,NA,NA,NA,"barbie",1
"10059201","32ji7zekpn","Affordance Norms_USM",1,38,"2023-09-07T03:44:36+00:00",8.073431968689,4,"updated stim.csv","Version4.csv","Version 4","List 4","tourist",NA,109,5.75,2555,0.06185654,110,"BOI","-","-","Please name all of the ways you could use this object. Keep in mind that one object can have many uses. Separate your responses with a comma.",NA,"y",7891,NA,NA,2981,7664,NA,NA,NA,"foreginer",1
"10059201","32ji7zekpn","Affordance Norms_USM",1,39,"2023-09-07T03:44:47+00:00",10.954198122025,4,"updated stim.csv","Version4.csv","Version 4","List 4","wrist",NA,93,5.208333333,490,0.93770869,94,"BOI","-","-","Please name all of the ways you could use this object. Keep in mind that one object can have many uses. Separate your responses with a comma.",NA,"y",10774,NA,NA,2861,10247,NA,NA,NA,"anatomical location",1
"10059201","32ji7zekpn","Affordance Norms_USM",1,40,"2023-09-07T03:44:59+00:00",12.76146197319,4,"updated stim.csv","Version4.csv","Version 4","List 4","technician",NA,92,4.625,2834,0.128717005,93,"BOI","-","-","Please name all of the ways you could use this object. Keep in mind that one object can have many uses. Separate your responses with a comma.",NA,"y",12579,NA,NA,9981,11582,NA,NA,NA,"support",1
"10141580","6j9yhs5t03","Affordance Norms_USM",1,11,"2023-08-31T19:49:47+00:00",138.94624114037,12,"updated stim.csv","Version12.csv","Version 12","List 12","cheek",NA,335,4.28,750,0.234031096,336,"BOI","-","-","Please name all of the ways you could use this object. Keep in mind that one object can have many uses. Separate your responses with a comma.",NA,"y",138661,NA,NA,1570,21770,NA,NA,NA,"lay on, slap, kiss, punch, bite",1
"10141580","6j9yhs5t03","Affordance Norms_USM",1,12,"2023-08-31T19:50:10+00:00",22.983783960342,12,"updated stim.csv","Version12.csv","Version 12","List 12","forefinger",NA,349,5.875,2714,0.989271668,350,"BOI","-","-","Please name all of the ways you could use this object. Keep in mind that one object can have many uses. Separate your responses with a comma.",NA,"y",22833,NA,NA,10538,21201,NA,NA,NA,"flip off, poke",1
"10141580","6j9yhs5t03","Affordance Norms_USM",1,13,"2023-08-31T19:50:39+00:00",28.621295928955,12,"updated stim.csv","Version12.csv","Version 12","List 12","companion",NA,342,5.523809524,1628,0.940541237,343,"BOI","-","-","Please name all of the ways you could use this object. Keep in mind that one object can have many uses. Separate your responses with a comma.",NA,"y",28030,NA,NA,1479,27580,NA,NA,NA,"marriage, friend, neighbor, best friend, adventures, group work, missions, etc",1
"10141580","6j9yhs5t03","Affordance Norms_USM",1,14,"2023-08-31T19:50:43+00:00",4.2250909805298,12,"updated stim.csv","Version12.csv","Version 12","List 12","keg",NA,359,4.916666667,584,0.98810054,360,"BOI","-","-","Please name all of the ways you could use this object. Keep in mind that one object can have many uses. Separate your responses with a comma.",NA,"y",4076,NA,NA,2804,3893,NA,NA,NA,"I don't know",1
"10141580","6j9yhs5t03","Affordance Norms_USM",1,15,"2023-08-31T19:51:10+00:00",27.072168111801,12,"updated stim.csv","Version12.csv","Version 12","List 12","grandfather",NA,352,5.346153846,1586,0.963710737,353,"BOI","-","-","Please name all of the ways you could use this object. Keep in mind that one object can have many uses. Separate your responses with a comma.",NA,"y",26494,NA,NA,5157,26280,NA,NA,NA,"stories, nice conversations, historical information, love from a family member",1
"10141580","6j9yhs5t03","Affordance Norms_USM",1,16,"2023-08-31T19:51:42+00:00",31.809726953506,12,"updated stim.csv","Version12.csv","Version 12","List 12","choreographer",NA,338,5.821428571,1741,0.573731001,339,"BOI","-","-","Please name all of the ways you could use this object. Keep in mind that one object can have many uses. Separate your responses with a comma.",NA,"y",31686,NA,NA,4769,30976,NA,NA,NA,"could choreograph dance, marching movements, camera movements, specific routines",1
"10141580","6j9yhs5t03","Affordance Norms_USM",1,17,"2023-08-31T19:51:59+00:00",16.82380604744,12,"updated stim.csv","Version12.csv","Version 12","List 12","junk",NA,358,5.041666667,482,0.737715679,359,"BOI","-","-","Please name all of the ways you could use this object. Keep in mind that one object can have many uses. Separate your responses with a comma.",NA,"y",16584,NA,NA,5494,13033,NA,NA,NA,"significant value, trash, recycle, ",1
"10141580","6j9yhs5t03","Affordance Norms_USM",1,18,"2023-08-31T19:52:38+00:00",38.836594820023,12,"updated stim.csv","Version12.csv","Version 12","List 12","earmuff",NA,348,4.962962963,567,0.361293617,349,"BOI","-","-","Please name all of the ways you could use this object. Keep in mind that one object can have many uses. Separate your responses with a comma.",NA,"y",38501,NA,NA,3806,34298,NA,NA,NA,"keep ears warm, keep neck warm",1
"10141580","6j9yhs5t03","Affordance Norms_USM",1,19,"2023-08-31T19:52:53+00:00",15.463294029236,12,"updated stim.csv","Version12.csv","Version 12","List 12","gravestone",NA,353,4.64,156,0.909538497,354,"BOI","-","-","Please name all of the ways you could use this object. Keep in mind that one object can have many uses. Separate your responses with a comma.",NA,"y",15297,NA,NA,5842,12129,NA,NA,NA,"funeral service",1
"10141580","6j9yhs5t03","Affordance Norms_USM",1,20,"2023-08-31T19:53:15+00:00",21.754423141479,12,"updated stim.csv","Version12.csv","Version 12","List 12","garment",NA,350,4.782608696,2378,0.890528918,351,"BOI","-","-","Please name all of the ways you could use this object. Keep in mind that one object can have many uses. Separate your responses with a comma.",NA,"y",21331,NA,NA,3339,21102,NA,NA,NA,"daily use of wear, wash it, make it dirty, bite it, tear it, destroy its fabrics",1
"10141580","6j9yhs5t03","Affordance Norms_USM",1,21,"2023-08-31T19:53:38+00:00",22.797649860382,12,"updated stim.csv","Version12.csv","Version 12","List 12","cantaloupe",NA,333,5.583333333,493,0.717474064,334,"BOI","-","-","Please name all of the ways you could use this object. Keep in mind that one object can have many uses. Separate your responses with a comma.",NA,"y",22489,NA,NA,1929,22361,NA,NA,NA,"consume, throw, step on, throw up, hug, smash, etc",1
"10141580","6j9yhs5t03","Affordance Norms_USM",1,22,"2023-08-31T19:59:52+00:00",374.47794413567,12,"updated stim.csv","Version12.csv","Version 12","List 12","chronograph",NA,339,4.703703704,1714,0.382484128,340,"BOI","-","-","Please name all of the ways you could use this object. Keep in mind that one object can have many uses. Separate your responses with a comma.",NA,"y",374151,NA,NA,27194,34510,NA,NA,NA,"timing a marathon, a simple job or run",0.92
"10141580","6j9yhs5t03","Affordance Norms_USM",1,23,"2023-08-31T20:00:09+00:00",17.023620843887,12,"updated stim.csv","Version12.csv","Version 12","List 12","brow",NA,331,4.791666667,384,0.176677262,332,"BOI","-","-","Please name all of the ways you could use this object. Keep in mind that one object can have many uses. Separate your responses with a comma.",NA,"y",16837,NA,NA,3580,15387,NA,NA,NA,"tweeze the brow, raise it, kiss it, punch it",1
"10141580","6j9yhs5t03","Affordance Norms_USM",1,24,"2023-08-31T20:00:45+00:00",35.962714195251,12,"updated stim.csv","Version12.csv","Version 12","List 12","gin",NA,351,5.958333333,865,0.537684107,352,"BOI","-","-","Please name all of the ways you could use this object. Keep in mind that one object can have many uses. Separate your responses with a comma.",NA,"y",35694,NA,NA,10980,34028,NA,NA,NA,"consume, toss, hit someone with, throw up, bathe in it, cook with it",0.974
"10141580","6j9yhs5t03","Affordance Norms_USM",1,25,"2023-08-31T20:01:20+00:00",34.695553779602,12,"updated stim.csv","Version12.csv","Version 12","List 12","gumdrop",NA,355,5.260869565,1974,0.365615857,356,"BOI","-","-","Please name all of the ways you could use this object. Keep in mind that one object can have many uses. Separate your responses with a comma.",NA,"y",34297,NA,NA,3681,34119,NA,NA,NA,"chew it, swallow it, stick it to the ceiling or wall or floor or desk, throw it at someone, step on it, burn it, freeze it",1
"10141580","6j9yhs5t03","Affordance Norms_USM",1,26,"2023-08-31T20:01:52+00:00",32.049521207809,12,"updated stim.csv","Version12.csv","Version 12","List 12","lamp",NA,360,5.041666667,2365,0.714334081,361,"BOI","-","-","Please name all of the ways you could use this object. Keep in mind that one object can have many uses. Separate your responses with a comma.",NA,"y",31729,NA,NA,2282,27725,NA,NA,NA,"turn it on, turn it off, smash it, bite it, sit on it, step on it, clean it",1
"10141580","6j9yhs5t03","Affordance Norms_USM",1,27,"2023-08-31T20:02:28+00:00",35.62982583046,12,"updated stim.csv","Version12.csv","Version 12","List 12","guillotine",NA,354,4.583333333,1325,0.78313885,355,"BOI","-","-","Please name all of the ways you could use this object. Keep in mind that one object can have many uses. Separate your responses with a comma.",NA,"y",35193,NA,NA,3950,34665,NA,NA,NA,"killing people, cutting fruit or vegetables, cut wood",1
"10141580","6j9yhs5t03","Affordance Norms_USM",1,28,"2023-08-31T20:02:57+00:00",29.391584157944,12,"updated stim.csv","Version12.csv","Version 12","List 12","chip",NA,336,4.541666667,808,0.423772685,337,"BOI","-","-","Please name all of the ways you could use this object. Keep in mind that one object can have many uses. Separate your responses with a comma.",NA,"y",28983,NA,NA,2329,28760,NA,NA,NA,"eat, smash, throw, punch, kiss it, smell it, swallow it whole, step on it, talk to it",1
"10141580","6j9yhs5t03","Affordance Norms_USM",1,29,"2023-08-31T20:03:47+00:00",49.670876979828,12,"updated stim.csv","Version12.csv","Version 12","List 12","carp",NA,334,5.626180837,2568,0.200879423,335,"BOI","-","-","Please name all of the ways you could use this object. Keep in mind that one object can have many uses. Separate your responses with a comma.",NA,"y",46385,NA,NA,12998,46217,NA,NA,NA,"feed cats, eat it, skin it, keep it as a pet, pet it, kick it, swim with it, fling it around on a fishpole, sit on it, run with it, squeeze it",0.96
"10141580","6j9yhs5t03","Affordance Norms_USM",1,30,"2023-08-31T20:04:06+00:00",19.862781047821,12,"updated stim.csv","Version12.csv","Version 12","List 12","cigar",NA,340,4.36,1582,0.724230565,341,"BOI","-","-","Please name all of the ways you could use this object. Keep in mind that one object can have many uses. Separate your responses with a comma.",NA,"y",19415,NA,NA,1338,16258,NA,NA,NA,"use it, burn people with it, bite it, throw it, ",1
"10141580","6j9yhs5t03","Affordance Norms_USM",1,31,"2023-08-31T20:04:26+00:00",19.866458892822,12,"updated stim.csv","Version12.csv","Version 12","List 12","classmate",NA,341,5.086956522,1291,0.796894413,342,"BOI","-","-","Please name all of the ways you could use this object. Keep in mind that one object can have many uses. Separate your responses with a comma.",NA,"y",19517,NA,NA,5352,18380,NA,NA,NA,"talk to, do group work with, study with, befriend",1
"10141580","6j9yhs5t03","Affordance Norms_USM",1,32,"2023-08-31T20:04:55+00:00",28.358793973923,12,"updated stim.csv","Version12.csv","Version 12","List 12","buck",NA,332,4.76,2202,0.999381206,333,"BOI","-","-","Please name all of the ways you could use this object. Keep in mind that one object can have many uses. Separate your responses with a comma.",NA,"y",28059,NA,NA,877,27666,NA,NA,NA,"eat it, pet it, keep it as a pet, punch it, hunt for it, ride it, talk to it, hang it on the wall",1
"10141580","6j9yhs5t03","Affordance Norms_USM",1,33,"2023-08-31T20:09:55+00:00",300.66534900665,12,"updated stim.csv","Version12.csv","Version 12","List 12","hairstylist",NA,356,4.392857143,2360,0.644561162,357,"BOI","-","-","Please name all of the ways you could use this object. Keep in mind that one object can have many uses. Separate your responses with a comma.",NA,"y",300340,NA,NA,1647,19873,NA,NA,NA,"make hairstyles",1
"10141580","6j9yhs5t03","Affordance Norms_USM",1,34,"2023-08-31T20:14:08+00:00",252.50609207153,12,"updated stim.csv","Version12.csv","Version 12","List 12","donkey",NA,345,5.32,193,0.704074452,346,"BOI","-","-","Please name all of the ways you could use this object. Keep in mind that one object can have many uses. Separate your responses with a comma.",NA,"y",252077,NA,NA,4829,251889,NA,NA,NA,"pet it, smack it, eat it, ride it, make it a pet",1
"10141580","6j9yhs5t03","Affordance Norms_USM",1,35,"2023-08-31T20:14:38+00:00",30.512227058411,12,"updated stim.csv","Version12.csv","Version 12","List 12","doughnut",NA,347,5.76,620,0.735373904,348,"BOI","-","-","Please name all of the ways you could use this object. Keep in mind that one object can have many uses. Separate your responses with a comma.",NA,"y",30247,NA,NA,1825,27264,NA,NA,NA,"eat it, throw it, stick your finger through the hole, sit on it, share it with someone",1
"10141580","6j9yhs5t03","Affordance Norms_USM",1,36,"2023-08-31T20:15:39+00:00",60.841743946075,12,"updated stim.csv","Version12.csv","Version 12","List 12","doornail",NA,346,4.32,1064,0.562088746,347,"BOI","-","-","Please name all of the ways you could use this object. Keep in mind that one object can have many uses. Separate your responses with a comma.",NA,"y",60397,NA,NA,27992,60082,NA,NA,NA,"nail it in the door, use it to stab someone, use it for other wooden matieral",1
"10141580","6j9yhs5t03","Affordance Norms_USM",1,37,"2023-08-31T20:16:24+00:00",45.162474870682,12,"updated stim.csv","Version12.csv","Version 12","List 12","chocolate",NA,337,4.37037037,164,0.261790448,338,"BOI","-","-","Please name all of the ways you could use this object. Keep in mind that one object can have many uses. Separate your responses with a comma.",NA,"y",44910,NA,NA,1695,44721,NA,NA,NA,"eat it, step on it, sit on it, throw it, share it with someone, use it in a recipe, use it for a shake or a drink",1
"10163652","q9smc23duf","Affordance Norms_USM",1,11,"2023-09-05T20:12:20+00:00",10.899389982224,17,"updated stim.csv","Version17.csv","Version 17","List 17","joint",NA,483,5,278,0.987732434,484,"BOI","-","-","Please name all of the ways you could use this object. Keep in mind that one object can have many uses. Separate your responses with a comma.",NA,"y",10808,NA,NA,3166,9735,NA,NA,NA,"smoke, bend, connection",1
"10163652","q9smc23duf","Affordance Norms_USM",1,12,"2023-09-05T20:12:35+00:00",15.565324068069,17,"updated stim.csv","Version17.csv","Version 17","List 17","toast",NA,508,6.518518519,824,0.694713047,509,"BOI","-","-","Please name all of the ways you could use this object. Keep in mind that one object can have many uses. Separate your responses with a comma.",NA,"y",15455,NA,NA,3701,11799,NA,NA,NA,"eat, make sandwiches with",1
"10163652","q9smc23duf","Affordance Norms_USM",1,13,"2023-09-05T20:12:46+00:00",10.759994029999,17,"updated stim.csv","Version17.csv","Version 17","List 17","scarf",NA,492,6.4,1428,0.954803536,493,"BOI","-","-","Please name all of the ways you could use this object. Keep in mind that one object can have many uses. Separate your responses with a comma.",NA,"y",10430,NA,NA,3942,10119,NA,NA,NA,"fashion, warmth",1
"10163652","q9smc23duf","Affordance Norms_USM",1,14,"2023-09-05T20:13:08+00:00",22.183588027954,17,"updated stim.csv","Version17.csv","Version 17","List 17","stomp",NA,501,6,598,0.920044528,502,"BOI","-","-","Please name all of the ways you could use this object. Keep in mind that one object can have many uses. Separate your responses with a comma.",NA,"y",21894,NA,NA,10017,20675,NA,NA,NA,"make noise, create attention",1
"10163652","q9smc23duf","Affordance Norms_USM",1,15,"2023-09-05T20:13:24+00:00",15.451505899429,17,"updated stim.csv","Version17.csv","Version 17","List 17","stem",NA,500,4.375,1793,0.66125809,501,"BOI","-","-","Please name all of the ways you could use this object. Keep in mind that one object can have many uses. Separate your responses with a comma.",NA,"y",15283,NA,NA,6429,14234,NA,NA,NA,"transport water and nutrients",1
"10163652","q9smc23duf","Affordance Norms_USM",1,16,"2023-09-05T20:13:38+00:00",14.301384925842,17,"updated stim.csv","Version17.csv","Version 17","List 17","thorn",NA,506,5.15,978,0.460991121,507,"BOI","-","-","Please name all of the ways you could use this object. Keep in mind that one object can have many uses. Separate your responses with a comma.",NA,"y",14085,NA,NA,1765,13059,NA,NA,NA,"prick finger, deter predators",1
"10163652","q9smc23duf","Affordance Norms_USM",1,17,"2023-09-05T20:13:52+00:00",14.015401124954,17,"updated stim.csv","Version17.csv","Version 17","List 17","shopper",NA,495,4.64,339,0.446014369,496,"BOI","-","-","Please name all of the ways you could use this object. Keep in mind that one object can have many uses. Separate your responses with a comma.",NA,"y",13815,NA,NA,7865,12648,NA,NA,NA,"spend money",1
"10163652","q9smc23duf","Affordance Norms_USM",1,18,"2023-09-05T20:14:06+00:00",14.284800052643,17,"updated stim.csv","Version17.csv","Version 17","List 17","roosters",NA,490,4.434782609,1643,0.578632093,491,"BOI","-","-","Please name all of the ways you could use this object. Keep in mind that one object can have many uses. Separate your responses with a comma.",NA,"y",14058,NA,NA,2252,12525,NA,NA,NA,"wake up call, fertilize eggs",1
"10163652","q9smc23duf","Affordance Norms_USM",1,19,"2023-09-05T20:14:22+00:00",15.587696790695,17,"updated stim.csv","Version17.csv","Version 17","List 17","spine",NA,499,5.782608696,1231,0.767395268,500,"BOI","-","-","Please name all of the ways you could use this object. Keep in mind that one object can have many uses. Separate your responses with a comma.",NA,"y",15479,NA,NA,2452,12056,NA,NA,NA,"movement, structure",1
"10163652","q9smc23duf","Affordance Norms_USM",1,20,"2023-09-05T20:14:26+00:00",4.1454441547394,17,"updated stim.csv","Version17.csv","Version 17","List 17","thread",NA,507,4.84,2410,0.204229314,508,"BOI","-","-","Please name all of the ways you could use this object. Keep in mind that one object can have many uses. Separate your responses with a comma.",NA,"y",3906,NA,NA,3218,3639,NA,NA,NA,"sew",1
"10163652","q9smc23duf","Affordance Norms_USM",1,21,"2023-09-05T20:14:33+00:00",7.0278689861298,17,"updated stim.csv","Version17.csv","Version 17","List 17","negligee",NA,486,6.083333333,1269,0.257158523,487,"BOI","-","-","Please name all of the ways you could use this object. Keep in mind that one object can have many uses. Separate your responses with a comma.",NA,"y",6730,NA,NA,4935,6284,NA,NA,NA,"n/a",1
"10163652","q9smc23duf","Affordance Norms_USM",1,22,"2023-09-05T20:14:36+00:00",2.6111469268799,17,"updated stim.csv","Version17.csv","Version 17","List 17","sandbox",NA,491,5.64,2206,0.418822922,492,"BOI","-","-","Please name all of the ways you could use this object. Keep in mind that one object can have many uses. Separate your responses with a comma.",NA,"y",2326,NA,NA,1444,1987,NA,NA,NA,"play",1
"10163652","q9smc23duf","Affordance Norms_USM",1,23,"2023-09-05T20:14:43+00:00",7.0737600326538,17,"updated stim.csv","Version17.csv","Version 17","List 17","thimble",NA,505,5.375,18,0.348121216,506,"BOI","-","-","Please name all of the ways you could use this object. Keep in mind that one object can have many uses. Separate your responses with a comma.",NA,"y",6819,NA,NA,2715,5504,NA,NA,NA,"protect finger",1
"10163652","q9smc23duf","Affordance Norms_USM",1,24,"2023-09-05T20:14:58+00:00",15.339859008789,17,"updated stim.csv","Version17.csv","Version 17","List 17","sex",NA,494,5.458333333,959,0.291234004,495,"BOI","-","-","Please name all of the ways you could use this object. Keep in mind that one object can have many uses. Separate your responses with a comma.",NA,"y",15144,NA,NA,9605,14773,NA,NA,NA,"pleasure, reproduction",1
"10163652","q9smc23duf","Affordance Norms_USM",1,25,"2023-09-05T20:15:11+00:00",12.758584976196,17,"updated stim.csv","Version17.csv","Version 17","List 17","homemaker",NA,481,5.875,1876,0.805264649,482,"BOI","-","-","Please name all of the ways you could use this object. Keep in mind that one object can have many uses. Separate your responses with a comma.",NA,"y",12626,NA,NA,11286,11941,NA,NA,NA,"clean",1
"10163652","q9smc23duf","Affordance Norms_USM",1,26,"2023-09-05T20:15:19+00:00",8.3312969207764,17,"updated stim.csv","Version17.csv","Version 17","List 17","mouthpiece",NA,485,5.739130435,848,0.55221895,486,"BOI","-","-","Please name all of the ways you could use this object. Keep in mind that one object can have many uses. Separate your responses with a comma.",NA,"y",7311,NA,NA,2226,6901,NA,NA,NA,"protect mouth in sports",1
"10163652","q9smc23duf","Affordance Norms_USM",1,27,"2023-09-05T20:15:25+00:00",5.5226941108704,17,"updated stim.csv","Version17.csv","Version 17","List 17","riverboat",NA,489,4.913043478,393,0.357783512,490,"BOI","-","-","Please name all of the ways you could use this object. Keep in mind that one object can have many uses. Separate your responses with a comma.",NA,"y",5286,NA,NA,2965,5010,NA,NA,NA,"transport",1
"10163652","q9smc23duf","Affordance Norms_USM",1,28,"2023-09-05T20:15:43+00:00",17.891372919083,17,"updated stim.csv","Version17.csv","Version 17","List 17","teacher",NA,504,5.083333333,1662,0.960305963,505,"BOI","-","-","Please name all of the ways you could use this object. Keep in mind that one object can have many uses. Separate your responses with a comma.",NA,"y",17796,NA,NA,5111,17335,NA,NA,NA,"interact with kids, explore new bound",1
"10163652","q9smc23duf","Affordance Norms_USM",1,29,"2023-09-05T20:15:47+00:00",4.8573961257935,17,"updated stim.csv","Version17.csv","Version 17","List 17","toastmaster",NA,509,5.125,2470,0.414376322,510,"BOI","-","-","Please name all of the ways you could use this object. Keep in mind that one object can have many uses. Separate your responses with a comma.",NA,"y",4602,NA,NA,2087,4189,NA,NA,NA,"make toast",1
"10163652","q9smc23duf","Affordance Norms_USM",1,30,"2023-09-05T20:15:59+00:00",11.444718837738,17,"updated stim.csv","Version17.csv","Version 17","List 17","teabag",NA,503,4.56,2894,0.169280994,504,"BOI","-","-","Please name all of the ways you could use this object. Keep in mind that one object can have many uses. Separate your responses with a comma.",NA,"y",11304,NA,NA,1669,8780,NA,NA,NA,"make tea, teabaths",1
"10163652","q9smc23duf","Affordance Norms_USM",1,31,"2023-09-05T20:16:02+00:00",3.1464610099792,17,"updated stim.csv","Version17.csv","Version 17","List 17","rhubarb",NA,488,4.703703704,1106,0.844195125,489,"BOI","-","-","Please name all of the ways you could use this object. Keep in mind that one object can have many uses. Separate your responses with a comma.",NA,"y",3048,NA,NA,2286,2743,NA,NA,NA,"eat",1
"10163652","q9smc23duf","Affordance Norms_USM",1,32,"2023-09-05T20:16:15+00:00",13.244250059128,17,"updated stim.csv","Version17.csv","Version 17","List 17","publication",NA,487,5.041666667,1092,0.483566212,488,"BOI","-","-","Please name all of the ways you could use this object. Keep in mind that one object can have many uses. Separate your responses with a comma.",NA,"y",13007,NA,NA,9520,12675,NA,NA,NA,"share information",1
"10163652","q9smc23duf","Affordance Norms_USM",1,33,"2023-09-05T20:16:19+00:00",3.5275819301605,17,"updated stim.csv","Version17.csv","Version 17","List 17","jawbreaker",NA,482,5,1181,0.795382639,483,"BOI","-","-","Please name all of the ways you could use this object. Keep in mind that one object can have many uses. Separate your responses with a comma.",NA,"y",3333,NA,NA,2683,3084,NA,NA,NA,"eat",1
"10163652","q9smc23duf","Affordance Norms_USM",1,34,"2023-09-05T20:16:29+00:00",10.142477035522,17,"updated stim.csv","Version17.csv","Version 17","List 17","smuggler",NA,498,4.291666667,1484,0.291119552,499,"BOI","-","-","Please name all of the ways you could use this object. Keep in mind that one object can have many uses. Separate your responses with a comma.",NA,"y",10032,NA,NA,3487,9767,NA,NA,NA,"transport things illegally",1
"10163652","q9smc23duf","Affordance Norms_USM",1,35,"2023-09-05T20:16:32+00:00",2.7541081905365,17,"updated stim.csv","Version17.csv","Version 17","List 17","schoolhouse",NA,493,6.333333333,1370,0.521573786,494,"BOI","-","-","Please name all of the ways you could use this object. Keep in mind that one object can have many uses. Separate your responses with a comma.",NA,"y",2647,NA,NA,1743,2486,NA,NA,NA,"learn",1
"10163652","q9smc23duf","Affordance Norms_USM",1,36,"2023-09-05T20:16:38+00:00",5.8124959468842,17,"updated stim.csv","Version17.csv","Version 17","List 17","strawberry",NA,502,4.956521739,1053,0.823962679,503,"BOI","-","-","Please name all of the ways you could use this object. Keep in mind that one object can have many uses. Separate your responses with a comma.",NA,"y",5707,NA,NA,1256,5583,NA,NA,NA,"eat, smell good",1
"10163652","q9smc23duf","Affordance Norms_USM",1,37,"2023-09-05T20:16:45+00:00",7.5119369029999,17,"updated stim.csv","Version17.csv","Version 17","List 17","lizard",NA,484,6.217391304,2904,0.952578602,485,"BOI","-","-","Please name all of the ways you could use this object. Keep in mind that one object can have many uses. Separate your responses with a comma.",NA,"y",7354,NA,NA,3889,7099,NA,NA,NA,"watch play",1
"10163652","q9smc23duf","Affordance Norms_USM",1,38,"2023-09-05T20:16:49+00:00",4.1890780925751,17,"updated stim.csv","Version17.csv","Version 17","List 17","sister",NA,496,5.68,1414,0.836964408,497,"BOI","-","-","Please name all of the ways you could use this object. Keep in mind that one object can have many uses. Separate your responses with a comma.",NA,"y",3988,NA,NA,1831,3768,NA,NA,NA,"friend",1
"10163652","q9smc23duf","Affordance Norms_USM",1,39,"2023-09-05T20:16:56+00:00",6.3425478935242,17,"updated stim.csv","Version17.csv","Version 17","List 17","sleeve",NA,497,4.52,494,0.136839401,498,"BOI","-","-","Please name all of the ways you could use this object. Keep in mind that one object can have many uses. Separate your responses with a comma.",NA,"y",6261,NA,NA,3023,5985,NA,NA,NA,"warmth",1
"10163652","q9smc23duf","Affordance Norms_USM",1,40,"2023-09-05T20:17:03+00:00",7.0333981513977,17,"updated stim.csv","Version17.csv","Version 17","List 17","turf",NA,510,4.55,2900,0.585234567,511,"BOI","-","-","Please name all of the ways you could use this object. Keep in mind that one object can have many uses. Separate your responses with a comma.",NA,"y",6942,NA,NA,1605,5269,NA,NA,NA,"play soccer/sports",1
"470603","q4xpeih28t","Affordance Norms_USM",1,11,"2023-09-13T18:31:22+00:00",32.474318981171,17,"updated stim.csv","Version17.csv","Version 17","List 17","publication",NA,487,5.041666667,1092,0.483566212,488,"BOI","-","-","Please name all of the ways you could use this object. Keep in mind that one object can have many uses. Separate your responses with a comma.",NA,"y",32022,NA,NA,2727,28677,NA,NA,NA,"reading, writing, exposure, learning, journaling",1
"470603","q4xpeih28t","Affordance Norms_USM",1,12,"2023-09-13T18:32:19+00:00",57.039052963257,17,"updated stim.csv","Version17.csv","Version 17","List 17","mouthpiece",NA,485,5.739130435,848,0.55221895,486,"BOI","-","-","Please name all of the ways you could use this object. Keep in mind that one object can have many uses. Separate your responses with a comma.",NA,"y",56504,NA,NA,3140,55398,NA,NA,NA,"instrument, talking, guard, teeth, cover, sleep",1
"470603","q4xpeih28t","Affordance Norms_USM",1,13,"2023-09-13T18:32:45+00:00",25.602304935455,17,"updated stim.csv","Version17.csv","Version 17","List 17","shopper",NA,495,4.64,339,0.446014369,496,"BOI","-","-","Please name all of the ways you could use this object. Keep in mind that one object can have many uses. Separate your responses with a comma.",NA,"y",25145,NA,NA,3229,24192,NA,NA,NA,"groceries, items, delivery, need, clothes",1
"470603","q4xpeih28t","Affordance Norms_USM",1,14,"2023-09-13T18:33:27+00:00",42.874710083008,17,"updated stim.csv","Version17.csv","Version 17","List 17","homemaker",NA,481,5.875,1876,0.805264649,482,"BOI","-","-","Please name all of the ways you could use this object. Keep in mind that one object can have many uses. Separate your responses with a comma.",NA,"y",42370,NA,NA,1773,40788,NA,NA,NA,"wife, husband, cleaning, teaching, child rearing, friend",1
"470603","q4xpeih28t","Affordance Norms_USM",1,15,"2023-09-13T18:33:54+00:00",26.217855930328,17,"updated stim.csv","Version17.csv","Version 17","List 17","sister",NA,496,5.68,1414,0.836964408,497,"BOI","-","-","Please name all of the ways you could use this object. Keep in mind that one object can have many uses. Separate your responses with a comma.",NA,"y",25509,NA,NA,5896,20359,NA,NA,NA,"friend, confidant",1
"470603","q4xpeih28t","Affordance Norms_USM",1,16,"2023-09-13T18:34:48+00:00",54.630842208862,17,"updated stim.csv","Version17.csv","Version 17","List 17","schoolhouse",NA,493,6.333333333,1370,0.521573786,494,"BOI","-","-","Please name all of the ways you could use this object. Keep in mind that one object can have many uses. Separate your responses with a comma.",NA,"y",54062,NA,NA,1444,53588,NA,NA,NA,"learning, teaching, helping, books, work, scheduling, shelter, playing, singing, writing, drawing",1
"470603","q4xpeih28t","Affordance Norms_USM",1,17,"2023-09-13T18:35:26+00:00",37.99475479126,17,"updated stim.csv","Version17.csv","Version 17","List 17","teacher",NA,504,5.083333333,1662,0.960305963,505,"BOI","-","-","Please name all of the ways you could use this object. Keep in mind that one object can have many uses. Separate your responses with a comma.",NA,"y",37351,NA,NA,5934,37193,NA,NA,NA,"learning, working, grading, ideas, friend, employee",1
"470603","q4xpeih28t","Affordance Norms_USM",1,18,"2023-09-13T18:35:45+00:00",18.22000002861,17,"updated stim.csv","Version17.csv","Version 17","List 17","stomp",NA,501,6,598,0.920044528,502,"BOI","-","-","Please name all of the ways you could use this object. Keep in mind that one object can have many uses. Separate your responses with a comma.",NA,"y",17464,NA,NA,3005,13158,NA,NA,NA,"foot, noise, distraction, hurt",1
"470603","q4xpeih28t","Affordance Norms_USM",1,19,"2023-09-13T18:36:15+00:00",30.10679602623,17,"updated stim.csv","Version17.csv","Version 17","List 17","sleeve",NA,497,4.52,494,0.136839401,498,"BOI","-","-","Please name all of the ways you could use this object. Keep in mind that one object can have many uses. Separate your responses with a comma.",NA,"y",29681,NA,NA,1582,29381,NA,NA,NA,"wiping, chewing, warmth, covering, hiding",1
"470603","q4xpeih28t","Affordance Norms_USM",1,20,"2023-09-13T18:37:02+00:00",47.387568950653,17,"updated stim.csv","Version17.csv","Version 17","List 17","joint",NA,483,5,278,0.987732434,484,"BOI","-","-","Please name all of the ways you could use this object. Keep in mind that one object can have many uses. Separate your responses with a comma.",NA,"y",46963,NA,NA,3598,35704,NA,NA,NA,"pipe, faucets, water, body, weed, building",1
"470603","q4xpeih28t","Affordance Norms_USM",1,21,"2023-09-13T18:37:21+00:00",19.359578132629,17,"updated stim.csv","Version17.csv","Version 17","List 17","scarf",NA,492,6.4,1428,0.954803536,493,"BOI","-","-","Please name all of the ways you could use this object. Keep in mind that one object can have many uses. Separate your responses with a comma.",NA,"y",18836,NA,NA,2958,18453,NA,NA,NA,"hiding, warmth, fashion, blanket, decoration",1
"470603","q4xpeih28t","Affordance Norms_USM",1,22,"2023-09-13T18:37:38+00:00",16.406689882278,17,"updated stim.csv","Version17.csv","Version 17","List 17","toastmaster",NA,509,5.125,2470,0.414376322,510,"BOI","-","-","Please name all of the ways you could use this object. Keep in mind that one object can have many uses. Separate your responses with a comma.",NA,"y",15875,NA,NA,2717,15632,NA,NA,NA,"food, bread, pizza, heating, toasting",1
"470603","q4xpeih28t","Affordance Norms_USM",1,23,"2023-09-13T18:38:05+00:00",27.073683023453,17,"updated stim.csv","Version17.csv","Version 17","List 17","smuggler",NA,498,4.291666667,1484,0.291119552,499,"BOI","-","-","Please name all of the ways you could use this object. Keep in mind that one object can have many uses. Separate your responses with a comma.",NA,"y",26599,NA,NA,1577,26020,NA,NA,NA,"drugs, money, items, crossing, items, work, hiding",1
"470603","q4xpeih28t","Affordance Norms_USM",1,24,"2023-09-13T18:38:30+00:00",25.489173173904,17,"updated stim.csv","Version17.csv","Version 17","List 17","strawberry",NA,502,4.956521739,1053,0.823962679,503,"BOI","-","-","Please name all of the ways you could use this object. Keep in mind that one object can have many uses. Separate your responses with a comma.",NA,"y",24872,NA,NA,1667,24668,NA,NA,NA,"jam, eat, plants, nutrients, vitamins, animals, coloring, drawing",1
"470603","q4xpeih28t","Affordance Norms_USM",1,25,"2023-09-13T18:39:03+00:00",32.902906894684,17,"updated stim.csv","Version17.csv","Version 17","List 17","turf",NA,510,4.55,2900,0.585234567,511,"BOI","-","-","Please name all of the ways you could use this object. Keep in mind that one object can have many uses. Separate your responses with a comma.",NA,"y",32462,NA,NA,1898,26118,NA,NA,NA,"baseball, football, soccer, grass, yard, replacing, looks, ease",1
"470603","q4xpeih28t","Affordance Norms_USM",1,26,"2023-09-13T18:39:23+00:00",19.37797999382,17,"updated stim.csv","Version17.csv","Version 17","List 17","jawbreaker",NA,482,5,1181,0.795382639,483,"BOI","-","-","Please name all of the ways you could use this object. Keep in mind that one object can have many uses. Separate your responses with a comma.",NA,"y",18627,NA,NA,1933,18341,NA,NA,NA,"candy, food, sugar, kids, choking",1
"470603","q4xpeih28t","Affordance Norms_USM",1,27,"2023-09-13T18:40:46+00:00",83.586716890335,17,"updated stim.csv","Version17.csv","Version 17","List 17","stem",NA,500,4.375,1793,0.66125809,501,"BOI","-","-","Please name all of the ways you could use this object. Keep in mind that one object can have many uses. Separate your responses with a comma.",NA,"y",82975,NA,NA,2542,82456,NA,NA,NA,"plant, tree, rooting, propagate, learning, work, entertainment, kids ",1
"470603","q4xpeih28t","Affordance Norms_USM",1,28,"2023-09-13T18:41:30+00:00",44.04811000824,17,"updated stim.csv","Version17.csv","Version 17","List 17","sex",NA,494,5.458333333,959,0.291234004,495,"BOI","-","-","Please name all of the ways you could use this object. Keep in mind that one object can have many uses. Separate your responses with a comma.",NA,"y",43495,NA,NA,1694,42096,NA,NA,NA,"fun, children, pleasure, pain, domination, fear, dependence, sexuality, orgasm",1
"470603","q4xpeih28t","Affordance Norms_USM",1,29,"2023-09-13T18:42:19+00:00",48.369858026505,17,"updated stim.csv","Version17.csv","Version 17","List 17","teabag",NA,503,4.56,2894,0.169280994,504,"BOI","-","-","Please name all of the ways you could use this object. Keep in mind that one object can have many uses. Separate your responses with a comma.",NA,"y",47927,NA,NA,5509,46785,NA,NA,NA,"drink, water, caffeine, dehydration, liquid, illness, dry mouth",1
"470603","q4xpeih28t","Affordance Norms_USM",1,30,"2023-09-13T18:43:07+00:00",48.724342107773,17,"updated stim.csv","Version17.csv","Version 17","List 17","toast",NA,508,6.518518519,824,0.694713047,509,"BOI","-","-","Please name all of the ways you could use this object. Keep in mind that one object can have many uses. Separate your responses with a comma.",NA,"y",48140,NA,NA,1921,47479,NA,NA,NA,"food, illness, eating, nutrients, calories, butter, sandwich, lunch, dinner, breakfast, spaghetti, cheese ",1
"470603","q4xpeih28t","Affordance Norms_USM",1,31,"2023-09-13T18:43:52+00:00",45.095385074615,17,"updated stim.csv","Version17.csv","Version 17","List 17","riverboat",NA,489,4.913043478,393,0.357783512,490,"BOI","-","-","Please name all of the ways you could use this object. Keep in mind that one object can have many uses. Separate your responses with a comma.",NA,"y",44330,NA,NA,1413,36894,NA,NA,NA,"fun, living, casino, cruise, tour, fishing, swimming, travel, destination, rescue,",1
"470603","q4xpeih28t","Affordance Norms_USM",1,32,"2023-09-13T18:44:15+00:00",22.612993001938,17,"updated stim.csv","Version17.csv","Version 17","List 17","rhubarb",NA,488,4.703703704,1106,0.844195125,489,"BOI","-","-","Please name all of the ways you could use this object. Keep in mind that one object can have many uses. Separate your responses with a comma.",NA,"y",22037,NA,NA,4238,20013,NA,NA,NA,"food, painting, coloring, remedies",1
"470603","q4xpeih28t","Affordance Norms_USM",1,33,"2023-09-13T18:44:52+00:00",36.708604812622,17,"updated stim.csv","Version17.csv","Version 17","List 17","thimble",NA,505,5.375,18,0.348121216,506,"BOI","-","-","Please name all of the ways you could use this object. Keep in mind that one object can have many uses. Separate your responses with a comma.",NA,"y",36292,NA,NA,1845,32615,NA,NA,NA,"needle, string, finger, protection, decoration, collection, antique",1
"470603","q4xpeih28t","Affordance Norms_USM",1,34,"2023-09-13T18:45:38+00:00",45.875852108002,17,"updated stim.csv","Version17.csv","Version 17","List 17","spine",NA,499,5.782608696,1231,0.767395268,500,"BOI","-","-","Please name all of the ways you could use this object. Keep in mind that one object can have many uses. Separate your responses with a comma.",NA,"y",45445,NA,NA,3926,42990,NA,NA,NA,"stand, move, balance, book, bones, protection",1
"470603","q4xpeih28t","Affordance Norms_USM",1,35,"2023-09-13T18:46:36+00:00",58.761398077011,17,"updated stim.csv","Version17.csv","Version 17","List 17","thread",NA,507,4.84,2410,0.204229314,508,"BOI","-","-","Please name all of the ways you could use this object. Keep in mind that one object can have many uses. Separate your responses with a comma.",NA,"y",58204,NA,NA,5816,57345,NA,NA,NA,"sewing, clothes, decoration, fixing, funiture, tying, lasso, bunching, gathering, material",1
"470603","q4xpeih28t","Affordance Norms_USM",1,36,"2023-09-13T18:47:14+00:00",38.037122964859,17,"updated stim.csv","Version17.csv","Version 17","List 17","roosters",NA,490,4.434782609,1643,0.578632093,491,"BOI","-","-","Please name all of the ways you could use this object. Keep in mind that one object can have many uses. Separate your responses with a comma.",NA,"y",37451,NA,NA,1635,35525,NA,NA,NA,"chicks, fertilization, protection, noise, friend, money",1
"470603","q4xpeih28t","Affordance Norms_USM",1,37,"2023-09-13T18:48:10+00:00",55.71829199791,17,"updated stim.csv","Version17.csv","Version 17","List 17","negligee",NA,486,6.083333333,1269,0.257158523,487,"BOI","-","-","Please name all of the ways you could use this object. Keep in mind that one object can have many uses. Separate your responses with a comma.",NA,"y",55160,NA,NA,1408,54583,NA,NA,NA,"sex, cover, body, seduction, teasing, wedding, day, night, temptation, play, domination",1
"470603","q4xpeih28t","Affordance Norms_USM",1,38,"2023-09-13T18:48:51+00:00",40.362048864365,17,"updated stim.csv","Version17.csv","Version 17","List 17","thorn",NA,506,5.15,978,0.460991121,507,"BOI","-","-","Please name all of the ways you could use this object. Keep in mind that one object can have many uses. Separate your responses with a comma.",NA,"y",39886,NA,NA,1967,39143,NA,NA,NA,"pike, weeds, decoration, pain, protection, safety, cover, hiding, fruit, plant",1
"470603","q4xpeih28t","Affordance Norms_USM",1,39,"2023-09-13T18:49:11+00:00",20.242133140564,17,"updated stim.csv","Version17.csv","Version 17","List 17","lizard",NA,484,6.217391304,2904,0.952578602,485,"BOI","-","-","Please name all of the ways you could use this object. Keep in mind that one object can have many uses. Separate your responses with a comma.",NA,"y",19739,NA,NA,3649,14193,NA,NA,NA,"bugs, pet, protection, friend",1
"470603","q4xpeih28t","Affordance Norms_USM",1,40,"2023-09-13T18:49:51+00:00",40.220039844513,17,"updated stim.csv","Version17.csv","Version 17","List 17","sandbox",NA,491,5.64,2206,0.418822922,492,"BOI","-","-","Please name all of the ways you could use this object. Keep in mind that one object can have many uses. Separate your responses with a comma.",NA,"y",39256,NA,NA,6453,35155,NA,NA,NA,"play, animals, sand, soil, chickens, storage, kids, yard, play",0.929
"annakate_pettis1","6648on6k2e","Affordance Norms_USM",1,11,"2023-09-08T18:15:53+00:00",22.331283092499,6,"updated stim.csv","Version6.csv","Version 6","List 6","mathematician",NA,166,4.347826087,2433,0.405301502,167,"BOI","-","-","Please name all of the ways you could use this object. Keep in mind that one object can have many uses. Separate your responses with a comma.",NA,"y",22091,NA,NA,8466,15947,NA,NA,NA,"tutor, study, teacher",1
"annakate_pettis1","6648on6k2e","Affordance Norms_USM",1,12,"2023-09-08T18:16:10+00:00",17.187443971634,6,"updated stim.csv","Version6.csv","Version 6","List 6","swimsuit",NA,173,5.260869565,2615,0.993494851,174,"BOI","-","-","Please name all of the ways you could use this object. Keep in mind that one object can have many uses. Separate your responses with a comma.",NA,"y",16978,NA,NA,1274,15883,NA,NA,NA,"worn, bought, cover up, swim",1
"annakate_pettis1","6648on6k2e","Affordance Norms_USM",1,13,"2023-09-08T18:16:32+00:00",21.352553844452,6,"updated stim.csv","Version6.csv","Version 6","List 6","alcohol",NA,179,5.523809524,205,0.969656849,180,"BOI","-","-","Please name all of the ways you could use this object. Keep in mind that one object can have many uses. Separate your responses with a comma.",NA,"y",21141,NA,NA,1358,13676,NA,NA,NA,"drink, cook, rub, disinfect",1
"annakate_pettis1","6648on6k2e","Affordance Norms_USM",1,14,"2023-09-08T18:16:57+00:00",25.405574083328,6,"updated stim.csv","Version6.csv","Version 6","List 6","gun",NA,159,5.666666667,1878,0.217047994,160,"BOI","-","-","Please name all of the ways you could use this object. Keep in mind that one object can have many uses. Separate your responses with a comma.",NA,"y",25183,NA,NA,1871,23932,NA,NA,NA,"shoot, clean, collect, protect, hunt, practice",1
"annakate_pettis1","6648on6k2e","Affordance Norms_USM",1,15,"2023-09-08T18:17:14+00:00",16.710556030273,6,"updated stim.csv","Version6.csv","Version 6","List 6","crate",NA,155,5.458333333,2703,0.677843929,156,"BOI","-","-","Please name all of the ways you could use this object. Keep in mind that one object can have many uses. Separate your responses with a comma.",NA,"y",16507,NA,NA,3096,15782,NA,NA,NA,"hold, keep, collect, dog bed",1
"annakate_pettis1","6648on6k2e","Affordance Norms_USM",1,16,"2023-09-08T18:17:28+00:00",14.079855918884,6,"updated stim.csv","Version6.csv","Version 6","List 6","cornflakes",NA,154,4.684210526,538,0.574977468,155,"BOI","-","-","Please name all of the ways you could use this object. Keep in mind that one object can have many uses. Separate your responses with a comma.",NA,"y",13871,NA,NA,1334,12982,NA,NA,NA,"eat, cook, bake, store",1
"annakate_pettis1","6648on6k2e","Affordance Norms_USM",1,17,"2023-09-08T18:17:46+00:00",18.323666095734,6,"updated stim.csv","Version6.csv","Version 6","List 6","clipper",NA,152,5.708333333,2286,0.354129595,153,"BOI","-","-","Please name all of the ways you could use this object. Keep in mind that one object can have many uses. Separate your responses with a comma.",NA,"y",18103,NA,NA,2971,17224,NA,NA,NA,"trim nails, trim bushes, trim hair",1
"annakate_pettis1","6648on6k2e","Affordance Norms_USM",1,18,"2023-09-08T18:18:02+00:00",15.668606996536,6,"updated stim.csv","Version6.csv","Version 6","List 6","marigold",NA,165,5.041666667,1031,0.824671402,166,"BOI","-","-","Please name all of the ways you could use this object. Keep in mind that one object can have many uses. Separate your responses with a comma.",NA,"y",15456,NA,NA,2784,14563,NA,NA,NA,"smell, grow, collect, look at",1
"annakate_pettis1","6648on6k2e","Affordance Norms_USM",1,19,"2023-09-08T18:18:20+00:00",17.9845058918,6,"updated stim.csv","Version6.csv","Version 6","List 6","calender",NA,151,5.666666667,209,0.894670762,152,"BOI","-","-","Please name all of the ways you could use this object. Keep in mind that one object can have many uses. Separate your responses with a comma.",NA,"y",17764,NA,NA,2723,15261,NA,NA,NA,"reminder, events, bills",1
"annakate_pettis1","6648on6k2e","Affordance Norms_USM",1,20,"2023-09-08T18:18:36+00:00",16.165955066681,6,"updated stim.csv","Version6.csv","Version 6","List 6","tangerine",NA,174,5.857142857,2931,0.820907003,175,"BOI","-","-","Please name all of the ways you could use this object. Keep in mind that one object can have many uses. Separate your responses with a comma.",NA,"y",15944,NA,NA,1505,14946,NA,NA,NA,"eat, grow, plant, cook, bake, store",1
"annakate_pettis1","6648on6k2e","Affordance Norms_USM",1,21,"2023-09-08T18:18:46+00:00",9.9248878955841,6,"updated stim.csv","Version6.csv","Version 6","List 6","handwork",NA,160,4.291666667,779,0.522113996,161,"BOI","-","-","Please name all of the ways you could use this object. Keep in mind that one object can have many uses. Separate your responses with a comma.",NA,"y",9725,NA,NA,3984,5483,NA,NA,NA,"model",1
"annakate_pettis1","6648on6k2e","Affordance Norms_USM",1,22,"2023-09-08T18:18:58+00:00",12.103305101395,6,"updated stim.csv","Version6.csv","Version 6","List 6","toga",NA,175,5.652173913,2259,0.959918952,176,"BOI","-","-","Please name all of the ways you could use this object. Keep in mind that one object can have many uses. Separate your responses with a comma.",NA,"y",11897,NA,NA,1536,10893,NA,NA,NA,"wear, hang, party",1
"annakate_pettis1","6648on6k2e","Affordance Norms_USM",1,23,"2023-09-08T18:19:22+00:00",23.477099895477,6,"updated stim.csv","Version6.csv","Version 6","List 6","neckerchief",NA,167,5.125,237,0.416830365,168,"BOI","-","-","Please name all of the ways you could use this object. Keep in mind that one object can have many uses. Separate your responses with a comma.",NA,"y",23259,NA,NA,5635,21180,NA,NA,NA,"sweat, napkin, wipe, tear, wear",1
"annakate_pettis1","6648on6k2e","Affordance Norms_USM",1,24,"2023-09-08T18:19:38+00:00",16.065685033798,6,"updated stim.csv","Version6.csv","Version 6","List 6","concrete",NA,153,5.291666667,944,0.967521962,154,"BOI","-","-","Please name all of the ways you could use this object. Keep in mind that one object can have many uses. Separate your responses with a comma.",NA,"y",15858,NA,NA,1939,14998,NA,NA,NA,"drive, park, walk, foundation ",1
"annakate_pettis1","6648on6k2e","Affordance Norms_USM",1,25,"2023-09-08T18:20:06+00:00",28.270264148712,6,"updated stim.csv","Version6.csv","Version 6","List 6","licence",NA,162,5.038461538,1731,0.310058292,163,"BOI","-","-","Please name all of the ways you could use this object. Keep in mind that one object can have many uses. Separate your responses with a comma.",NA,"y",28043,NA,NA,7524,27174,NA,NA,NA,"drive, ID, carry, hold, show, keep",1
"annakate_pettis1","6648on6k2e","Affordance Norms_USM",1,26,"2023-09-08T18:20:30+00:00",24.151888847351,6,"updated stim.csv","Version6.csv","Version 6","List 6","peony",NA,170,4.37037037,720,0.826771226,171,"BOI","-","-","Please name all of the ways you could use this object. Keep in mind that one object can have many uses. Separate your responses with a comma.",NA,"y",23876,NA,NA,1747,22737,NA,NA,NA,"smell, grow, show, bouquet, plant, harvest",1
"annakate_pettis1","6648on6k2e","Affordance Norms_USM",1,27,"2023-09-08T18:21:04+00:00",33.357712030411,6,"updated stim.csv","Version6.csv","Version 6","List 6","river",NA,171,4.896551724,220,0.733213397,172,"BOI","-","-","Please name all of the ways you could use this object. Keep in mind that one object can have many uses. Separate your responses with a comma.",NA,"y",33137,NA,NA,1925,32054,NA,NA,NA,"swim, fish, raft, kayak, canoe, camp, boat, float, drink",1
"annakate_pettis1","6648on6k2e","Affordance Norms_USM",1,28,"2023-09-08T18:21:20+00:00",16.014187097549,6,"updated stim.csv","Version6.csv","Version 6","List 6","fertilizer",NA,158,5.913043478,527,0.987997305,159,"BOI","-","-","Please name all of the ways you could use this object. Keep in mind that one object can have many uses. Separate your responses with a comma.",NA,"y",15760,NA,NA,2745,14222,NA,NA,NA,"fertilize, harvest, plant, grow",1
"annakate_pettis1","6648on6k2e","Affordance Norms_USM",1,29,"2023-09-08T18:21:40+00:00",20.23713183403,6,"updated stim.csv","Version6.csv","Version 6","List 6","padding",NA,169,5.08,2892,0.374452273,170,"BOI","-","-","Please name all of the ways you could use this object. Keep in mind that one object can have many uses. Separate your responses with a comma.",NA,"y",19999,NA,NA,1933,19042,NA,NA,NA,"protect, barrier, sleep, cushion",1
"annakate_pettis1","6648on6k2e","Affordance Norms_USM",1,30,"2023-09-08T18:21:54+00:00",14.574945211411,6,"updated stim.csv","Version6.csv","Version 6","List 6","airman",NA,177,4.347826087,421,0.150190136,178,"BOI","-","-","Please name all of the ways you could use this object. Keep in mind that one object can have many uses. Separate your responses with a comma.",NA,"y",14350,NA,NA,1597,9022,NA,NA,NA,"fly, protect, service",1
"annakate_pettis1","6648on6k2e","Affordance Norms_USM",1,31,"2023-09-08T18:22:24+00:00",29.506534814835,6,"updated stim.csv","Version6.csv","Version 6","List 6","airplane",NA,178,5.32,1104,0.498173145,179,"BOI","-","-","Please name all of the ways you could use this object. Keep in mind that one object can have many uses. Separate your responses with a comma.",NA,"y",29284,NA,NA,1382,28444,NA,NA,NA,"fly, travel, land, carry, feed, sleep, read",1
"annakate_pettis1","6648on6k2e","Affordance Norms_USM",1,32,"2023-09-08T18:22:39+00:00",14.973515033722,6,"updated stim.csv","Version6.csv","Version 6","List 6","vermicelli",NA,176,4.739130435,127,0.967270436,177,"BOI","-","-","Please name all of the ways you could use this object. Keep in mind that one object can have many uses. Separate your responses with a comma.",NA,"y",13484,NA,NA,10837,12381,NA,NA,NA,"eat?",1
"annakate_pettis1","6648on6k2e","Affordance Norms_USM",1,33,"2023-09-08T18:22:53+00:00",14.213977098465,6,"updated stim.csv","Version6.csv","Version 6","List 6","mantelpiece",NA,164,5.333333333,2692,0.82890071,165,"BOI","-","-","Please name all of the ways you could use this object. Keep in mind that one object can have many uses. Separate your responses with a comma.",NA,"y",13934,NA,NA,2272,13076,NA,NA,NA,"decorate, hang, show",1
"annakate_pettis1","6648on6k2e","Affordance Norms_USM",1,34,"2023-09-08T18:23:10+00:00",17.011548995972,6,"updated stim.csv","Version6.csv","Version 6","List 6","dustbin",NA,157,4.7,1959,0.18002119,158,"BOI","-","-","Please name all of the ways you could use this object. Keep in mind that one object can have many uses. Separate your responses with a comma.",NA,"y",16786,NA,NA,3319,15211,NA,NA,NA,"trash, collect, hold, store",1
"annakate_pettis1","6648on6k2e","Affordance Norms_USM",1,35,"2023-09-08T18:23:22+00:00",12.319427013397,6,"updated stim.csv","Version6.csv","Version 6","List 6","cymbals",NA,156,5.214285714,168,0.590683649,157,"BOI","-","-","Please name all of the ways you could use this object. Keep in mind that one object can have many uses. Separate your responses with a comma.",NA,"y",12083,NA,NA,1698,11179,NA,NA,NA,"play, march, hold, crash",1
"annakate_pettis1","6648on6k2e","Affordance Norms_USM",1,36,"2023-09-08T18:23:45+00:00",22.785521030426,6,"updated stim.csv","Version6.csv","Version 6","List 6","log",NA,163,6.28,2836,0.923120289,164,"BOI","-","-","Please name all of the ways you could use this object. Keep in mind that one object can have many uses. Separate your responses with a comma.",NA,"y",22547,NA,NA,8047,21697,NA,NA,NA,"sit, burn, build, roll",1
"annakate_pettis1","6648on6k2e","Affordance Norms_USM",1,37,"2023-09-08T18:24:12+00:00",27.139961957932,6,"updated stim.csv","Version6.csv","Version 6","List 6","supermarket",NA,172,4.75,1749,0.715344787,173,"BOI","-","-","Please name all of the ways you could use this object. Keep in mind that one object can have many uses. Separate your responses with a comma.",NA,"y",26908,NA,NA,1412,25831,NA,NA,NA,"buy, store, food, cart, walk, check out",1
"annakate_pettis1","6648on6k2e","Affordance Norms_USM",1,38,"2023-09-08T18:24:32+00:00",19.714800834656,6,"updated stim.csv","Version6.csv","Version 6","List 6","package",NA,168,4.464285714,1256,0.861077807,169,"BOI","-","-","Please name all of the ways you could use this object. Keep in mind that one object can have many uses. Separate your responses with a comma.",NA,"y",19495,NA,NA,1896,18369,NA,NA,NA,"deliver, send, transport, travel, hold, contain",1
"annakate_pettis1","6648on6k2e","Affordance Norms_USM",1,39,"2023-09-08T18:24:52+00:00",20.090481996536,6,"updated stim.csv","Version6.csv","Version 6","List 6","armor",NA,180,5.555555556,2717,0.437108817,181,"BOI","-","-","Please name all of the ways you could use this object. Keep in mind that one object can have many uses. Separate your responses with a comma.",NA,"y",19864,NA,NA,2618,18002,NA,NA,NA,"protect, shield, wear, have",1
"annakate_pettis1","6648on6k2e","Affordance Norms_USM",1,40,"2023-09-08T18:25:02+00:00",9.7171511650085,6,"updated stim.csv","Version6.csv","Version 6","List 6","leaflet",NA,161,5.12,1945,0.324749543,162,"BOI","-","-","Please name all of the ways you could use this object. Keep in mind that one object can have many uses. Separate your responses with a comma.",NA,"y",9460,NA,NA,5906,8262,NA,NA,NA,"hold, divide",1
"w10066664_ah","tf5hh9zc4z","Affordance Norms_USM",1,11,"2023-09-13T19:00:18+00:00",12.726670026779,18,"updated stim.csv","Version18.csv","Version 18","List 18","wrestler",NA,516,5.555555556,930,0.887767133,517,"BOI","-","-","Please name all of the ways you could use this object. Keep in mind that one object can have many uses. Separate your responses with a comma.",NA,"y",12503,NA,NA,9695,10883,NA,NA,NA,"fight",1
"w10066664_ah","tf5hh9zc4z","Affordance Norms_USM",1,12,"2023-09-13T19:00:27+00:00",9.5479378700256,18,"updated stim.csv","Version18.csv","Version 18","List 18","chain",NA,534,5.260869565,1492,0.304149864,535,"BOI","-","-","Please name all of the ways you could use this object. Keep in mind that one object can have many uses. Separate your responses with a comma.",NA,"y",9310,NA,NA,2556,7886,NA,NA,NA,"wear,break",1
"w10066664_ah","tf5hh9zc4z","Affordance Norms_USM",1,13,"2023-09-13T19:00:47+00:00",19.763534069061,18,"updated stim.csv","Version18.csv","Version 18","List 18","blanket",NA,524,5.038461538,1838,0.013887713,525,"BOI","-","-","Please name all of the ways you could use this object. Keep in mind that one object can have many uses. Separate your responses with a comma.",NA,"y",19529,NA,NA,3125,16458,NA,NA,NA,"cover,keep warm",1
"w10066664_ah","tf5hh9zc4z","Affordance Norms_USM",1,14,"2023-09-13T19:01:03+00:00",16.364348888397,18,"updated stim.csv","Version18.csv","Version 18","List 18","blowgun",NA,526,5.461538462,2827,0.065017905,527,"BOI","-","-","Please name all of the ways you could use this object. Keep in mind that one object can have many uses. Separate your responses with a comma.",NA,"y",16143,NA,NA,10298,14384,NA,NA,NA,"make ballons",1
"w10066664_ah","tf5hh9zc4z","Affordance Norms_USM",1,15,"2023-09-13T19:01:17+00:00",13.269061088562,18,"updated stim.csv","Version18.csv","Version 18","List 18","bamboo",NA,519,5.136363636,314,0.791797957,520,"BOI","-","-","Please name all of the ways you could use this object. Keep in mind that one object can have many uses. Separate your responses with a comma.",NA,"y",13042,NA,NA,5064,9290,NA,NA,NA,"eat, break",1
"w10066664_ah","tf5hh9zc4z","Affordance Norms_USM",1,16,"2023-09-13T19:01:27+00:00",10.052860021591,18,"updated stim.csv","Version18.csv","Version 18","List 18","automotive",NA,518,6,699,0.195516583,519,"BOI","-","-","Please name all of the ways you could use this object. Keep in mind that one object can have many uses. Separate your responses with a comma.",NA,"y",9325,NA,NA,5929,7767,NA,NA,NA,"drive",1
"w10066664_ah","tf5hh9zc4z","Affordance Norms_USM",1,17,"2023-09-13T19:01:37+00:00",10.695730924606,18,"updated stim.csv","Version18.csv","Version 18","List 18","camisole",NA,532,4.583333333,13,0.866092268,533,"BOI","-","-","Please name all of the ways you could use this object. Keep in mind that one object can have many uses. Separate your responses with a comma.",NA,"y",10403,NA,NA,6394,9107,NA,NA,NA,"use",1
"w10066664_ah","tf5hh9zc4z","Affordance Norms_USM",1,18,"2023-09-13T19:01:47+00:00",9.4314661026001,18,"updated stim.csv","Version18.csv","Version 18","List 18","vegetation",NA,512,4.260869565,525,0.027839326,513,"BOI","-","-","Please name all of the ways you could use this object. Keep in mind that one object can have many uses. Separate your responses with a comma.",NA,"y",9102,NA,NA,3822,7604,NA,NA,NA,"eat,grow",1
"w10066664_ah","tf5hh9zc4z","Affordance Norms_USM",1,19,"2023-09-13T19:01:56+00:00",9.1051888465881,18,"updated stim.csv","Version18.csv","Version 18","List 18","bib",NA,522,5.592592593,803,0.012255055,523,"BOI","-","-","Please name all of the ways you could use this object. Keep in mind that one object can have many uses. Separate your responses with a comma.",NA,"y",8837,NA,NA,2689,7690,NA,NA,NA,"wipe baby face",1
"w10066664_ah","tf5hh9zc4z","Affordance Norms_USM",1,20,"2023-09-13T19:02:07+00:00",10.662865161896,18,"updated stim.csv","Version18.csv","Version 18","List 18","villager",NA,513,6.12,60,0.088357206,514,"BOI","-","-","Please name all of the ways you could use this object. Keep in mind that one object can have many uses. Separate your responses with a comma.",NA,"y",10451,NA,NA,3865,8185,NA,NA,NA,"create a family",1
"w10066664_ah","tf5hh9zc4z","Affordance Norms_USM",1,21,"2023-09-13T19:02:17+00:00",10.740437984467,18,"updated stim.csv","Version18.csv","Version 18","List 18","bread",NA,528,4.76,2684,0.433773044,529,"BOI","-","-","Please name all of the ways you could use this object. Keep in mind that one object can have many uses. Separate your responses with a comma.",NA,"y",10502,NA,NA,1597,8808,NA,NA,NA,"eat,make,break",1
"w10066664_ah","tf5hh9zc4z","Affordance Norms_USM",1,22,"2023-09-13T19:02:33+00:00",15.76819896698,18,"updated stim.csv","Version18.csv","Version 18","List 18","blender",NA,525,4.5,2396,0.276241995,526,"BOI","-","-","Please name all of the ways you could use this object. Keep in mind that one object can have many uses. Separate your responses with a comma.",NA,"y",15543,NA,NA,4049,13427,NA,NA,NA,"make food,make juices",1
"w10066664_ah","tf5hh9zc4z","Affordance Norms_USM",1,23,"2023-09-13T19:02:56+00:00",22.902780056,18,"updated stim.csv","Version18.csv","Version 18","List 18","colleague",NA,535,4.8,197,0.341449251,536,"BOI","-","-","Please name all of the ways you could use this object. Keep in mind that one object can have many uses. Separate your responses with a comma.",NA,"y",22579,NA,NA,4055,21154,NA,NA,NA,"friend,teamwork,collaborate",1
"w10066664_ah","tf5hh9zc4z","Affordance Norms_USM",1,24,"2023-09-13T19:03:20+00:00",23.584357023239,18,"updated stim.csv","Version18.csv","Version 18","List 18","wheelhouse",NA,514,5.259259259,1824,0.409410216,515,"BOI","-","-","Please name all of the ways you could use this object. Keep in mind that one object can have many uses. Separate your responses with a comma.",NA,"y",22551,NA,NA,20018,21303,NA,NA,NA,"wheel",1
"w10066664_ah","tf5hh9zc4z","Affordance Norms_USM",1,25,"2023-09-13T19:03:31+00:00",11.079916954041,18,"updated stim.csv","Version18.csv","Version 18","List 18","crab",NA,538,4.818181818,161,0.378920968,539,"BOI","-","-","Please name all of the ways you could use this object. Keep in mind that one object can have many uses. Separate your responses with a comma.",NA,"y",10431,NA,NA,3480,5310,NA,NA,NA,"eat",1
"w10066664_ah","tf5hh9zc4z","Affordance Norms_USM",1,26,"2023-09-13T19:03:38+00:00",6.9461948871613,18,"updated stim.csv","Version18.csv","Version 18","List 18","board",NA,527,4.375,423,0.29017358,528,"BOI","-","-","Please name all of the ways you could use this object. Keep in mind that one object can have many uses. Separate your responses with a comma.",NA,"y",6620,NA,NA,3185,5265,NA,NA,NA,"write",1
"w10066664_ah","tf5hh9zc4z","Affordance Norms_USM",1,27,"2023-09-13T19:03:46+00:00",8.5800580978394,18,"updated stim.csv","Version18.csv","Version 18","List 18","birdbath",NA,523,5.269230769,2310,0.728002682,524,"BOI","-","-","Please name all of the ways you could use this object. Keep in mind that one object can have many uses. Separate your responses with a comma.",NA,"y",7927,NA,NA,3399,5837,NA,NA,NA,"for birds",1
"w10066664_ah","tf5hh9zc4z","Affordance Norms_USM",1,28,"2023-09-13T19:03:57+00:00",10.607559919357,18,"updated stim.csv","Version18.csv","Version 18","List 18","windsock",NA,515,5,1184,0.014898881,516,"BOI","-","-","Please name all of the ways you could use this object. Keep in mind that one object can have many uses. Separate your responses with a comma.",NA,"y",10224,NA,NA,8202,8822,NA,NA,NA,"wind",1
"w10066664_ah","tf5hh9zc4z","Affordance Norms_USM",1,29,"2023-09-13T19:04:06+00:00",9.4494330883026,18,"updated stim.csv","Version18.csv","Version 18","List 18","buttercup",NA,531,6.592592593,2604,0.037244496,532,"BOI","-","-","Please name all of the ways you could use this object. Keep in mind that one object can have many uses. Separate your responses with a comma.",NA,"y",8411,NA,NA,3878,4941,NA,NA,NA,"eat",1
"w10066664_ah","tf5hh9zc4z","Affordance Norms_USM",1,30,"2023-09-13T19:04:11+00:00",4.445424079895,18,"updated stim.csv","Version18.csv","Version 18","List 18","bell",NA,521,4.962962963,296,0.235786191,522,"BOI","-","-","Please name all of the ways you could use this object. Keep in mind that one object can have many uses. Separate your responses with a comma.",NA,"y",4220,NA,NA,2368,3044,NA,NA,NA,"ring",1
"w10066664_ah","tf5hh9zc4z","Affordance Norms_USM",1,31,"2023-09-13T19:04:19+00:00",8.5677218437195,18,"updated stim.csv","Version18.csv","Version 18","List 18","drum",NA,540,4.821428571,667,0.305307499,541,"BOI","-","-","Please name all of the ways you could use this object. Keep in mind that one object can have many uses. Separate your responses with a comma.",NA,"y",8326,NA,NA,1662,6073,NA,NA,NA,"beat, hit",1
"w10066664_ah","tf5hh9zc4z","Affordance Norms_USM",1,32,"2023-09-13T19:04:28+00:00",9.1804010868073,18,"updated stim.csv","Version18.csv","Version 18","List 18","diaphragm",NA,539,4.962962963,2663,0.710184563,540,"BOI","-","-","Please name all of the ways you could use this object. Keep in mind that one object can have many uses. Separate your responses with a comma.",NA,"y",8958,NA,NA,4989,7097,NA,NA,NA,"models",1
"w10066664_ah","tf5hh9zc4z","Affordance Norms_USM",1,33,"2023-09-13T19:04:37+00:00",8.3301038742065,18,"updated stim.csv","Version18.csv","Version 18","List 18","concert",NA,536,5.730769231,1109,0.219592421,537,"BOI","-","-","Please name all of the ways you could use this object. Keep in mind that one object can have many uses. Separate your responses with a comma.",NA,"y",8026,NA,NA,2411,6323,NA,NA,NA,"listen to music",1
"w10066664_ah","tf5hh9zc4z","Affordance Norms_USM",1,34,"2023-09-13T19:04:44+00:00",7.2723071575165,18,"updated stim.csv","Version18.csv","Version 18","List 18","aftershave",NA,517,4.84,701,0.291263355,518,"BOI","-","-","Please name all of the ways you could use this object. Keep in mind that one object can have many uses. Separate your responses with a comma.",NA,"y",7048,NA,NA,3527,5964,NA,NA,NA,"shave face",1
"w10066664_ah","tf5hh9zc4z","Affordance Norms_USM",1,35,"2023-09-13T19:05:04+00:00",20.201997995377,18,"updated stim.csv","Version18.csv","Version 18","List 18","cement",NA,533,5.24,921,0.53592974,534,"BOI","-","-","Please name all of the ways you could use this object. Keep in mind that one object can have many uses. Separate your responses with a comma.",NA,"y",19945,NA,NA,2445,18153,NA,NA,NA,"build buildings,create sidewalk",1
"w10066664_ah","tf5hh9zc4z","Affordance Norms_USM",1,36,"2023-09-13T19:05:15+00:00",10.298557043076,18,"updated stim.csv","Version18.csv","Version 18","List 18","briefcase",NA,529,4.391304348,1366,0.759903521,530,"BOI","-","-","Please name all of the ways you could use this object. Keep in mind that one object can have many uses. Separate your responses with a comma.",NA,"y",10023,NA,NA,3238,8362,NA,NA,NA,"for paperwork",1
"w10066664_ah","tf5hh9zc4z","Affordance Norms_USM",1,37,"2023-09-13T19:05:29+00:00",14.36369395256,18,"updated stim.csv","Version18.csv","Version 18","List 18","uniform",NA,511,4.695652174,2071,0.979417302,512,"BOI","-","-","Please name all of the ways you could use this object. Keep in mind that one object can have many uses. Separate your responses with a comma.",NA,"y",14119,NA,NA,2009,12672,NA,NA,NA,"wear for work,or school",1
"w10066664_ah","tf5hh9zc4z","Affordance Norms_USM",1,38,"2023-09-13T19:05:36+00:00",7.570613861084,18,"updated stim.csv","Version18.csv","Version 18","List 18","cookhouse",NA,537,5.486522911,901,0.750646332,538,"BOI","-","-","Please name all of the ways you could use this object. Keep in mind that one object can have many uses. Separate your responses with a comma.",NA,"y",7335,NA,NA,3787,5956,NA,NA,NA,"make food",1
"w10066664_ah","tf5hh9zc4z","Affordance Norms_USM",1,39,"2023-09-13T19:05:43+00:00",6.2651801109314,18,"updated stim.csv","Version18.csv","Version 18","List 18","bunk",NA,530,5.333333333,74,0.187270689,531,"BOI","-","-","Please name all of the ways you could use this object. Keep in mind that one object can have many uses. Separate your responses with a comma.",NA,"y",6010,NA,NA,2786,3709,NA,NA,NA,"sleep",1
"w10066664_ah","tf5hh9zc4z","Affordance Norms_USM",1,40,"2023-09-13T19:05:55+00:00",12.079877853394,18,"updated stim.csv","Version18.csv","Version 18","List 18","barman",NA,520,4.8,655,0.584332234,521,"BOI","-","-","Please name all of the ways you could use this object. Keep in mind that one object can have many uses. Separate your responses with a comma.",NA,"y",11628,NA,NA,4636,10087,NA,NA,NA,"get a drink",1
"w10066961","b2dgzt6hp3","Affordance Norms_USM",1,11,"2023-09-07T20:27:44+00:00",64.092154026031,5,"updated stim.csv","Version5.csv","Version 5","List 5","horseman",NA,132,5.608695652,386,0.325095127,133,"BOI","-","-","Please name all of the ways you could use this object. Keep in mind that one object can have many uses. Separate your responses with a comma.",NA,"y",63844,NA,NA,3248,61374,NA,NA,NA,"ride, race, sport, leadership, control, speed, ",1
"w10066961","b2dgzt6hp3","Affordance Norms_USM",1,12,"2023-09-07T20:28:28+00:00",44.293100833893,5,"updated stim.csv","Version5.csv","Version 5","List 5","workroom",NA,146,4.64,2078,0.373078665,147,"BOI","-","-","Please name all of the ways you could use this object. Keep in mind that one object can have many uses. Separate your responses with a comma.",NA,"y",42820,NA,NA,1933,41415,NA,NA,NA,"study, focus, learn, complete assignement, document, print, file, write, draw, meetings, storage, ",1
"w10066961","b2dgzt6hp3","Affordance Norms_USM",1,13,"2023-09-07T20:28:48+00:00",20.188202142715,5,"updated stim.csv","Version5.csv","Version 5","List 5","fawn",NA,138,5.12,2966,0.663344397,139,"BOI","-","-","Please name all of the ways you could use this object. Keep in mind that one object can have many uses. Separate your responses with a comma.",NA,"y",18718,NA,NA,12607,17317,NA,NA,NA,"populate, eat",1
"w10066961","b2dgzt6hp3","Affordance Norms_USM",1,14,"2023-09-07T20:29:04+00:00",15.703747987747,5,"updated stim.csv","Version5.csv","Version 5","List 5","applicator",NA,137,4.928571429,2330,0.621252368,138,"BOI","-","-","Please name all of the ways you could use this object. Keep in mind that one object can have many uses. Separate your responses with a comma.",NA,"y",15519,NA,NA,2274,13024,NA,NA,NA,"makeup, skincare, apply, ",1
"w10066961","b2dgzt6hp3","Affordance Norms_USM",1,15,"2023-09-07T20:30:42+00:00",98.146800994873,5,"updated stim.csv","Version5.csv","Version 5","List 5","trainer",NA,144,5.428571429,2984,0.95091675,145,"BOI","-","-","Please name all of the ways you could use this object. Keep in mind that one object can have many uses. Separate your responses with a comma.",NA,"y",97841,NA,NA,11922,92542,NA,NA,NA,"clients, assist, guide, motivate, teach, risk prevention, encourage, document, measure, creativity, leadership, ",1
"w10066961","b2dgzt6hp3","Affordance Norms_USM",1,16,"2023-09-07T20:31:12+00:00",30.243479967117,5,"updated stim.csv","Version5.csv","Version 5","List 5","wiper",NA,136,5.44,1413,0.406137653,137,"BOI","-","-","Please name all of the ways you could use this object. Keep in mind that one object can have many uses. Separate your responses with a comma.",NA,"y",30025,NA,NA,6045,28558,NA,NA,NA,"clean, clear, disinfect",1
"w10066961","b2dgzt6hp3","Affordance Norms_USM",1,17,"2023-09-07T20:31:29+00:00",16.262788057327,5,"updated stim.csv","Version5.csv","Version 5","List 5","nursemaid",NA,133,5.086956522,2971,0.589394286,134,"BOI","-","-","Please name all of the ways you could use this object. Keep in mind that one object can have many uses. Separate your responses with a comma.",NA,"y",16067,NA,NA,6288,13930,NA,NA,NA,"assist, encourage, motivate, care,",1
"w10066961","b2dgzt6hp3","Affordance Norms_USM",1,18,"2023-09-07T20:31:40+00:00",11.044893026352,5,"updated stim.csv","Version5.csv","Version 5","List 5","parchment",NA,141,4.375,2495,0.024282326,142,"BOI","-","-","Please name all of the ways you could use this object. Keep in mind that one object can have many uses. Separate your responses with a comma.",NA,"y",10876,NA,NA,1737,9544,NA,NA,NA,"baking, cooking, crafting",1
"w10066961","b2dgzt6hp3","Affordance Norms_USM",1,19,"2023-09-07T20:31:58+00:00",18.199183940887,5,"updated stim.csv","Version5.csv","Version 5","List 5","tablecloth",NA,142,4.913043478,2044,0.01460871,143,"BOI","-","-","Please name all of the ways you could use this object. Keep in mind that one object can have many uses. Separate your responses with a comma.",NA,"y",18028,NA,NA,1957,16620,NA,NA,NA,"decoration, clean, organize, crafting ",1
"w10066961","b2dgzt6hp3","Affordance Norms_USM",1,20,"2023-09-07T20:32:10+00:00",12.115906000137,5,"updated stim.csv","Version5.csv","Version 5","List 5","trench",NA,123,4.318181818,2903,0.192088069,124,"BOI","-","-","Please name all of the ways you could use this object. Keep in mind that one object can have many uses. Separate your responses with a comma.",NA,"y",11622,NA,NA,2199,7250,NA,NA,NA,"hide, dig, ",1
"w10066961","b2dgzt6hp3","Affordance Norms_USM",1,21,"2023-09-07T20:32:30+00:00",19.657775878906,5,"updated stim.csv","Version5.csv","Version 5","List 5","teacup",NA,143,4.583333333,470,0.107709949,144,"BOI","-","-","Please name all of the ways you could use this object. Keep in mind that one object can have many uses. Separate your responses with a comma.",NA,"y",19455,NA,NA,2072,15850,NA,NA,NA,"drink, decoration, sip, hold, ",1
"w10066961","b2dgzt6hp3","Affordance Norms_USM",1,22,"2023-09-07T20:32:41+00:00",10.917638063431,5,"updated stim.csv","Version5.csv","Version 5","List 5","tonic",NA,122,6.28,1637,0.689498349,123,"BOI","-","-","Please name all of the ways you could use this object. Keep in mind that one object can have many uses. Separate your responses with a comma.",NA,"y",10580,NA,NA,6039,9244,NA,NA,NA,"sip, drink",1
"w10066961","b2dgzt6hp3","Affordance Norms_USM",1,23,"2023-09-07T20:33:35+00:00",54.084438085556,5,"updated stim.csv","Version5.csv","Version 5","List 5","ballot",NA,148,6.434782609,814,0.883086008,149,"BOI","-","-","Please name all of the ways you could use this object. Keep in mind that one object can have many uses. Separate your responses with a comma.",NA,"y",11280,NA,NA,1964,9468,NA,NA,NA,"vote, toll, poll",1
"w10066961","b2dgzt6hp3","Affordance Norms_USM",1,24,"2023-09-07T20:33:53+00:00",17.914258956909,5,"updated stim.csv","Version5.csv","Version 5","List 5","optician",NA,125,5.04,1900,0.012619648,126,"BOI","-","-","Please name all of the ways you could use this object. Keep in mind that one object can have many uses. Separate your responses with a comma.",NA,"y",17747,NA,NA,3543,15600,NA,NA,NA,"look, diagnose, document",1
"w10066961","b2dgzt6hp3","Affordance Norms_USM",1,25,"2023-09-07T20:34:46+00:00",53.665215969086,5,"updated stim.csv","Version5.csv","Version 5","List 5","building",NA,150,5.8,937,0.594546173,151,"BOI","-","-","Please name all of the ways you could use this object. Keep in mind that one object can have many uses. Separate your responses with a comma.",NA,"y",53485,NA,NA,7105,52112,NA,NA,NA,"company, food, store, storage, office, shelter, hotel, motel, center, meetings, marketing",1
"w10066961","b2dgzt6hp3","Affordance Norms_USM",1,26,"2023-09-07T20:35:01+00:00",14.844675064087,5,"updated stim.csv","Version5.csv","Version 5","List 5","torso",NA,128,4.782608696,2910,0.65261601,129,"BOI","-","-","Please name all of the ways you could use this object. Keep in mind that one object can have many uses. Separate your responses with a comma.",NA,"y",14643,NA,NA,4907,13138,NA,NA,NA,"core, abs, fashion, measure",1
"w10066961","b2dgzt6hp3","Affordance Norms_USM",1,27,"2023-09-07T20:35:13+00:00",12.121101856232,5,"updated stim.csv","Version5.csv","Version 5","List 5","ore",NA,126,4.52,2234,0.16035416,127,"BOI","-","-","Please name all of the ways you could use this object. Keep in mind that one object can have many uses. Separate your responses with a comma.",NA,"y",11661,NA,NA,4016,7816,NA,NA,NA,"steer,",1
"w10066961","b2dgzt6hp3","Affordance Norms_USM",1,28,"2023-09-07T20:35:22+00:00",9.3331680297852,5,"updated stim.csv","Version5.csv","Version 5","List 5","piss",NA,121,5.791666667,973,0.03998685,122,"BOI","-","-","Please name all of the ways you could use this object. Keep in mind that one object can have many uses. Separate your responses with a comma.",NA,"y",9156,NA,NA,4701,6575,NA,NA,NA,"pee, urinate, ",1
"w10066961","b2dgzt6hp3","Affordance Norms_USM",1,29,"2023-09-07T20:35:25+00:00",2.7409591674805,5,"updated stim.csv","Version5.csv","Version 5","List 5","frankfurter",NA,139,5.391304348,2026,0.369576509,140,"BOI","-","-","Please name all of the ways you could use this object. Keep in mind that one object can have many uses. Separate your responses with a comma.",NA,"y",2578,NA,NA,-1,-1,NA,NA,NA,"",1
"w10066961","b2dgzt6hp3","Affordance Norms_USM",1,30,"2023-09-07T20:35:27+00:00",1.6191108226776,5,"updated stim.csv","Version5.csv","Version 5","List 5","bankbook",NA,130,NA,3002,0.356895476,131,"BOI","-","-","Please name all of the ways you could use this object. Keep in mind that one object can have many uses. Separate your responses with a comma.",NA,"y",1454,NA,NA,-1,-1,NA,NA,NA,"",1
"w10066961","b2dgzt6hp3","Affordance Norms_USM",1,31,"2023-09-07T20:35:32+00:00",4.8242011070251,5,"updated stim.csv","Version5.csv","Version 5","List 5","thumbnail",NA,134,5.296296296,1310,0.74583685,135,"BOI","-","-","Please name all of the ways you could use this object. Keep in mind that one object can have many uses. Separate your responses with a comma.",NA,"y",4660,NA,NA,1966,3236,NA,NA,NA,"protection",1
"w10066961","b2dgzt6hp3","Affordance Norms_USM",1,32,"2023-09-07T20:35:43+00:00",11.622352838516,5,"updated stim.csv","Version5.csv","Version 5","List 5","wheat",NA,129,5.041666667,175,0.357199657,130,"BOI","-","-","Please name all of the ways you could use this object. Keep in mind that one object can have many uses. Separate your responses with a comma.",NA,"y",11446,NA,NA,1317,10096,NA,NA,NA,"eat, cook, bake, farm",1
"w10066961","b2dgzt6hp3","Affordance Norms_USM",1,33,"2023-09-07T20:35:55+00:00",11.456042051315,5,"updated stim.csv","Version5.csv","Version 5","List 5","teakwood",NA,127,4.607142857,2761,0.821162254,128,"BOI","-","-","Please name all of the ways you could use this object. Keep in mind that one object can have many uses. Separate your responses with a comma.",NA,"y",10906,NA,NA,2975,9481,NA,NA,NA,"build, smell, scent, candle",1
"w10066961","b2dgzt6hp3","Affordance Norms_USM",1,34,"2023-09-07T20:36:20+00:00",24.887179136276,5,"updated stim.csv","Version5.csv","Version 5","List 5","walrus",NA,145,4.923076923,2055,0.604936304,146,"BOI","-","-","Please name all of the ways you could use this object. Keep in mind that one object can have many uses. Separate your responses with a comma.",NA,"y",24713,NA,NA,4171,22706,NA,NA,NA,"protection, study, research, watch, observe, photograph, draw",1
"w10066961","b2dgzt6hp3","Affordance Norms_USM",1,35,"2023-09-07T20:36:34+00:00",14.259634017944,5,"updated stim.csv","Version5.csv","Version 5","List 5","bodice",NA,131,5.36,2003,0.404603014,132,"BOI","-","-","Please name all of the ways you could use this object. Keep in mind that one object can have many uses. Separate your responses with a comma.",NA,"y",14072,NA,NA,6093,12616,NA,NA,NA,"shaping, slimming, aesthetic",1
"w10066961","b2dgzt6hp3","Affordance Norms_USM",1,36,"2023-09-07T20:36:42+00:00",8.4024438858032,5,"updated stim.csv","Version5.csv","Version 5","List 5","urn",NA,135,4.411764706,1467,0.485337296,136,"BOI","-","-","Please name all of the ways you could use this object. Keep in mind that one object can have many uses. Separate your responses with a comma.",NA,"y",8220,NA,NA,3386,6799,NA,NA,NA,"storage, decoration",1
"w10066961","b2dgzt6hp3","Affordance Norms_USM",1,37,"2023-09-07T20:36:53+00:00",10.233366966248,5,"updated stim.csv","Version5.csv","Version 5","List 5","eclair",NA,124,4.833333333,638,0.549670749,125,"BOI","-","-","Please name all of the ways you could use this object. Keep in mind that one object can have many uses. Separate your responses with a comma.",NA,"y",10054,NA,NA,1452,7894,NA,NA,NA,"eat, bake, photograph, ",1
"w10066961","b2dgzt6hp3","Affordance Norms_USM",1,38,"2023-09-07T20:37:12+00:00",19.275474071503,5,"updated stim.csv","Version5.csv","Version 5","List 5","worksheet",NA,147,4.428571429,1867,0.923363889,148,"BOI","-","-","Please name all of the ways you could use this object. Keep in mind that one object can have many uses. Separate your responses with a comma.",NA,"y",18854,NA,NA,1578,16623,NA,NA,NA,"study, draw, write, activity, group work, ",1
"w10066961","b2dgzt6hp3","Affordance Norms_USM",1,39,"2023-09-07T20:37:24+00:00",12.098218917847,5,"updated stim.csv","Version5.csv","Version 5","List 5","barrette",NA,149,5.8,717,0.131827503,150,"BOI","-","-","Please name all of the ways you could use this object. Keep in mind that one object can have many uses. Separate your responses with a comma.",NA,"y",11903,NA,NA,2393,10449,NA,NA,NA,"clip, fashion",1
"w10066961","b2dgzt6hp3","Affordance Norms_USM",1,40,"2023-09-07T20:37:46+00:00",22.365825176239,5,"updated stim.csv","Version5.csv","Version 5","List 5","globe",NA,140,4.68,51,0.461950375,141,"BOI","-","-","Please name all of the ways you could use this object. Keep in mind that one object can have many uses. Separate your responses with a comma.",NA,"y",21886,NA,NA,3055,20465,NA,NA,NA,"study, observe, decoration, find, pinpoint",1
"w10095267_bat","jlp8sf8e7t","Affordance Norms_USM",1,11,"2023-09-10T20:19:21+00:00",14.251312017441,7,"updated stim.csv","Version7.csv","Version 7","List 7","hug",NA,196,5.52173913,936,0.012579093,197,"BOI","-","-","Please name all of the ways you could use this object. Keep in mind that one object can have many uses. Separate your responses with a comma.",NA,"y",13907,NA,NA,10411,13294,NA,NA,NA,"with people ",1
"w10095267_bat","jlp8sf8e7t","Affordance Norms_USM",1,12,"2023-09-10T20:19:27+00:00",6.3840320110321,7,"updated stim.csv","Version7.csv","Version 7","List 7","napkin",NA,201,4.538461538,145,0.584411792,202,"BOI","-","-","Please name all of the ways you could use this object. Keep in mind that one object can have many uses. Separate your responses with a comma.",NA,"y",6045,NA,NA,1957,5847,NA,NA,NA,"when eating, blowing nose",1
"w10095267_bat","jlp8sf8e7t","Affordance Norms_USM",1,13,"2023-09-10T20:19:49+00:00",21.127373933792,7,"updated stim.csv","Version7.csv","Version 7","List 7","shirtsleeve",NA,204,5.739130435,2550,0.221295865,205,"BOI","-","-","Please name all of the ways you could use this object. Keep in mind that one object can have many uses. Separate your responses with a comma.",NA,"y",20781,NA,NA,5790,20605,NA,NA,NA,"to roll up, to wipe something",1
"w10095267_bat","jlp8sf8e7t","Affordance Norms_USM",1,14,"2023-09-10T20:19:55+00:00",6.5224199295044,7,"updated stim.csv","Version7.csv","Version 7","List 7","bomb",NA,182,5.304347826,1695,0.811208955,183,"BOI","-","-","Please name all of the ways you could use this object. Keep in mind that one object can have many uses. Separate your responses with a comma.",NA,"y",6189,NA,NA,3370,4612,NA,NA,NA,"to throw ",1
"w10095267_bat","jlp8sf8e7t","Affordance Norms_USM",1,15,"2023-09-10T20:20:09+00:00",13.545336008072,7,"updated stim.csv","Version7.csv","Version 7","List 7","desk",NA,189,5.5,2664,0.327375285,190,"BOI","-","-","Please name all of the ways you could use this object. Keep in mind that one object can have many uses. Separate your responses with a comma.",NA,"y",13172,NA,NA,3054,12935,NA,NA,NA,"homework, make up ",1
"w10095267_bat","jlp8sf8e7t","Affordance Norms_USM",1,16,"2023-09-10T20:20:14+00:00",5.7201039791107,7,"updated stim.csv","Version7.csv","Version 7","List 7","bong",NA,183,5.24,745,0.735675552,184,"BOI","-","-","Please name all of the ways you could use this object. Keep in mind that one object can have many uses. Separate your responses with a comma.",NA,"y",5363,NA,NA,2547,5317,NA,NA,NA,"hit someone ",1
"w10095267_bat","jlp8sf8e7t","Affordance Norms_USM",1,17,"2023-09-10T20:20:27+00:00",12.944194078445,7,"updated stim.csv","Version7.csv","Version 7","List 7","fig",NA,192,4.708333333,1150,0.142005772,193,"BOI","-","-","Please name all of the ways you could use this object. Keep in mind that one object can have many uses. Separate your responses with a comma.",NA,"y",12587,NA,NA,3503,12115,NA,NA,NA,"a type of tree",1
"w10095267_bat","jlp8sf8e7t","Affordance Norms_USM",1,18,"2023-09-10T20:20:34+00:00",6.2832660675049,7,"updated stim.csv","Version7.csv","Version 7","List 7","slipknot",NA,205,6.076923077,1920,0.177409365,206,"BOI","-","-","Please name all of the ways you could use this object. Keep in mind that one object can have many uses. Separate your responses with a comma.",NA,"y",5844,NA,NA,2069,4349,NA,NA,NA,"dont know ",1
"w10095267_bat","jlp8sf8e7t","Affordance Norms_USM",1,19,"2023-09-10T20:20:40+00:00",6.9022228717804,7,"updated stim.csv","Version7.csv","Version 7","List 7","lunch",NA,199,4.368421053,931,0.777702105,200,"BOI","-","-","Please name all of the ways you could use this object. Keep in mind that one object can have many uses. Separate your responses with a comma.",NA,"y",6546,NA,NA,1932,5579,NA,NA,NA,"to eat, to go to",1
"w10095267_bat","jlp8sf8e7t","Affordance Norms_USM",1,20,"2023-09-10T20:20:45+00:00",4.6484100818634,7,"updated stim.csv","Version7.csv","Version 7","List 7","duster",NA,190,5.75,733,0.398237917,191,"BOI","-","-","Please name all of the ways you could use this object. Keep in mind that one object can have many uses. Separate your responses with a comma.",NA,"y",4308,NA,NA,1655,3495,NA,NA,NA,"to clean",1
"w10095267_bat","jlp8sf8e7t","Affordance Norms_USM",1,21,"2023-09-10T20:20:50+00:00",4.6270668506622,7,"updated stim.csv","Version7.csv","Version 7","List 7","tearoom",NA,206,4.84,2222,0.865631611,207,"BOI","-","-","Please name all of the ways you could use this object. Keep in mind that one object can have many uses. Separate your responses with a comma.",NA,"y",4300,NA,NA,1971,4134,NA,NA,NA,"to drink in ",1
"w10095267_bat","jlp8sf8e7t","Affordance Norms_USM",1,22,"2023-09-10T20:20:55+00:00",5.6668951511383,7,"updated stim.csv","Version7.csv","Version 7","List 7","candy",NA,185,6.192307692,1893,0.453329457,186,"BOI","-","-","Please name all of the ways you could use this object. Keep in mind that one object can have many uses. Separate your responses with a comma.",NA,"y",5323,NA,NA,1175,5201,NA,NA,NA,"to eat, to share",1
"w10095267_bat","jlp8sf8e7t","Affordance Norms_USM",1,23,"2023-09-10T20:20:59+00:00",3.7274849414825,7,"updated stim.csv","Version7.csv","Version 7","List 7","wishbone",NA,209,4.833333333,1065,0.655532881,210,"BOI","-","-","Please name all of the ways you could use this object. Keep in mind that one object can have many uses. Separate your responses with a comma.",NA,"y",3338,NA,NA,1086,3005,NA,NA,NA,"to make a wish",1
"w10095267_bat","jlp8sf8e7t","Affordance Norms_USM",1,24,"2023-09-10T20:21:05+00:00",5.7971680164337,7,"updated stim.csv","Version7.csv","Version 7","List 7","boomerang",NA,184,5.04,1708,0.347707986,185,"BOI","-","-","Please name all of the ways you could use this object. Keep in mind that one object can have many uses. Separate your responses with a comma.",NA,"y",5442,NA,NA,1175,5323,NA,NA,NA,"to come back, to throw",1
"w10095267_bat","jlp8sf8e7t","Affordance Norms_USM",1,25,"2023-09-10T20:21:17+00:00",11.67323589325,7,"updated stim.csv","Version7.csv","Version 7","List 7","beachwear",NA,181,4.8,2381,0.034768165,182,"BOI","-","-","Please name all of the ways you could use this object. Keep in mind that one object can have many uses. Separate your responses with a comma.",NA,"y",10966,NA,NA,1471,10789,NA,NA,NA,"to go to beach, to wear, to get sun in ",1
"w10095267_bat","jlp8sf8e7t","Affordance Norms_USM",1,26,"2023-09-10T20:21:21+00:00",4.3082962036133,7,"updated stim.csv","Version7.csv","Version 7","List 7","flypaper",NA,194,5.76,2598,0.221741609,195,"BOI","-","-","Please name all of the ways you could use this object. Keep in mind that one object can have many uses. Separate your responses with a comma.",NA,"y",3910,NA,NA,1406,3186,NA,NA,NA,"not sure",1
"w10095267_bat","jlp8sf8e7t","Affordance Norms_USM",1,27,"2023-09-10T20:21:24+00:00",2.8135998249054,7,"updated stim.csv","Version7.csv","Version 7","List 7","iceboat",NA,197,4.739130435,1133,0.534894394,198,"BOI","-","-","Please name all of the ways you could use this object. Keep in mind that one object can have many uses. Separate your responses with a comma.",NA,"y",2480,NA,NA,1566,2404,NA,NA,NA,"not sure",1
"w10095267_bat","jlp8sf8e7t","Affordance Norms_USM",1,28,"2023-09-10T20:21:29+00:00",5.3926720619202,7,"updated stim.csv","Version7.csv","Version 7","List 7","football",NA,195,5.04,1418,0.513162464,196,"BOI","-","-","Please name all of the ways you could use this object. Keep in mind that one object can have many uses. Separate your responses with a comma.",NA,"y",5033,NA,NA,928,4317,NA,NA,NA,"to throw, to catch",1
"w10095267_bat","jlp8sf8e7t","Affordance Norms_USM",1,29,"2023-09-10T20:21:37+00:00",7.9150369167328,7,"updated stim.csv","Version7.csv","Version 7","List 7","crossbow",NA,210,5.217391304,1840,0.069479316,211,"BOI","-","-","Please name all of the ways you could use this object. Keep in mind that one object can have many uses. Separate your responses with a comma.",NA,"y",7579,NA,NA,976,7437,NA,NA,NA,"to fire, to use, to shoot",1
"w10095267_bat","jlp8sf8e7t","Affordance Norms_USM",1,30,"2023-09-10T20:21:44+00:00",7.281574010849,7,"updated stim.csv","Version7.csv","Version 7","List 7","dachshund",NA,188,5.846153846,2124,0.531176794,189,"BOI","-","-","Please name all of the ways you could use this object. Keep in mind that one object can have many uses. Separate your responses with a comma.",NA,"y",6920,NA,NA,1638,6682,NA,NA,NA,"to play with",1
"w10095267_bat","jlp8sf8e7t","Affordance Norms_USM",1,31,"2023-09-10T20:22:01+00:00",16.866801977158,7,"updated stim.csv","Version7.csv","Version 7","List 7","kleenex",NA,198,6.12,1930,0.592409662,199,"BOI","-","-","Please name all of the ways you could use this object. Keep in mind that one object can have many uses. Separate your responses with a comma.",NA,"y",16516,NA,NA,919,15401,NA,NA,NA,"to wipe nose, to wipe eyes",1
