Username,ID,ExperimentName,Session,Trial,Date,TimeDif,"Condition Number","Stimuli File","Order File","Condition Description","Condition Notes",Stimuli*Cue,Stimuli*Answer,Stimuli*Shuffle,"Stimuli*Stimuli Notes",Stimuli*Value,Stimuli*Rand,Procedure*Item,"Procedure*Trial Type","Procedure*Max Time","Procedure*Min Time",Procedure*Text,"Procedure*Procedure Notes",Procedure*Shuffle,Response*RT,Response*Response,Response*Accuracy,Response*RTfirst,Response*RTlast,Response*strictAcc,Response*lenientAcc,Response*focus,Response*JOL,Response*Focus
M2031582_gp,xhvxdq3yw9,"Affordance Norms_MSU_TEX",1,1,2023-04-25T02:09:32+00:00,636.95919179916,92,"updated stim.csv",Version92.csv,"Version 92","List 92",,,,,,,0,Instruct,-,10,"In this section, you will be presented with a series of objects. Please name as many possible uses for this object as you can think of by typing them in the box below each object.",,Instruct1,636791,,,-1,-1,,,,,1
M2031582_gp,xhvxdq3yw9,"Affordance Norms_MSU_TEX",1,2,2023-04-25T02:09:47+00:00,14.878168106079,92,"updated stim.csv",Version92.csv,"Version 92","List 92",,,,,,,0,Instruct,-,10,"Please keep in mind that a single object will have more than one use. For example, a ball can be thrown or can be bounced or even stepped on. When listing multiple uses for one object, please separate each use with a comma (i.e., thrown, bounced, stepped on)",,Instruct2,14723,,,-1,-1,,,,,1
M2031582_gp,xhvxdq3yw9,"Affordance Norms_MSU_TEX",1,3,2023-04-25T02:10:00+00:00,13.489582061768,92,"updated stim.csv",Version92.csv,"Version 92","List 92",,,,,,,0,Instruct,-,-,"Before starting the experiment, you will complete a short practice sesstion. Press ENTER when you are ready to begin.",,Instruct3,13329,,,-1,-1,,,,,1
M2031582_gp,xhvxdq3yw9,"Affordance Norms_MSU_TEX",1,4,2023-04-25T02:10:17+00:00,16.140678882599,92,"updated stim.csv",Version92.csv,"Version 92","List 92",spaghetti,,3003,6,2461,0.090379998,3004,BOI,-,-,"Please name all of the ways you could use this object. Keep in mind that one object can have many uses. Separate your responses with a comma.",,n,15987,,,3097,8413,,,,"thrown, eaten",0.974
M2031582_gp,xhvxdq3yw9,"Affordance Norms_MSU_TEX",1,5,2023-04-25T02:10:25+00:00,8.0771980285645,92,"updated stim.csv",Version92.csv,"Version 92","List 92",saucer,,3005,5.777777778,2249,0.304808074,3006,BOI,-,-,"Please name all of the ways you could use this object. Keep in mind that one object can have many uses. Separate your responses with a comma.",,n,7926,,,1494,5537,,,,"juice,drink",1
M2031582_gp,xhvxdq3yw9,"Affordance Norms_MSU_TEX",1,6,2023-04-25T02:10:29+00:00,4.6999080181122,92,"updated stim.csv",Version92.csv,"Version 92","List 92",grain,,3004,5.217391304,1143,0.226863762,3005,BOI,-,-,"Please name all of the ways you could use this object. Keep in mind that one object can have many uses. Separate your responses with a comma.",,n,4561,,,3291,3946,,,,cook,1
M2031582_gp,xhvxdq3yw9,"Affordance Norms_MSU_TEX",1,7,2023-04-25T02:10:40+00:00,10.858020067215,92,"updated stim.csv",Version92.csv,"Version 92","List 92",shortening,,3002,4.92,2358,0.604328482,3003,BOI,-,-,"Please name all of the ways you could use this object. Keep in mind that one object can have many uses. Separate your responses with a comma.",,n,10710,,,1409,10373,,,,"line,objects",1
M2031582_gp,xhvxdq3yw9,"Affordance Norms_MSU_TEX",1,8,2023-04-25T02:10:55+00:00,15.22505402565,92,"updated stim.csv",Version92.csv,"Version 92","List 92",paperwork,,3001,5.625,1866,0.124284162,3002,BOI,-,-,"Please name all of the ways you could use this object. Keep in mind that one object can have many uses. Separate your responses with a comma.",,n,15063,,,3972,11963,,,,"cut, thrown up",1
M2031582_gp,xhvxdq3yw9,"Affordance Norms_MSU_TEX",1,9,2023-04-25T02:11:06+00:00,10.661561012268,92,"updated stim.csv",Version92.csv,"Version 92","List 92",,,,,,,0,Instruct,-,-,"You have completed this section. Press ENTER to continue",,"Instruct 5",10510,,,-1,-1,,,,,1
M2031582_gp,xhvxdq3yw9,"Affordance Norms_MSU_TEX",1,10,2023-04-25T02:11:09+00:00,2.6684849262238,92,"updated stim.csv",Version92.csv,"Version 92","List 92",,,,,,,0,Instruct,-,-,"You will now start the full experiment. Press ENTER when you are ready to begin.",,,2515,,,-1,-1,,,,,1
M2031582_gp,xhvxdq3yw9,"Affordance Norms_MSU_TEX",1,11,2023-04-25T02:11:30+00:00,21.600298881531,92,"updated stim.csv",Version92.csv,"Version 92","List 92",vacuum,,2738,5.291666667,2831,0.217079292,2739,BOI,-,-,"Please name all of the ways you could use this object. Keep in mind that one object can have many uses. Separate your responses with a comma.",,y,21444,,,2540,19168,,,,"throw, clean",1
M2031582_gp,xhvxdq3yw9,"Affordance Norms_MSU_TEX",1,12,2023-04-25T02:11:47+00:00,16.178279161453,92,"updated stim.csv",Version92.csv,"Version 92","List 92",sweatshirt,,2744,6.6,2605,0.206073363,2745,BOI,-,-,"Please name all of the ways you could use this object. Keep in mind that one object can have many uses. Separate your responses with a comma.",,y,14696,,,5520,7170,,,,"worn,",1
M2031582_gp,xhvxdq3yw9,"Affordance Norms_MSU_TEX",1,13,2023-04-25T02:12:47+00:00,60.886914968491,92,"updated stim.csv",Version92.csv,"Version 92","List 92",cellist,,2760,4.869565217,473,0.269429709,2761,BOI,-,-,"Please name all of the ways you could use this object. Keep in mind that one object can have many uses. Separate your responses with a comma.",,y,60732,,,58241,60274,,,,thrown,1
M2031582_gp,xhvxdq3yw9,"Affordance Norms_MSU_TEX",1,14,2023-04-25T02:12:59+00:00,11.968786001205,92,"updated stim.csv",Version92.csv,"Version 92","List 92",wife,,2746,6.357142857,2934,0.301062412,2747,BOI,-,-,"Please name all of the ways you could use this object. Keep in mind that one object can have many uses. Separate your responses with a comma.",,y,11817,,,6008,9209,,,,"hug,kiss,",1
M2031582_gp,xhvxdq3yw9,"Affordance Norms_MSU_TEX",1,15,2023-04-25T02:13:07+00:00,7.6441729068756,92,"updated stim.csv",Version92.csv,"Version 92","List 92",torso,,2739,5.64,2739,0.109305249,2740,BOI,-,-,"Please name all of the ways you could use this object. Keep in mind that one object can have many uses. Separate your responses with a comma.",,y,7501,,,2650,6855,,,,"stretch ",1
M2031582_gp,xhvxdq3yw9,"Affordance Norms_MSU_TEX",1,16,2023-04-25T02:13:31+00:00,23.823026180267,92,"updated stim.csv",Version92.csv,"Version 92","List 92",technician,,2757,4.56,2655,0.092155041,2758,BOI,-,-,"Please name all of the ways you could use this object. Keep in mind that one object can have many uses. Separate your responses with a comma.",,y,23673,,,20094,23150,,,,see,1
M2031582_gp,xhvxdq3yw9,"Affordance Norms_MSU_TEX",1,17,2023-04-25T02:13:36+00:00,5.2147188186646,92,"updated stim.csv",Version92.csv,"Version 92","List 92",groin,,2758,5.72,1180,0.249014614,2759,BOI,-,-,"Please name all of the ways you could use this object. Keep in mind that one object can have many uses. Separate your responses with a comma.",,y,5068,,,2199,4175,,,,throw,1
M2031582_gp,xhvxdq3yw9,"Affordance Norms_MSU_TEX",1,18,2023-04-25T02:13:39+00:00,3.0188760757446,92,"updated stim.csv",Version92.csv,"Version 92","List 92",teahouse,,2737,4.347826087,2645,0.253002246,2738,BOI,-,-,"Please name all of the ways you could use this object. Keep in mind that one object can have many uses. Separate your responses with a comma.",,y,2873,,,1643,2256,,,,cut,1
M2031582_gp,xhvxdq3yw9,"Affordance Norms_MSU_TEX",1,19,2023-04-25T02:13:46+00:00,6.4198501110077,92,"updated stim.csv",Version92.csv,"Version 92","List 92",mule,,2743,4.318181818,1716,0.264178826,2744,BOI,-,-,"Please name all of the ways you could use this object. Keep in mind that one object can have many uses. Separate your responses with a comma.",,y,6279,,,2507,4122,,,,see,1
M2031582_gp,xhvxdq3yw9,"Affordance Norms_MSU_TEX",1,20,2023-04-25T02:13:55+00:00,9.3149528503418,92,"updated stim.csv",Version92.csv,"Version 92","List 92",chestnut,,2753,5.555555556,514,0.971745449,2754,BOI,-,-,"Please name all of the ways you could use this object. Keep in mind that one object can have many uses. Separate your responses with a comma.",,y,9182,,,1586,8564,,,,"eat,see,thrown out ",1
M2031582_gp,xhvxdq3yw9,"Affordance Norms_MSU_TEX",1,21,2023-04-25T02:13:59+00:00,4.2165801525116,92,"updated stim.csv",Version92.csv,"Version 92","List 92",poker,,2745,4.590909091,2019,0.251545465,2746,BOI,-,-,"Please name all of the ways you could use this object. Keep in mind that one object can have many uses. Separate your responses with a comma.",,y,4073,,,2304,3424,,,,face,1
M2031582_gp,xhvxdq3yw9,"Affordance Norms_MSU_TEX",1,22,2023-04-25T02:14:11+00:00,12.057684898376,92,"updated stim.csv",Version92.csv,"Version 92","List 92",tissue,,2759,5.72,2707,0.79838115,2760,BOI,-,-,"Please name all of the ways you could use this object. Keep in mind that one object can have many uses. Separate your responses with a comma.",,y,11910,,,2279,11421,,,,"blow on, thrown out",1
M2031582_gp,xhvxdq3yw9,"Affordance Norms_MSU_TEX",1,23,2023-04-25T02:14:21+00:00,9.93914103508,92,"updated stim.csv",Version92.csv,"Version 92","List 92",smoothie,,2741,6.041666667,2423,0.034869801,2742,BOI,-,-,"Please name all of the ways you could use this object. Keep in mind that one object can have many uses. Separate your responses with a comma.",,y,9773,,,7907,8872,,,,drink,1
M2031582_gp,xhvxdq3yw9,"Affordance Norms_MSU_TEX",1,24,2023-04-25T02:14:42+00:00,21.083960056305,92,"updated stim.csv",Version92.csv,"Version 92","List 92",rawhide,,2733,4.541666667,2141,0.992980546,2734,BOI,-,-,"Please name all of the ways you could use this object. Keep in mind that one object can have many uses. Separate your responses with a comma.",,y,20928,,,20052,20735,,,,ride,1
M2031582_gp,xhvxdq3yw9,"Affordance Norms_MSU_TEX",1,25,2023-04-25T02:15:16+00:00,34.164036989212,92,"updated stim.csv",Version92.csv,"Version 92","List 92",cannonball,,2755,4.304347826,416,0.112743857,2756,BOI,-,-,"Please name all of the ways you could use this object. Keep in mind that one object can have many uses. Separate your responses with a comma.",,y,34007,,,32188,33658,,,,throw,1
M2031582_gp,xhvxdq3yw9,"Affordance Norms_MSU_TEX",1,26,2023-04-25T02:15:36+00:00,19.300920009613,92,"updated stim.csv",Version92.csv,"Version 92","List 92",screen,,2749,5.041666667,2285,0.449651764,2750,BOI,-,-,"Please name all of the ways you could use this object. Keep in mind that one object can have many uses. Separate your responses with a comma.",,y,19140,,,13978,16901,,,,watch,1
M2031582_gp,xhvxdq3yw9,"Affordance Norms_MSU_TEX",1,27,2023-04-25T02:15:39+00:00,3.779953956604,92,"updated stim.csv",Version92.csv,"Version 92","List 92",basil,,2736,5.916666667,160,0.041453571,2737,BOI,-,-,"Please name all of the ways you could use this object. Keep in mind that one object can have many uses. Separate your responses with a comma.",,y,3630,,,2284,2906,,,,cook,1
M2031582_gp,xhvxdq3yw9,"Affordance Norms_MSU_TEX",1,28,2023-04-25T02:16:24+00:00,44.698963880539,92,"updated stim.csv",Version92.csv,"Version 92","List 92",garnets,,2751,4.65,1082,0.45457956,2752,BOI,-,-,"Please name all of the ways you could use this object. Keep in mind that one object can have many uses. Separate your responses with a comma.",,y,44546,,,42915,44331,,,,wear,1
M2031582_gp,xhvxdq3yw9,"Affordance Norms_MSU_TEX",1,29,2023-04-25T02:16:28+00:00,3.9680600166321,92,"updated stim.csv",Version92.csv,"Version 92","List 92",sangria,,2756,4.863636364,2239,0.271380112,2757,BOI,-,-,"Please name all of the ways you could use this object. Keep in mind that one object can have many uses. Separate your responses with a comma.",,y,3818,,,2345,3229,,,,drink,1
M2031582_gp,xhvxdq3yw9,"Affordance Norms_MSU_TEX",1,30,2023-04-25T02:16:34+00:00,5.5838079452515,92,"updated stim.csv",Version92.csv,"Version 92","List 92",typewriter,,2731,5.592592593,2814,0.066843696,2732,BOI,-,-,"Please name all of the ways you could use this object. Keep in mind that one object can have many uses. Separate your responses with a comma.",,y,5435,,,2661,4926,,,,"use,type",1
M2031582_gp,xhvxdq3yw9,"Affordance Norms_MSU_TEX",1,31,2023-04-25T02:16:55+00:00,20.884891033173,92,"updated stim.csv",Version92.csv,"Version 92","List 92",padding,,2742,4.925925926,1841,0.414513499,2743,BOI,-,-,"Please name all of the ways you could use this object. Keep in mind that one object can have many uses. Separate your responses with a comma.",,y,20736,,,19557,20360,,,,swim,1
M2031582_gp,xhvxdq3yw9,"Affordance Norms_MSU_TEX",1,32,2023-04-25T02:17:00+00:00,5.355357170105,92,"updated stim.csv",Version92.csv,"Version 92","List 92",workbox,,2754,5.454545455,2970,0.23536446,2755,BOI,-,-,"Please name all of the ways you could use this object. Keep in mind that one object can have many uses. Separate your responses with a comma.",,y,5206,,,3121,4666,,,,work,1
M2031582_gp,xhvxdq3yw9,"Affordance Norms_MSU_TEX",1,33,2023-04-25T02:17:07+00:00,6.6314489841461,92,"updated stim.csv",Version92.csv,"Version 92","List 92",airplane,,2750,4.625,22,0.539121628,2751,BOI,-,-,"Please name all of the ways you could use this object. Keep in mind that one object can have many uses. Separate your responses with a comma.",,y,6485,,,1573,5714,,,,"see,ride",1
M2031582_gp,xhvxdq3yw9,"Affordance Norms_MSU_TEX",1,34,2023-04-25T02:17:19+00:00,12.215245008469,92,"updated stim.csv",Version92.csv,"Version 92","List 92",wreath,,2732,5.461538462,2979,0.545736443,2733,BOI,-,-,"Please name all of the ways you could use this object. Keep in mind that one object can have many uses. Separate your responses with a comma.",,y,12067,,,7836,9159,,,,,1
M2031582_gp,xhvxdq3yw9,"Affordance Norms_MSU_TEX",1,35,2023-04-25T02:17:34+00:00,15.337583780289,92,"updated stim.csv",Version92.csv,"Version 92","List 92",bill,,2735,5.111111111,214,0.182223817,2736,BOI,-,-,"Please name all of the ways you could use this object. Keep in mind that one object can have many uses. Separate your responses with a comma.",,y,15182,,,4334,14481,,,,"see, throw out",1
M2031582_gp,xhvxdq3yw9,"Affordance Norms_MSU_TEX",1,36,2023-04-25T02:17:36+00:00,1.5626041889191,92,"updated stim.csv",Version92.csv,"Version 92","List 92",swing,,2748,5.36,2608,0.846479663,2749,BOI,-,-,"Please name all of the ways you could use this object. Keep in mind that one object can have many uses. Separate your responses with a comma.",,y,1418,,,-1,-1,,,,,1
M2031582_gp,xhvxdq3yw9,"Affordance Norms_MSU_TEX",1,37,2023-04-25T02:17:38+00:00,2.6624758243561,92,"updated stim.csv",Version92.csv,"Version 92","List 92",fruitcake,,2747,6,1061,0.894019945,2748,BOI,-,-,"Please name all of the ways you could use this object. Keep in mind that one object can have many uses. Separate your responses with a comma.",,y,2519,,,1431,1949,,,,eat,1
M2031582_gp,xhvxdq3yw9,"Affordance Norms_MSU_TEX",1,38,2023-04-25T02:17:44+00:00,5.3617141246796,92,"updated stim.csv",Version92.csv,"Version 92","List 92",zipper,,2740,6.08,2999,0.091808488,2741,BOI,-,-,"Please name all of the ways you could use this object. Keep in mind that one object can have many uses. Separate your responses with a comma.",,y,5220,,,3190,4581,,,,style,1
M2031582_gp,xhvxdq3yw9,"Affordance Norms_MSU_TEX",1,39,2023-04-25T02:17:53+00:00,9.4106199741364,92,"updated stim.csv",Version92.csv,"Version 92","List 92",spokesman,,2734,4.375,2479,0.399647674,2735,BOI,-,-,"Please name all of the ways you could use this object. Keep in mind that one object can have many uses. Separate your responses with a comma.",,y,9267,,,2005,8268,,,,"see, hear",1
M2031582_gp,xhvxdq3yw9,"Affordance Norms_MSU_TEX",1,40,2023-04-25T02:17:58+00:00,5.0069661140442,92,"updated stim.csv",Version92.csv,"Version 92","List 92",newsprint,,2752,4.260869565,1762,0.324228274,2753,BOI,-,-,"Please name all of the ways you could use this object. Keep in mind that one object can have many uses. Separate your responses with a comma.",,y,4866,,,2035,4366,,,,read,1
M2031582_gp,xhvxdq3yw9,"Affordance Norms_MSU_TEX",1,41,2023-04-25T02:18:01+00:00,2.5641407966614,92,"updated stim.csv",Version92.csv,"Version 92","List 92",,,,,,,0,Instruct,,,"You will now be asked a few questions about your experience today.",,"Instruct 4",2420,,,-1,-1,,,,,1
