Username,ID,ExperimentName,Session,Trial,Date,TimeDif,"Condition Number","Stimuli File","Order File","Condition Description","Condition Notes",Stimuli*Cue,Stimuli*Answer,Stimuli*Shuffle,"Stimuli*Stimuli Notes",Stimuli*Value,Stimuli*Rand,Procedure*Item,"Procedure*Trial Type","Procedure*Max Time","Procedure*Min Time",Procedure*Text,"Procedure*Procedure Notes",Procedure*Shuffle,Response*RT,Response*Response,Response*Accuracy,Response*RTfirst,Response*RTlast,Response*strictAcc,Response*lenientAcc,Response*focus,Response*JOL,Response*Focus
m20317285LP,9ii6fpis4o,"Affordance Norms_MSU_TEX",1,1,2023-04-14T04:06:48+00:00,32.843564033508,53,"updated stim.csv",Version53.csv,"Version 53","List 53",,,,,,,0,Instruct,-,10,"In this section, you will be presented with a series of objects. Please name as many possible uses for this object as you can think of by typing them in the box below each object.",,Instruct1,32586,,,-1,-1,,,,,1
m20317285LP,9ii6fpis4o,"Affordance Norms_MSU_TEX",1,2,2023-04-14T04:07:30+00:00,41.632853984833,53,"updated stim.csv",Version53.csv,"Version 53","List 53",,,,,,,0,Instruct,-,10,"Please keep in mind that a single object will have more than one use. For example, a ball can be thrown or can be bounced or even stepped on. When listing multiple uses for one object, please separate each use with a comma (i.e., thrown, bounced, stepped on)",,Instruct2,41262,,,-1,-1,,,,,1
m20317285LP,9ii6fpis4o,"Affordance Norms_MSU_TEX",1,3,2023-04-14T04:07:33+00:00,3.4038910865784,53,"updated stim.csv",Version53.csv,"Version 53","List 53",,,,,,,0,Instruct,-,-,"Before starting the experiment, you will complete a short practice sesstion. Press ENTER when you are ready to begin.",,Instruct3,2990,,,-1,-1,,,,,1
m20317285LP,9ii6fpis4o,"Affordance Norms_MSU_TEX",1,4,2023-04-14T04:08:02+00:00,28.986196041107,53,"updated stim.csv",Version53.csv,"Version 53","List 53",grain,,3004,5.217391304,1143,0.226863762,3005,BOI,-,-,"Please name all of the ways you could use this object. Keep in mind that one object can have many uses. Separate your responses with a comma.",,n,28594,,,6560,15169,,,,"scale, cook, weigh, ",1
m20317285LP,9ii6fpis4o,"Affordance Norms_MSU_TEX",1,5,2023-04-14T04:08:27+00:00,24.97469496727,53,"updated stim.csv",Version53.csv,"Version 53","List 53",paperwork,,3001,5.625,1866,0.124284162,3002,BOI,-,-,"Please name all of the ways you could use this object. Keep in mind that one object can have many uses. Separate your responses with a comma.",,n,24606,,,3366,22730,,,,"shuffle, write, shred, photocopy, print, laminate",1
m20317285LP,9ii6fpis4o,"Affordance Norms_MSU_TEX",1,6,2023-04-14T04:09:07+00:00,40.207006931305,53,"updated stim.csv",Version53.csv,"Version 53","List 53",shortening,,3002,4.92,2358,0.604328482,3003,BOI,-,-,"Please name all of the ways you could use this object. Keep in mind that one object can have many uses. Separate your responses with a comma.",,n,39796,,,18874,37196,,,,"paper, trees, tires, distance, time, wood, ",1
m20317285LP,9ii6fpis4o,"Affordance Norms_MSU_TEX",1,7,2023-04-14T04:09:27+00:00,19.72376704216,53,"updated stim.csv",Version53.csv,"Version 53","List 53",spaghetti,,3003,6,2461,0.090379998,3004,BOI,-,-,"Please name all of the ways you could use this object. Keep in mind that one object can have many uses. Separate your responses with a comma.",,n,19306,,,1826,17974,,,,"cook, eat, boil, season, mix, strain, rinse",1
m20317285LP,9ii6fpis4o,"Affordance Norms_MSU_TEX",1,8,2023-04-14T04:10:15+00:00,47.96786904335,53,"updated stim.csv",Version53.csv,"Version 53","List 53",saucer,,3005,5.777777778,2249,0.304808074,3006,BOI,-,-,"Please name all of the ways you could use this object. Keep in mind that one object can have many uses. Separate your responses with a comma.",,n,47526,,,23318,45600,,,,"holder, throw, fly, dash, skim, break",1
m20317285LP,9ii6fpis4o,"Affordance Norms_MSU_TEX",1,9,2023-04-14T04:10:43+00:00,28.19389796257,53,"updated stim.csv",Version53.csv,"Version 53","List 53",,,,,,,0,Instruct,-,-,"You have completed this section. Press ENTER to continue",,"Instruct 5",27719,,,-1,-1,,,,,1
m20317285LP,9ii6fpis4o,"Affordance Norms_MSU_TEX",1,10,2023-04-14T04:11:03+00:00,19.788948059082,53,"updated stim.csv",Version53.csv,"Version 53","List 53",,,,,,,0,Instruct,-,-,"You will now start the full experiment. Press ENTER when you are ready to begin.",,,19337,,,-1,-1,,,,,1
m20317285LP,9ii6fpis4o,"Affordance Norms_MSU_TEX",1,11,2023-04-14T04:11:34+00:00,31.678452968597,53,"updated stim.csv",Version53.csv,"Version 53","List 53",napkin,,1579,6.333333333,1735,0.373360894,1580,BOI,-,-,"Please name all of the ways you could use this object. Keep in mind that one object can have many uses. Separate your responses with a comma.",,y,31316,,,1730,30105,,,,"wipe, rub, clean, scrub, fold, stack , box , place",1
m20317285LP,9ii6fpis4o,"Affordance Norms_MSU_TEX",1,12,2023-04-14T04:12:10+00:00,35.284322977066,53,"updated stim.csv",Version53.csv,"Version 53","List 53",speakers,,1565,4.92,2464,0.793357976,1566,BOI,-,-,"Please name all of the ways you could use this object. Keep in mind that one object can have many uses. Separate your responses with a comma.",,y,34825,,,5125,29478,,,,"listen, connect, play, turn up, amplify, elevate, ",1
m20317285LP,9ii6fpis4o,"Affordance Norms_MSU_TEX",1,13,2023-04-14T04:12:53+00:00,43.13593006134,53,"updated stim.csv",Version53.csv,"Version 53","List 53",rosemary,,1569,5.379310345,2196,0.621066276,1570,BOI,-,-,"Please name all of the ways you could use this object. Keep in mind that one object can have many uses. Separate your responses with a comma.",,y,42521,,,3886,41410,,,,"cook, seasoning, baste , plant, harvest",1
m20317285LP,9ii6fpis4o,"Affordance Norms_MSU_TEX",1,14,2023-04-14T04:13:32+00:00,38.682092905045,53,"updated stim.csv",Version53.csv,"Version 53","List 53",therapist,,1576,5.148148148,2675,0.001884193,1577,BOI,-,-,"Please name all of the ways you could use this object. Keep in mind that one object can have many uses. Separate your responses with a comma.",,y,38102,,,2267,36130,,,,"talk, listen, communicate, share, ask, suggest, cry, laugh, pay, hate, ",1
m20317285LP,9ii6fpis4o,"Affordance Norms_MSU_TEX",1,15,2023-04-14T04:14:01+00:00,29.405561923981,53,"updated stim.csv",Version53.csv,"Version 53","List 53",defendant,,1562,4.291666667,767,0.552160103,1563,BOI,-,-,"Please name all of the ways you could use this object. Keep in mind that one object can have many uses. Separate your responses with a comma.",,y,28911,,,10634,26719,,,,"argue, protect, speak, defend, communicate, plee",1
m20317285LP,9ii6fpis4o,"Affordance Norms_MSU_TEX",1,16,2023-04-14T04:14:46+00:00,44.91367816925,53,"updated stim.csv",Version53.csv,"Version 53","List 53",ammunition,,1567,4.592592593,35,0.761328422,1568,BOI,-,-,"Please name all of the ways you could use this object. Keep in mind that one object can have many uses. Separate your responses with a comma.",,y,44509,,,1821,40431,,,,"load, shoot, buy , sell, equip, carry, reload, drop, hurt, kill, damage, ",1
m20317285LP,9ii6fpis4o,"Affordance Norms_MSU_TEX",1,17,2023-04-14T04:15:02+00:00,16.0200548172,53,"updated stim.csv",Version53.csv,"Version 53","List 53",earwax,,1575,5.041666667,884,0.032697844,1576,BOI,-,-,"Please name all of the ways you could use this object. Keep in mind that one object can have many uses. Separate your responses with a comma.",,y,15612,,,2396,7263,,,,"burn, clean, ",1
m20317285LP,9ii6fpis4o,"Affordance Norms_MSU_TEX",1,18,2023-04-14T04:16:23+00:00,80.902876138687,53,"updated stim.csv",Version53.csv,"Version 53","List 53",graphite,,1580,4.590909091,1159,0.376220292,1581,BOI,-,-,"Please name all of the ways you could use this object. Keep in mind that one object can have many uses. Separate your responses with a comma.",,y,80391,,,2295,78684,,,,"pencils, sharpener, led, rocks, powder",1
m20317285LP,9ii6fpis4o,"Affordance Norms_MSU_TEX",1,19,2023-04-14T04:16:48+00:00,24.959402084351,53,"updated stim.csv",Version53.csv,"Version 53","List 53",excrement,,1577,4.56,926,0.697474729,1578,BOI,-,-,"Please name all of the ways you could use this object. Keep in mind that one object can have many uses. Separate your responses with a comma.",,y,24574,,,4958,23127,,,,"release, throw, remove, extract, furtalise",1
m20317285LP,9ii6fpis4o,"Affordance Norms_MSU_TEX",1,20,2023-04-14T04:17:24+00:00,36.709622859955,53,"updated stim.csv",Version53.csv,"Version 53","List 53",ham,,1581,5.541666667,1221,0.235296387,1582,BOI,-,-,"Please name all of the ways you could use this object. Keep in mind that one object can have many uses. Separate your responses with a comma.",,y,36367,,,3653,32825,,,,"eat, sell, cook, grind, shred, slice, decorate, ham, lace, season, create,",1
m20317285LP,9ii6fpis4o,"Affordance Norms_MSU_TEX",1,21,2023-04-14T04:18:00+00:00,35.442305088043,53,"updated stim.csv",Version53.csv,"Version 53","List 53",bankbook,,1587,5.363636364,143,0.142389759,1588,BOI,-,-,"Please name all of the ways you could use this object. Keep in mind that one object can have many uses. Separate your responses with a comma.",,y,35077,,,3289,33805,,,,"cheque, record, read, log, add, history, remind, handout, evidence, taxes",1
m20317285LP,9ii6fpis4o,"Affordance Norms_MSU_TEX",1,22,2023-04-14T04:18:53+00:00,52.665556907654,53,"updated stim.csv",Version53.csv,"Version 53","List 53",you,,1590,5.52,2996,0.764758473,1591,BOI,-,-,"Please name all of the ways you could use this object. Keep in mind that one object can have many uses. Separate your responses with a comma.",,y,52296,,,3641,50368,,,,"fight, eat, sleep, breathe, reproduce, work, run, jog, walk , sports, drive, fly, travel",1
m20317285LP,9ii6fpis4o,"Affordance Norms_MSU_TEX",1,23,2023-04-14T04:19:11+00:00,18.803102016449,53,"updated stim.csv",Version53.csv,"Version 53","List 53",bodyguard,,1570,4.72,262,0.675454743,1571,BOI,-,-,"Please name all of the ways you could use this object. Keep in mind that one object can have many uses. Separate your responses with a comma.",,y,18443,,,2561,16934,,,,"protect, safety, serve, rent, employ",1
m20317285LP,9ii6fpis4o,"Affordance Norms_MSU_TEX",1,24,2023-04-14T04:19:12+00:00,0.37647104263306,53,"updated stim.csv",Version53.csv,"Version 53","List 53",custard,,1574,4.956521739,734,0.504069649,1575,BOI,-,-,"Please name all of the ways you could use this object. Keep in mind that one object can have many uses. Separate your responses with a comma.",,y,169,,,-1,-1,,,,,1
m20317285LP,9ii6fpis4o,"Affordance Norms_MSU_TEX",1,25,2023-04-14T04:19:37+00:00,25.282016992569,53,"updated stim.csv",Version53.csv,"Version 53","List 53",planner,,1563,4.916666667,1988,0.860425002,1564,BOI,-,-,"Please name all of the ways you could use this object. Keep in mind that one object can have many uses. Separate your responses with a comma.",,y,24902,,,7202,23414,,,,"write, log, plan, help, schedule, hand out",1
m20317285LP,9ii6fpis4o,"Affordance Norms_MSU_TEX",1,26,2023-04-14T04:20:09+00:00,31.499523878098,53,"updated stim.csv",Version53.csv,"Version 53","List 53",bridesmaid,,1568,5.08,321,0.385259133,1569,BOI,-,-,"Please name all of the ways you could use this object. Keep in mind that one object can have many uses. Separate your responses with a comma.",,y,31121,,,7020,29863,,,,"organise, marry, help, speak, advise, arrange",1
m20317285LP,9ii6fpis4o,"Affordance Norms_MSU_TEX",1,27,2023-04-14T04:20:36+00:00,27.738334178925,53,"updated stim.csv",Version53.csv,"Version 53","List 53",mucus,,1585,4.88,1709,0.753104153,1586,BOI,-,-,"Please name all of the ways you could use this object. Keep in mind that one object can have many uses. Separate your responses with a comma.",,y,27347,,,1718,24836,,,,"spit, swallow, protect, blow out,",1
m20317285LP,9ii6fpis4o,"Affordance Norms_MSU_TEX",1,28,2023-04-14T04:21:32+00:00,55.338986873627,53,"updated stim.csv",Version53.csv,"Version 53","List 53",bifocal,,1584,4.9,211,0.712265709,1585,BOI,-,-,"Please name all of the ways you could use this object. Keep in mind that one object can have many uses. Separate your responses with a comma.",,y,54996,,,27331,47028,,,,"see, enhance, locate, help, attract, ",1
m20317285LP,9ii6fpis4o,"Affordance Norms_MSU_TEX",1,29,2023-04-14T04:22:05+00:00,32.997730016708,53,"updated stim.csv",Version53.csv,"Version 53","List 53",kids,,1571,6.44,1416,0.785210144,1572,BOI,-,-,"Please name all of the ways you could use this object. Keep in mind that one object can have many uses. Separate your responses with a comma.",,y,32638,,,7863,28813,,,,"train, grow, produce, fun, teach, happy, develop, ",1
m20317285LP,9ii6fpis4o,"Affordance Norms_MSU_TEX",1,30,2023-04-14T04:22:34+00:00,29.043044090271,53,"updated stim.csv",Version53.csv,"Version 53","List 53",publication,,1578,4.48,2085,0.51547676,1579,BOI,-,-,"Please name all of the ways you could use this object. Keep in mind that one object can have many uses. Separate your responses with a comma.",,y,28580,,,9807,27085,,,,"produce, spread words, money, job, share, inform, alert,",1
m20317285LP,9ii6fpis4o,"Affordance Norms_MSU_TEX",1,31,2023-04-14T04:22:53+00:00,19.730829000473,53,"updated stim.csv",Version53.csv,"Version 53","List 53",waistcoat,,1573,6.44,2882,0.686740903,1574,BOI,-,-,"Please name all of the ways you could use this object. Keep in mind that one object can have many uses. Separate your responses with a comma.",,y,19356,,,1636,17197,,,,"wear, look smart, dress, hang up, ",1
m20317285LP,9ii6fpis4o,"Affordance Norms_MSU_TEX",1,32,2023-04-14T04:23:30+00:00,36.970762968063,53,"updated stim.csv",Version53.csv,"Version 53","List 53",maiden,,1582,4.44,1575,0.930061812,1583,BOI,-,-,"Please name all of the ways you could use this object. Keep in mind that one object can have many uses. Separate your responses with a comma.",,y,36562,,,9780,34997,,,,"help, clean, cook, wash , dry, keep in tact , employ, ",1
m20317285LP,9ii6fpis4o,"Affordance Norms_MSU_TEX",1,33,2023-04-14T04:23:53+00:00,22.837154865265,53,"updated stim.csv",Version53.csv,"Version 53","List 53",cashmere,,1586,4.875,450,0.707715815,1587,BOI,-,-,"Please name all of the ways you could use this object. Keep in mind that one object can have many uses. Separate your responses with a comma.",,y,22369,,,2197,21203,,,,"sweater, eat, sow, knit, sell, buy",1
m20317285LP,9ii6fpis4o,"Affordance Norms_MSU_TEX",1,34,2023-04-14T04:24:22+00:00,28.865325212479,53,"updated stim.csv",Version53.csv,"Version 53","List 53",penknife,,1572,5.833333333,1915,0.274575435,1573,BOI,-,-,"Please name all of the ways you could use this object. Keep in mind that one object can have many uses. Separate your responses with a comma.",,y,28355,,,1469,26258,,,,"stab, kill, cut, protect, carry, prepare,spread",1
m20317285LP,9ii6fpis4o,"Affordance Norms_MSU_TEX",1,35,2023-04-14T04:25:07+00:00,44.496290922165,53,"updated stim.csv",Version53.csv,"Version 53","List 53",table,,1589,6.4,2616,0.393834668,1590,BOI,-,-,"Please name all of the ways you could use this object. Keep in mind that one object can have many uses. Separate your responses with a comma.",,y,43939,,,3839,39459,,,,"eat off, drink off, card games, break , tables ladders and chairs match, fold, set, ride on, stand on, ",1
m20317285LP,9ii6fpis4o,"Affordance Norms_MSU_TEX",1,36,2023-04-14T04:25:28+00:00,21.751147031784,53,"updated stim.csv",Version53.csv,"Version 53","List 53",cuttlefish,,1588,4.454545455,740,0.598069134,1589,BOI,-,-,"Please name all of the ways you could use this object. Keep in mind that one object can have many uses. Separate your responses with a comma.",,y,21048,,,3263,19965,,,,"eat, swim, catch , sell, buy, salt, throw, bait",1
m20317285LP,9ii6fpis4o,"Affordance Norms_MSU_TEX",1,37,2023-04-14T04:26:00+00:00,31.908702850342,53,"updated stim.csv",Version53.csv,"Version 53","List 53",trashcan,,1561,5.76,2765,0.487249114,1562,BOI,-,-,"Please name all of the ways you could use this object. Keep in mind that one object can have many uses. Separate your responses with a comma.",,y,31537,,,3635,29933,,,,"add, empty, set out, clean, kick, pour, ",1
m20317285LP,9ii6fpis4o,"Affordance Norms_MSU_TEX",1,38,2023-04-14T04:26:33+00:00,32.33776307106,53,"updated stim.csv",Version53.csv,"Version 53","List 53",gourd,,1566,5.208333333,1141,0.845290748,1567,BOI,-,-,"Please name all of the ways you could use this object. Keep in mind that one object can have many uses. Separate your responses with a comma.",,y,32058,,,15716,30142,,,,"eat, sell, throw, cut, spit, ",1
m20317285LP,9ii6fpis4o,"Affordance Norms_MSU_TEX",1,39,2023-04-14T04:27:03+00:00,30.036710977554,53,"updated stim.csv",Version53.csv,"Version 53","List 53",carrot,,1583,6.043478261,441,0.864993606,1584,BOI,-,-,"Please name all of the ways you could use this object. Keep in mind that one object can have many uses. Separate your responses with a comma.",,y,29682,,,2577,27860,,,,"feed, eat, buy , sell, craft, peel, ",1
m20317285LP,9ii6fpis4o,"Affordance Norms_MSU_TEX",1,40,2023-04-14T04:27:21+00:00,18.640599012375,53,"updated stim.csv",Version53.csv,"Version 53","List 53",slipper,,1564,6.166666667,2417,0.300014789,1565,BOI,-,-,"Please name all of the ways you could use this object. Keep in mind that one object can have many uses. Separate your responses with a comma.",,y,18303,,,1522,16733,,,,"smack, wear, throw, buy,",1
m20317285LP,9ii6fpis4o,"Affordance Norms_MSU_TEX",1,41,2023-04-14T04:27:25+00:00,3.4472551345825,53,"updated stim.csv",Version53.csv,"Version 53","List 53",,,,,,,0,Instruct,,,"You will now be asked a few questions about your experience today.",,"Instruct 4",3018,,,-1,-1,,,,,1
