Username,ID,ExperimentName,Session,Trial,Date,TimeDif,"Condition Number","Stimuli File","Order File","Condition Description","Condition Notes",Stimuli*Cue,Stimuli*Answer,Stimuli*Shuffle,"Stimuli*Stimuli Notes",Stimuli*Value,Stimuli*Rand,Procedure*Item,"Procedure*Trial Type","Procedure*Max Time","Procedure*Min Time",Procedure*Text,"Procedure*Procedure Notes",Procedure*Shuffle,Response*RT,Response*Response,Response*Accuracy,Response*RTfirst,Response*RTlast,Response*strictAcc,Response*lenientAcc,Response*focus,Response*JOL,Response*Focus
M20307736KR,geoljn8i3m,"Affordance Norms_MSU_TEX",1,1,2023-04-15T19:10:17+00:00,12.708107233047,62,"updated stim.csv",Version62.csv,"Version 62","List 62",,,,,,,0,Instruct,-,10,"In this section, you will be presented with a series of objects. Please name as many possible uses for this object as you can think of by typing them in the box below each object.",,Instruct1,12516,,,-1,-1,,,,,1
M20307736KR,geoljn8i3m,"Affordance Norms_MSU_TEX",1,2,2023-04-15T19:10:28+00:00,11.379034996033,62,"updated stim.csv",Version62.csv,"Version 62","List 62",,,,,,,0,Instruct,-,10,"Please keep in mind that a single object will have more than one use. For example, a ball can be thrown or can be bounced or even stepped on. When listing multiple uses for one object, please separate each use with a comma (i.e., thrown, bounced, stepped on)",,Instruct2,11123,,,-1,-1,,,,,1
M20307736KR,geoljn8i3m,"Affordance Norms_MSU_TEX",1,3,2023-04-15T19:10:34+00:00,5.8647909164429,62,"updated stim.csv",Version62.csv,"Version 62","List 62",,,,,,,0,Instruct,-,-,"Before starting the experiment, you will complete a short practice sesstion. Press ENTER when you are ready to begin.",,Instruct3,5622,,,-1,-1,,,,,1
M20307736KR,geoljn8i3m,"Affordance Norms_MSU_TEX",1,4,2023-04-15T19:11:36+00:00,61.457125902176,62,"updated stim.csv",Version62.csv,"Version 62","List 62",grain,,3004,5.217391304,1143,0.226863762,3005,BOI,-,-,"Please name all of the ways you could use this object. Keep in mind that one object can have many uses. Separate your responses with a comma.",,n,61212,,,28247,58844,,,,"salads, meals, soups, stuffing for meat",1
M20307736KR,geoljn8i3m,"Affordance Norms_MSU_TEX",1,5,2023-04-15T19:12:50+00:00,74.60972905159,62,"updated stim.csv",Version62.csv,"Version 62","List 62",shortening,,3002,4.92,2358,0.604328482,3003,BOI,-,-,"Please name all of the ways you could use this object. Keep in mind that one object can have many uses. Separate your responses with a comma.",,n,74128,,,20131,73077,,,,"baking, substituting it for butter",1
M20307736KR,geoljn8i3m,"Affordance Norms_MSU_TEX",1,6,2023-04-15T19:13:44+00:00,53.148844003677,62,"updated stim.csv",Version62.csv,"Version 62","List 62",paperwork,,3001,5.625,1866,0.124284162,3002,BOI,-,-,"Please name all of the ways you could use this object. Keep in mind that one object can have many uses. Separate your responses with a comma.",,n,52901,,,2450,50852,,,,"writing, keeping notes, drawing",1
M20307736KR,geoljn8i3m,"Affordance Norms_MSU_TEX",1,7,2023-04-15T19:13:54+00:00,10.361479043961,62,"updated stim.csv",Version62.csv,"Version 62","List 62",spaghetti,,3003,6,2461,0.090379998,3004,BOI,-,-,"Please name all of the ways you could use this object. Keep in mind that one object can have many uses. Separate your responses with a comma.",,n,10119,,,1992,6350,,,,"cooking, eating ",1
M20307736KR,geoljn8i3m,"Affordance Norms_MSU_TEX",1,8,2023-04-15T19:14:20+00:00,26.581403017044,62,"updated stim.csv",Version62.csv,"Version 62","List 62",saucer,,3005,5.777777778,2249,0.304808074,3006,BOI,-,-,"Please name all of the ways you could use this object. Keep in mind that one object can have many uses. Separate your responses with a comma.",,n,26341,,,23005,23770,,,,pasta,1
M20307736KR,geoljn8i3m,"Affordance Norms_MSU_TEX",1,9,2023-04-15T19:14:22+00:00,1.7026209831238,62,"updated stim.csv",Version62.csv,"Version 62","List 62",,,,,,,0,Instruct,-,-,"You have completed this section. Press ENTER to continue",,"Instruct 5",1552,,,-1,-1,,,,,1
M20307736KR,geoljn8i3m,"Affordance Norms_MSU_TEX",1,10,2023-04-15T19:14:24+00:00,1.9862229824066,62,"updated stim.csv",Version62.csv,"Version 62","List 62",,,,,,,0,Instruct,-,-,"You will now start the full experiment. Press ENTER when you are ready to begin.",,,1846,,,-1,-1,,,,,1
M20307736KR,geoljn8i3m,"Affordance Norms_MSU_TEX",1,11,2023-04-15T19:15:48+00:00,84.29730796814,62,"updated stim.csv",Version62.csv,"Version 62","List 62",hookers,,1853,5.08,1309,0.038086137,1854,BOI,-,-,"Please name all of the ways you could use this object. Keep in mind that one object can have many uses. Separate your responses with a comma.",,y,84054,,,75464,76673,,,,sex?,1
M20307736KR,geoljn8i3m,"Affordance Norms_MSU_TEX",1,12,2023-04-15T19:16:42+00:00,53.739277124405,62,"updated stim.csv",Version62.csv,"Version 62","List 62",weaponry,,1856,5,2915,0.043267068,1857,BOI,-,-,"Please name all of the ways you could use this object. Keep in mind that one object can have many uses. Separate your responses with a comma.",,y,53497,,,37299,42478,,,,"military, hunting ",1
M20307736KR,geoljn8i3m,"Affordance Norms_MSU_TEX",1,13,2023-04-15T19:17:17+00:00,35.133754968643,62,"updated stim.csv",Version62.csv,"Version 62","List 62",shingle,,1831,4.625,2341,0.575695646,1832,BOI,-,-,"Please name all of the ways you could use this object. Keep in mind that one object can have many uses. Separate your responses with a comma.",,y,34880,,,28687,32626,,,,"roof, house ",1
M20307736KR,geoljn8i3m,"Affordance Norms_MSU_TEX",1,14,2023-04-15T19:17:38+00:00,21.054785966873,62,"updated stim.csv",Version62.csv,"Version 62","List 62",beaker,,1855,5.416666667,180,0.721862353,1856,BOI,-,-,"Please name all of the ways you could use this object. Keep in mind that one object can have many uses. Separate your responses with a comma.",,y,20805,,,12569,17638,,,,"Science, measuring ",1
M20307736KR,geoljn8i3m,"Affordance Norms_MSU_TEX",1,15,2023-04-15T19:17:56+00:00,17.537220954895,62,"updated stim.csv",Version62.csv,"Version 62","List 62",coffee,,1836,5.538461538,592,0.10162462,1837,BOI,-,-,"Please name all of the ways you could use this object. Keep in mind that one object can have many uses. Separate your responses with a comma.",,y,17292,,,2267,6182,,,,"mug, drinking",1
M20307736KR,geoljn8i3m,"Affordance Norms_MSU_TEX",1,16,2023-04-15T19:18:39+00:00,43.185070037842,62,"updated stim.csv",Version62.csv,"Version 62","List 62",fish,,1850,5.592592593,989,0.021287722,1851,BOI,-,-,"Please name all of the ways you could use this object. Keep in mind that one object can have many uses. Separate your responses with a comma.",,y,42934,,,8047,40413,,,,"catching, eating, decoration ",1
M20307736KR,geoljn8i3m,"Affordance Norms_MSU_TEX",1,17,2023-04-15T19:19:45+00:00,65.556923866272,62,"updated stim.csv",Version62.csv,"Version 62","List 62",dressmaker,,1837,4.875,846,0.56333446,1838,BOI,-,-,"Please name all of the ways you could use this object. Keep in mind that one object can have many uses. Separate your responses with a comma.",,y,65312,,,31462,60066,,,,"sewing machine?",1
M20307736KR,geoljn8i3m,"Affordance Norms_MSU_TEX",1,18,2023-04-15T19:21:07+00:00,82.175867080688,62,"updated stim.csv",Version62.csv,"Version 62","List 62",tourniquet,,1839,4.956521739,2745,0.067069767,1840,BOI,-,-,"Please name all of the ways you could use this object. Keep in mind that one object can have many uses. Separate your responses with a comma.",,y,81923,,,56593,80442,,,,"first aid, stop bleeding",1
M20307736KR,geoljn8i3m,"Affordance Norms_MSU_TEX",1,19,2023-04-15T19:23:51+00:00,164.54568600655,62,"updated stim.csv",Version62.csv,"Version 62","List 62",heads,,1844,4.28,1272,0.346752524,1845,BOI,-,-,"Please name all of the ways you could use this object. Keep in mind that one object can have many uses. Separate your responses with a comma.",,y,164289,,,159808,162748,,,,"sharing ideas",1
M20307736KR,geoljn8i3m,"Affordance Norms_MSU_TEX",1,20,2023-04-15T19:24:07+00:00,15.713078975677,62,"updated stim.csv",Version62.csv,"Version 62","List 62",sweatband,,1860,6.041666667,2603,0.370117836,1861,BOI,-,-,"Please name all of the ways you could use this object. Keep in mind that one object can have many uses. Separate your responses with a comma.",,y,15461,,,3722,10856,,,,"sports, catch sweat",1
M20307736KR,geoljn8i3m,"Affordance Norms_MSU_TEX",1,21,2023-04-15T19:24:58+00:00,50.703894138336,62,"updated stim.csv",Version62.csv,"Version 62","List 62",bistro,,1832,4.518518519,226,0.266151381,1833,BOI,-,-,"Please name all of the ways you could use this object. Keep in mind that one object can have many uses. Separate your responses with a comma.",,y,50451,,,23696,47045,,,,"Restaurant ",1
M20307736KR,geoljn8i3m,"Affordance Norms_MSU_TEX",1,22,2023-04-15T19:25:36+00:00,38.606182813644,62,"updated stim.csv",Version62.csv,"Version 62","List 62",tuna,,1857,4.916666667,2797,0.252862233,1858,BOI,-,-,"Please name all of the ways you could use this object. Keep in mind that one object can have many uses. Separate your responses with a comma.",,y,38349,,,2018,36983,,,,"sandwhiches, meals, lunches",1
M20307736KR,geoljn8i3m,"Affordance Norms_MSU_TEX",1,23,2023-04-15T19:26:15+00:00,38.149628162384,62,"updated stim.csv",Version62.csv,"Version 62","List 62",antique,,1858,4.423076923,50,0.737049157,1859,BOI,-,-,"Please name all of the ways you could use this object. Keep in mind that one object can have many uses. Separate your responses with a comma.",,y,37889,,,19488,25059,,,,"art, furniture",1
M20307736KR,geoljn8i3m,"Affordance Norms_MSU_TEX",1,24,2023-04-15T19:26:46+00:00,31.178154945374,62,"updated stim.csv",Version62.csv,"Version 62","List 62",shopper,,1846,4.541666667,2354,0.086521622,1847,BOI,-,-,"Please name all of the ways you could use this object. Keep in mind that one object can have many uses. Separate your responses with a comma.",,y,30917,,,12015,29202,,,,"Groceries, clothes, shoes, toys",1
M20307736KR,geoljn8i3m,"Affordance Norms_MSU_TEX",1,25,2023-04-15T19:27:20+00:00,34.294363975525,62,"updated stim.csv",Version62.csv,"Version 62","List 62",husk,,1841,4.304347826,1339,0.813667226,1842,BOI,-,-,"Please name all of the ways you could use this object. Keep in mind that one object can have many uses. Separate your responses with a comma.",,y,34046,,,23715,32315,,,,"wrappers for food",1
M20307736KR,geoljn8i3m,"Affordance Norms_MSU_TEX",1,26,2023-04-15T19:27:47+00:00,26.962385892868,62,"updated stim.csv",Version62.csv,"Version 62","List 62",gingerbread,,1835,5.48,1105,0.086538967,1836,BOI,-,-,"Please name all of the ways you could use this object. Keep in mind that one object can have many uses. Separate your responses with a comma.",,y,26713,,,2432,11495,,,,"cookie, house, food, seasoning ",1
M20307736KR,geoljn8i3m,"Affordance Norms_MSU_TEX",1,27,2023-04-15T19:28:13+00:00,26.223670005798,62,"updated stim.csv",Version62.csv,"Version 62","List 62",lifebuoy,,1847,4.260869565,1505,0.626818545,1848,BOI,-,-,"Please name all of the ways you could use this object. Keep in mind that one object can have many uses. Separate your responses with a comma.",,y,25973,,,21659,24587,,,,soap,1
M20307736KR,geoljn8i3m,"Affordance Norms_MSU_TEX",1,28,2023-04-15T19:28:23+00:00,9.9612021446228,62,"updated stim.csv",Version62.csv,"Version 62","List 62",dictionary,,1851,6.04,790,0.142711561,1852,BOI,-,-,"Please name all of the ways you could use this object. Keep in mind that one object can have many uses. Separate your responses with a comma.",,y,9717,,,2593,8564,,,,"words, definitions ",1
M20307736KR,geoljn8i3m,"Affordance Norms_MSU_TEX",1,29,2023-04-15T19:29:10+00:00,46.602499008179,62,"updated stim.csv",Version62.csv,"Version 62","List 62",scotch,,1852,5.4,2281,0.068387276,1853,BOI,-,-,"Please name all of the ways you could use this object. Keep in mind that one object can have many uses. Separate your responses with a comma.",,y,46348,,,16420,41753,,,,"tape, whiskey ",1
M20307736KR,geoljn8i3m,"Affordance Norms_MSU_TEX",1,30,2023-04-15T19:29:42+00:00,31.932061910629,62,"updated stim.csv",Version62.csv,"Version 62","List 62",tinderbox,,1834,4.958333333,2702,0.83776024,1835,BOI,-,-,"Please name all of the ways you could use this object. Keep in mind that one object can have many uses. Separate your responses with a comma.",,y,31679,,,21089,28218,,,,"kindle a fire",1
M20307736KR,geoljn8i3m,"Affordance Norms_MSU_TEX",1,31,2023-04-15T19:30:08+00:00,26.374315977097,62,"updated stim.csv",Version62.csv,"Version 62","List 62",rope,,1854,6.2,2192,0.92769485,1855,BOI,-,-,"Please name all of the ways you could use this object. Keep in mind that one object can have many uses. Separate your responses with a comma.",,y,26129,,,1862,17554,,,,"climbing, tying things together",1
M20307736KR,geoljn8i3m,"Affordance Norms_MSU_TEX",1,32,2023-04-15T19:30:32+00:00,23.49068403244,62,"updated stim.csv",Version62.csv,"Version 62","List 62",rose,,1859,5.76,2194,0.446710875,1860,BOI,-,-,"Please name all of the ways you could use this object. Keep in mind that one object can have many uses. Separate your responses with a comma.",,y,23237,,,8136,19565,,,,"Bouquet of flowers, pedals",1
M20307736KR,geoljn8i3m,"Affordance Norms_MSU_TEX",1,33,2023-04-15T19:31:31+00:00,59.77281498909,62,"updated stim.csv",Version62.csv,"Version 62","List 62",burlap,,1843,5.333333333,367,0.714399014,1844,BOI,-,-,"Please name all of the ways you could use this object. Keep in mind that one object can have many uses. Separate your responses with a comma.",,y,59521,,,35541,54539,,,,"nets, sandbags, camouflage ",1
M20307736KR,geoljn8i3m,"Affordance Norms_MSU_TEX",1,34,2023-04-15T19:32:13+00:00,41.795753955841,62,"updated stim.csv",Version62.csv,"Version 62","List 62",pedometer,,1838,5.681818182,1904,0.404973688,1839,BOI,-,-,"Please name all of the ways you could use this object. Keep in mind that one object can have many uses. Separate your responses with a comma.",,y,41540,,,31302,39885,,,,"measure number of steps",1
M20307736KR,geoljn8i3m,"Affordance Norms_MSU_TEX",1,35,2023-04-15T19:33:07+00:00,53.708157062531,62,"updated stim.csv",Version62.csv,"Version 62","List 62",cleavers,,1840,5.48,554,0.531713648,1841,BOI,-,-,"Please name all of the ways you could use this object. Keep in mind that one object can have many uses. Separate your responses with a comma.",,y,53448,,,39489,48113,,,,"knife, cuts through animals",1
M20307736KR,geoljn8i3m,"Affordance Norms_MSU_TEX",1,36,2023-04-15T19:33:21+00:00,14.642528057098,62,"updated stim.csv",Version62.csv,"Version 62","List 62",track,,1845,4.916666667,2751,0.091398052,1846,BOI,-,-,"Please name all of the ways you could use this object. Keep in mind that one object can have many uses. Separate your responses with a comma.",,y,14382,,,1459,11133,,,,"running, walking, jumping",1
M20307736KR,geoljn8i3m,"Affordance Norms_MSU_TEX",1,37,2023-04-15T19:33:46+00:00,24.063309907913,62,"updated stim.csv",Version62.csv,"Version 62","List 62",mantel,,1842,5,1595,0.899141268,1843,BOI,-,-,"Please name all of the ways you could use this object. Keep in mind that one object can have many uses. Separate your responses with a comma.",,y,23805,,,4190,16538,,,,"hanging TV, hanging pictures ",1
M20307736KR,geoljn8i3m,"Affordance Norms_MSU_TEX",1,38,2023-04-15T19:34:18+00:00,32.812633037567,62,"updated stim.csv",Version62.csv,"Version 62","List 62",booklet,,1833,5.5,275,0.179367431,1834,BOI,-,-,"Please name all of the ways you could use this object. Keep in mind that one object can have many uses. Separate your responses with a comma.",,y,32563,,,16452,30770,,,,"Programs ",1
M20307736KR,geoljn8i3m,"Affordance Norms_MSU_TEX",1,39,2023-04-15T19:34:46+00:00,27.395122051239,62,"updated stim.csv",Version62.csv,"Version 62","List 62",crankshaft,,1848,4.666666667,682,0.492233898,1849,BOI,-,-,"Please name all of the ways you could use this object. Keep in mind that one object can have many uses. Separate your responses with a comma.",,y,27140,,,21005,23816,,,,"Im not sure",1
M20307736KR,geoljn8i3m,"Affordance Norms_MSU_TEX",1,40,2023-04-15T19:35:16+00:00,29.801383018494,62,"updated stim.csv",Version62.csv,"Version 62","List 62",museum,,1849,4.333333333,1722,0.455905801,1850,BOI,-,-,"Please name all of the ways you could use this object. Keep in mind that one object can have many uses. Separate your responses with a comma.",,y,29548,,,4051,28027,,,,"art, pictures, sculptures, famous items ",1
M20307736KR,geoljn8i3m,"Affordance Norms_MSU_TEX",1,41,2023-04-15T19:35:19+00:00,3.1450760364532,62,"updated stim.csv",Version62.csv,"Version 62","List 62",,,,,,,0,Instruct,,,"You will now be asked a few questions about your experience today.",,"Instruct 4",2989,,,-1,-1,,,,,1
