Username,ID,ExperimentName,Session,Trial,Date,TimeDif,"Condition Number","Stimuli File","Order File","Condition Description","Condition Notes",Stimuli*Cue,Stimuli*Answer,Stimuli*Shuffle,"Stimuli*Stimuli Notes",Stimuli*Value,Stimuli*Rand,Procedure*Item,"Procedure*Trial Type","Procedure*Max Time","Procedure*Min Time",Procedure*Text,"Procedure*Procedure Notes",Procedure*Shuffle,Response*RT,Response*Response,Response*Accuracy,Response*RTfirst,Response*RTlast,Response*strictAcc,Response*lenientAcc,Response*focus,Response*JOL,Response*Focus
M20312621_rt,n6wnxr06s8,"Affordance Norms_MSU_TEX",1,1,2023-04-18T00:59:10+00:00,35.070773124695,64,"updated stim.csv",Version64.csv,"Version 64","List 64",,,,,,,0,Instruct,-,10,"In this section, you will be presented with a series of objects. Please name as many possible uses for this object as you can think of by typing them in the box below each object.",,Instruct1,34920,,,-1,-1,,,,,1
M20312621_rt,n6wnxr06s8,"Affordance Norms_MSU_TEX",1,2,2023-04-18T00:59:54+00:00,43.575448036194,64,"updated stim.csv",Version64.csv,"Version 64","List 64",,,,,,,0,Instruct,-,10,"Please keep in mind that a single object will have more than one use. For example, a ball can be thrown or can be bounced or even stepped on. When listing multiple uses for one object, please separate each use with a comma (i.e., thrown, bounced, stepped on)",,Instruct2,43161,,,-1,-1,,,,,1
M20312621_rt,n6wnxr06s8,"Affordance Norms_MSU_TEX",1,3,2023-04-18T00:59:54+00:00,0.86603498458862,64,"updated stim.csv",Version64.csv,"Version 64","List 64",,,,,,,0,Instruct,-,-,"Before starting the experiment, you will complete a short practice sesstion. Press ENTER when you are ready to begin.",,Instruct3,739,,,-1,-1,,,,,1
M20312621_rt,n6wnxr06s8,"Affordance Norms_MSU_TEX",1,4,2023-04-18T01:00:17+00:00,22.384141921997,64,"updated stim.csv",Version64.csv,"Version 64","List 64",spaghetti,,3003,6,2461,0.090379998,3004,BOI,-,-,"Please name all of the ways you could use this object. Keep in mind that one object can have many uses. Separate your responses with a comma.",,n,22178,,,5338,8617,,,,"cook, eat",1
M20312621_rt,n6wnxr06s8,"Affordance Norms_MSU_TEX",1,5,2023-04-18T01:02:31+00:00,134.21575307846,64,"updated stim.csv",Version64.csv,"Version 64","List 64",saucer,,3005,5.777777778,2249,0.304808074,3006,BOI,-,-,"Please name all of the ways you could use this object. Keep in mind that one object can have many uses. Separate your responses with a comma.",,n,134009,,,117792,128431,,,,"hold sauces, protect table",0.836
M20312621_rt,n6wnxr06s8,"Affordance Norms_MSU_TEX",1,6,2023-04-18T01:02:49+00:00,17.860669851303,64,"updated stim.csv",Version64.csv,"Version 64","List 64",paperwork,,3001,5.625,1866,0.124284162,3002,BOI,-,-,"Please name all of the ways you could use this object. Keep in mind that one object can have many uses. Separate your responses with a comma.",,n,17658,,,7370,17177,,,,"write, read, study",1
M20312621_rt,n6wnxr06s8,"Affordance Norms_MSU_TEX",1,7,2023-04-18T01:04:51+00:00,122.14813399315,64,"updated stim.csv",Version64.csv,"Version 64","List 64",shortening,,3002,4.92,2358,0.604328482,3003,BOI,-,-,"Please name all of the ways you could use this object. Keep in mind that one object can have many uses. Separate your responses with a comma.",,n,121947,,,80523,105210,,,,"editing a video, shortening a sentence",0.893
M20312621_rt,n6wnxr06s8,"Affordance Norms_MSU_TEX",1,8,2023-04-18T01:06:09+00:00,77.59916305542,64,"updated stim.csv",Version64.csv,"Version 64","List 64",grain,,3004,5.217391304,1143,0.226863762,3005,BOI,-,-,"Please name all of the ways you could use this object. Keep in mind that one object can have many uses. Separate your responses with a comma.",,n,77396,,,13723,75435,,,,"effect on picture, feed livestock, manufacture",0.943
M20312621_rt,n6wnxr06s8,"Affordance Norms_MSU_TEX",1,9,2023-04-18T01:06:10+00:00,1.6778628826141,64,"updated stim.csv",Version64.csv,"Version 64","List 64",,,,,,,0,Instruct,-,-,"You have completed this section. Press ENTER to continue",,"Instruct 5",1547,,,-1,-1,,,,,1
M20312621_rt,n6wnxr06s8,"Affordance Norms_MSU_TEX",1,10,2023-04-18T01:06:14+00:00,3.9428820610046,64,"updated stim.csv",Version64.csv,"Version 64","List 64",,,,,,,0,Instruct,-,-,"You will now start the full experiment. Press ENTER when you are ready to begin.",,,3818,,,-1,-1,,,,,1
M20312621_rt,n6wnxr06s8,"Affordance Norms_MSU_TEX",1,11,2023-04-18T01:07:12+00:00,58.033810138702,64,"updated stim.csv",Version64.csv,"Version 64","List 64",ford,,1901,4.416666667,1042,0.046718248,1902,BOI,-,-,"Please name all of the ways you could use this object. Keep in mind that one object can have many uses. Separate your responses with a comma.",,y,57846,,,10567,54974,,,,drive,0.973
M20312621_rt,n6wnxr06s8,"Affordance Norms_MSU_TEX",1,12,2023-04-18T01:08:10+00:00,57.554162979126,64,"updated stim.csv",Version64.csv,"Version 64","List 64",broiler,,1893,5.25,329,0.802308747,1894,BOI,-,-,"Please name all of the ways you could use this object. Keep in mind that one object can have many uses. Separate your responses with a comma.",,y,57328,,,56119,56606,,,,cook,0.386
M20312621_rt,n6wnxr06s8,"Affordance Norms_MSU_TEX",1,13,2023-04-18T01:08:26+00:00,15.884891033173,64,"updated stim.csv",Version64.csv,"Version 64","List 64",cat,,1909,5.913043478,455,0.657958036,1910,BOI,-,-,"Please name all of the ways you could use this object. Keep in mind that one object can have many uses. Separate your responses with a comma.",,y,15658,,,8913,14865,,,,"run around, pet, protector",1
M20312621_rt,n6wnxr06s8,"Affordance Norms_MSU_TEX",1,14,2023-04-18T01:08:57+00:00,31.511974811554,64,"updated stim.csv",Version64.csv,"Version 64","List 64",hinge,,1894,4.333333333,1290,0.661863514,1895,BOI,-,-,"Please name all of the ways you could use this object. Keep in mind that one object can have many uses. Separate your responses with a comma.",,y,31313,,,17143,30982,,,,"door, connect",0.712
M20312621_rt,n6wnxr06s8,"Affordance Norms_MSU_TEX",1,15,2023-04-18T01:09:25+00:00,27.82849407196,64,"updated stim.csv",Version64.csv,"Version 64","List 64",opal,,1903,4.6,1810,0.037359721,1904,BOI,-,-,"Please name all of the ways you could use this object. Keep in mind that one object can have many uses. Separate your responses with a comma.",,y,27630,,,14542,22685,,,,"jewlery, cover book ",0.898
M20312621_rt,n6wnxr06s8,"Affordance Norms_MSU_TEX",1,16,2023-04-18T01:10:07+00:00,42.071173906326,64,"updated stim.csv",Version64.csv,"Version 64","List 64",larvae,,1920,4.375,1466,0.07829608,1921,BOI,-,-,"Please name all of the ways you could use this object. Keep in mind that one object can have many uses. Separate your responses with a comma.",,y,41707,,,26187,41227,,,,"food, protein",0.628
M20312621_rt,n6wnxr06s8,"Affordance Norms_MSU_TEX",1,17,2023-04-18T01:10:49+00:00,42.198085069656,64,"updated stim.csv",Version64.csv,"Version 64","List 64",strings,,1916,5.260869565,2569,0.130011958,1917,BOI,-,-,"Please name all of the ways you could use this object. Keep in mind that one object can have many uses. Separate your responses with a comma.",,y,41996,,,7540,40988,,,,"guitar, tie",1
M20312621_rt,n6wnxr06s8,"Affordance Norms_MSU_TEX",1,18,2023-04-18T01:10:54+00:00,4.4263150691986,64,"updated stim.csv",Version64.csv,"Version 64","List 64",lime,,1908,5.52,1512,0.812077309,1909,BOI,-,-,"Please name all of the ways you could use this object. Keep in mind that one object can have many uses. Separate your responses with a comma.",,y,4293,,,2013,4244,,,,"eat, drink'",1
M20312621_rt,n6wnxr06s8,"Affordance Norms_MSU_TEX",1,19,2023-04-18T01:11:02+00:00,8.4956650733948,64,"updated stim.csv",Version64.csv,"Version 64","List 64",dormitory,,1895,4.821428571,831,0.7958209,1896,BOI,-,-,"Please name all of the ways you could use this object. Keep in mind that one object can have many uses. Separate your responses with a comma.",,y,8307,,,1755,7321,,,,"sleep, home, room",1
M20312621_rt,n6wnxr06s8,"Affordance Norms_MSU_TEX",1,20,2023-04-18T01:11:22+00:00,20.171445846558,64,"updated stim.csv",Version64.csv,"Version 64","List 64",hotel,,1899,5.695652174,1322,0.942897944,1900,BOI,-,-,"Please name all of the ways you could use this object. Keep in mind that one object can have many uses. Separate your responses with a comma.",,y,19975,,,1543,19462,,,,"sleep, room, vacation",1
M20312621_rt,n6wnxr06s8,"Affordance Norms_MSU_TEX",1,21,2023-04-18T01:11:43+00:00,21.021847963333,64,"updated stim.csv",Version64.csv,"Version 64","List 64",butterscotch,,1914,4.769230769,378,0.066806623,1915,BOI,-,-,"Please name all of the ways you could use this object. Keep in mind that one object can have many uses. Separate your responses with a comma.",,y,20825,,,11297,17992,,,,"eat, make food",0.918
M20312621_rt,n6wnxr06s8,"Affordance Norms_MSU_TEX",1,22,2023-04-18T01:11:59+00:00,15.572630167007,64,"updated stim.csv",Version64.csv,"Version 64","List 64",pastrami,,1917,5.142857143,1885,0.139713598,1918,BOI,-,-,"Please name all of the ways you could use this object. Keep in mind that one object can have many uses. Separate your responses with a comma.",,y,15342,,,5389,13412,,,,"eat, sandwiches",0.973
M20312621_rt,n6wnxr06s8,"Affordance Norms_MSU_TEX",1,23,2023-04-18T01:12:11+00:00,11.524816036224,64,"updated stim.csv",Version64.csv,"Version 64","List 64",megaphone,,1915,6.2,1640,0.900017946,1916,BOI,-,-,"Please name all of the ways you could use this object. Keep in mind that one object can have many uses. Separate your responses with a comma.",,y,11320,,,3246,11054,,,,"talk, yell, loud",1
M20312621_rt,n6wnxr06s8,"Affordance Norms_MSU_TEX",1,24,2023-04-18T01:12:34+00:00,23.887147903442,64,"updated stim.csv",Version64.csv,"Version 64","List 64",godfather,,1913,5.043478261,1127,0.838890084,1914,BOI,-,-,"Please name all of the ways you could use this object. Keep in mind that one object can have many uses. Separate your responses with a comma.",,y,23621,,,6125,22860,,,,"caring, father figure",1
M20312621_rt,n6wnxr06s8,"Affordance Norms_MSU_TEX",1,25,2023-04-18T01:12:53+00:00,18.882745027542,64,"updated stim.csv",Version64.csv,"Version 64","List 64",backdoor,,1907,5.2,114,0.295879486,1908,BOI,-,-,"Please name all of the ways you could use this object. Keep in mind that one object can have many uses. Separate your responses with a comma.",,y,18677,,,16085,18204,,,,"open, close",0.745
M20312621_rt,n6wnxr06s8,"Affordance Norms_MSU_TEX",1,26,2023-04-18T01:13:01+00:00,7.4571039676666,64,"updated stim.csv",Version64.csv,"Version 64","List 64",garlic,,1896,6.32,1080,0.116666583,1897,BOI,-,-,"Please name all of the ways you could use this object. Keep in mind that one object can have many uses. Separate your responses with a comma.",,y,7317,,,3821,5925,,,,"eat, cook",0.969
M20312621_rt,n6wnxr06s8,"Affordance Norms_MSU_TEX",1,27,2023-04-18T01:13:26+00:00,25.023088932037,64,"updated stim.csv",Version64.csv,"Version 64","List 64",stilt,,1918,4.652173913,2536,0.000468556,1919,BOI,-,-,"Please name all of the ways you could use this object. Keep in mind that one object can have many uses. Separate your responses with a comma.",,y,24828,,,21124,24068,,,,"height, balance",0.66
M20312621_rt,n6wnxr06s8,"Affordance Norms_MSU_TEX",1,28,2023-04-18T01:13:53+00:00,27.058331012726,64,"updated stim.csv",Version64.csv,"Version 64","List 64",catapult,,1912,4.84,457,0.582681483,1913,BOI,-,-,"Please name all of the ways you could use this object. Keep in mind that one object can have many uses. Separate your responses with a comma.",,y,26831,,,21558,26191,,,,"launch, sling",0.71
M20312621_rt,n6wnxr06s8,"Affordance Norms_MSU_TEX",1,29,2023-04-18T01:14:11+00:00,17.774634122849,64,"updated stim.csv",Version64.csv,"Version 64","List 64",taillight,,1911,5,2625,0.193503332,1912,BOI,-,-,"Please name all of the ways you could use this object. Keep in mind that one object can have many uses. Separate your responses with a comma.",,y,17573,,,13349,17436,,,,"drive, reverse",0.833
M20312621_rt,n6wnxr06s8,"Affordance Norms_MSU_TEX",1,30,2023-04-18T01:14:28+00:00,17.710770845413,64,"updated stim.csv",Version64.csv,"Version 64","List 64",riverbank,,1902,4.64,2173,0.717028164,1903,BOI,-,-,"Please name all of the ways you could use this object. Keep in mind that one object can have many uses. Separate your responses with a comma.",,y,17506,,,14186,16393,,,,"home, habitat",0.739
M20312621_rt,n6wnxr06s8,"Affordance Norms_MSU_TEX",1,31,2023-04-18T01:15:03+00:00,34.236638069153,64,"updated stim.csv",Version64.csv,"Version 64","List 64",ambulance,,1891,5,33,0.013539162,1892,BOI,-,-,"Please name all of the ways you could use this object. Keep in mind that one object can have many uses. Separate your responses with a comma.",,y,34010,,,2482,33273,,,,"help, transportation",1
M20312621_rt,n6wnxr06s8,"Affordance Norms_MSU_TEX",1,32,2023-04-18T01:15:14+00:00,11.065161943436,64,"updated stim.csv",Version64.csv,"Version 64","List 64",liquor,,1900,5.961538462,1525,0.708007667,1901,BOI,-,-,"Please name all of the ways you could use this object. Keep in mind that one object can have many uses. Separate your responses with a comma.",,y,10822,,,1542,10485,,,,"drink, influence",1
M20312621_rt,n6wnxr06s8,"Affordance Norms_MSU_TEX",1,33,2023-04-18T01:15:53+00:00,38.839812994003,64,"updated stim.csv",Version64.csv,"Version 64","List 64",footboard,,1897,5.086956522,1033,0.996271972,1898,BOI,-,-,"Please name all of the ways you could use this object. Keep in mind that one object can have many uses. Separate your responses with a comma.",,y,38631,,,24895,38423,,,,"keep feet up, blankets and sheet dont touch",0.927
M20312621_rt,n6wnxr06s8,"Affordance Norms_MSU_TEX",1,34,2023-04-18T01:16:25+00:00,32.044289112091,64,"updated stim.csv",Version64.csv,"Version 64","List 64",hairline,,1919,4.92,1213,0.200192672,1920,BOI,-,-,"Please name all of the ways you could use this object. Keep in mind that one object can have many uses. Separate your responses with a comma.",,y,31837,,,14613,30499,,,,"cut hair, protect forehead, shapes apperance",1
M20312621_rt,n6wnxr06s8,"Affordance Norms_MSU_TEX",1,35,2023-04-18T01:16:53+00:00,28.239871025085,64,"updated stim.csv",Version64.csv,"Version 64","List 64",asphalt,,1892,5.384615385,86,0.66434608,1893,BOI,-,-,"Please name all of the ways you could use this object. Keep in mind that one object can have many uses. Separate your responses with a comma.",,y,28036,,,11291,27619,,,,"seal, waterproof, road surfacing",0.927
M20312621_rt,n6wnxr06s8,"Affordance Norms_MSU_TEX",1,36,2023-04-18T01:17:04+00:00,10.747021913528,64,"updated stim.csv",Version64.csv,"Version 64","List 64",bourbon,,1905,5.173913043,290,0.067892243,1906,BOI,-,-,"Please name all of the ways you could use this object. Keep in mind that one object can have many uses. Separate your responses with a comma.",,y,10548,,,1795,9107,,,,"drink, liquor, influence",1
M20312621_rt,n6wnxr06s8,"Affordance Norms_MSU_TEX",1,37,2023-04-18T01:17:25+00:00,21.858644962311,64,"updated stim.csv",Version64.csv,"Version 64","List 64",guardhouse,,1906,4.28,1185,0.359257949,1907,BOI,-,-,"Please name all of the ways you could use this object. Keep in mind that one object can have many uses. Separate your responses with a comma.",,y,21659,,,14027,20218,,,,"shelter, room",0.878
M20312621_rt,n6wnxr06s8,"Affordance Norms_MSU_TEX",1,38,2023-04-18T01:17:51+00:00,25.239372014999,64,"updated stim.csv",Version64.csv,"Version 64","List 64",tool,,1898,6.304347826,2730,0.976235348,1899,BOI,-,-,"Please name all of the ways you could use this object. Keep in mind that one object can have many uses. Separate your responses with a comma.",,y,25012,,,4685,23828,,,,"repair, break",1
M20312621_rt,n6wnxr06s8,"Affordance Norms_MSU_TEX",1,39,2023-04-18T01:18:39+00:00,48.047490119934,64,"updated stim.csv",Version64.csv,"Version 64","List 64",sideboard,,1910,5.222222222,2374,0.847312474,1911,BOI,-,-,"Please name all of the ways you could use this object. Keep in mind that one object can have many uses. Separate your responses with a comma.",,y,47846,,,16510,47686,,,,"hold plates, store items, dresser",0.916
M20312621_rt,n6wnxr06s8,"Affordance Norms_MSU_TEX",1,40,2023-04-18T01:18:58+00:00,18.875581979752,64,"updated stim.csv",Version64.csv,"Version 64","List 64",cafeteria,,1904,4.8,397,0.801950942,1905,BOI,-,-,"Please name all of the ways you could use this object. Keep in mind that one object can have many uses. Separate your responses with a comma.",,y,18650,,,1723,17553,,,,"eat, lunch, breakfast, hold events",1
M20312621_rt,n6wnxr06s8,"Affordance Norms_MSU_TEX",1,41,2023-04-18T01:19:04+00:00,6.1983249187469,64,"updated stim.csv",Version64.csv,"Version 64","List 64",,,,,,,0,Instruct,,,"You will now be asked a few questions about your experience today.",,"Instruct 4",6059,,,-1,-1,,,,,1
