Username,ID,ExperimentName,Session,Trial,Date,TimeDif,"Condition Number","Stimuli File","Order File","Condition Description","Condition Notes",Stimuli*Cue,Stimuli*Answer,Stimuli*Shuffle,"Stimuli*Stimuli Notes",Stimuli*Value,Stimuli*Rand,Procedure*Item,"Procedure*Trial Type","Procedure*Max Time","Procedure*Min Time",Procedure*Text,"Procedure*Procedure Notes",Procedure*Shuffle,Response*RT,Response*Response,Response*Accuracy,Response*RTfirst,Response*RTlast,Response*strictAcc,Response*lenientAcc,Response*focus,Response*JOL,Response*Focus
M20248064MJN,bjb0cz7ns6,"Affordance Norms_MSU_TEX",1,1,2023-04-12T18:25:54+00:00,16.21456694603,39,"updated stim.csv",Version39.csv,"Version 39","List 39",,,,,,,0,Instruct,-,10,"In this section, you will be presented with a series of objects. Please name as many possible uses for this object as you can think of by typing them in the box below each object.",,Instruct1,16029,,,-1,-1,,,,,1
M20248064MJN,bjb0cz7ns6,"Affordance Norms_MSU_TEX",1,2,2023-04-12T18:26:08+00:00,14.027024030685,39,"updated stim.csv",Version39.csv,"Version 39","List 39",,,,,,,0,Instruct,-,10,"Please keep in mind that a single object will have more than one use. For example, a ball can be thrown or can be bounced or even stepped on. When listing multiple uses for one object, please separate each use with a comma (i.e., thrown, bounced, stepped on)",,Instruct2,13762,,,-1,-1,,,,,1
M20248064MJN,bjb0cz7ns6,"Affordance Norms_MSU_TEX",1,3,2023-04-12T18:26:15+00:00,6.4743149280548,39,"updated stim.csv",Version39.csv,"Version 39","List 39",,,,,,,0,Instruct,-,-,"Before starting the experiment, you will complete a short practice sesstion. Press ENTER when you are ready to begin.",,Instruct3,6215,,,-1,-1,,,,,1
M20248064MJN,bjb0cz7ns6,"Affordance Norms_MSU_TEX",1,4,2023-04-12T18:27:14+00:00,59.134104013443,39,"updated stim.csv",Version39.csv,"Version 39","List 39",saucer,,3005,5.777777778,2249,0.304808074,3006,BOI,-,-,"Please name all of the ways you could use this object. Keep in mind that one object can have many uses. Separate your responses with a comma.",,n,58865,,,19226,57893,,,,"Sauce, shake, mix, spin",1
M20248064MJN,bjb0cz7ns6,"Affordance Norms_MSU_TEX",1,5,2023-04-12T18:28:10+00:00,56.017993211746,39,"updated stim.csv",Version39.csv,"Version 39","List 39",spaghetti,,3003,6,2461,0.090379998,3004,BOI,-,-,"Please name all of the ways you could use this object. Keep in mind that one object can have many uses. Separate your responses with a comma.",,n,55741,,,12434,51183,,,,"Eat, cook, throw, stir",1
M20248064MJN,bjb0cz7ns6,"Affordance Norms_MSU_TEX",1,6,2023-04-12T18:29:15+00:00,65.075409889221,39,"updated stim.csv",Version39.csv,"Version 39","List 39",paperwork,,3001,5.625,1866,0.124284162,3002,BOI,-,-,"Please name all of the ways you could use this object. Keep in mind that one object can have many uses. Separate your responses with a comma.",,n,64801,,,3603,49134,,,,"Crumble, tear, shred, throw ",1
M20248064MJN,bjb0cz7ns6,"Affordance Norms_MSU_TEX",1,7,2023-04-12T18:30:03+00:00,47.885552883148,39,"updated stim.csv",Version39.csv,"Version 39","List 39",shortening,,3002,4.92,2358,0.604328482,3003,BOI,-,-,"Please name all of the ways you could use this object. Keep in mind that one object can have many uses. Separate your responses with a comma.",,n,47604,,,17526,21944,,,,Measure,1
M20248064MJN,bjb0cz7ns6,"Affordance Norms_MSU_TEX",1,8,2023-04-12T18:30:48+00:00,45.42718911171,39,"updated stim.csv",Version39.csv,"Version 39","List 39",grain,,3004,5.217391304,1143,0.226863762,3005,BOI,-,-,"Please name all of the ways you could use this object. Keep in mind that one object can have many uses. Separate your responses with a comma.",,n,45147,,,7478,43765,,,,"Grain, separate, group ",1
M20248064MJN,bjb0cz7ns6,"Affordance Norms_MSU_TEX",1,9,2023-04-12T18:30:52+00:00,3.0118379592896,39,"updated stim.csv",Version39.csv,"Version 39","List 39",,,,,,,0,Instruct,-,-,"You have completed this section. Press ENTER to continue",,"Instruct 5",2833,,,-1,-1,,,,,1
M20248064MJN,bjb0cz7ns6,"Affordance Norms_MSU_TEX",1,10,2023-04-12T18:31:00+00:00,8.8100891113281,39,"updated stim.csv",Version39.csv,"Version 39","List 39",,,,,,,0,Instruct,-,-,"You will now start the full experiment. Press ENTER when you are ready to begin.",,,8569,,,-1,-1,,,,,1
M20248064MJN,bjb0cz7ns6,"Affordance Norms_MSU_TEX",1,11,2023-04-12T18:31:42+00:00,42.021806001663,39,"updated stim.csv",Version39.csv,"Version 39","List 39",flesh,,1160,4.782608696,1007,0.578571778,1161,BOI,-,-,"Please name all of the ways you could use this object. Keep in mind that one object can have many uses. Separate your responses with a comma.",,y,41743,,,8112,34691,,,,"Eat, burn, stab, tear",1
M20248064MJN,bjb0cz7ns6,"Affordance Norms_MSU_TEX",1,12,2023-04-12T18:32:27+00:00,44.560835838318,39,"updated stim.csv",Version39.csv,"Version 39","List 39",mailbag,,1161,5.041666667,1578,0.385259124,1162,BOI,-,-,"Please name all of the ways you could use this object. Keep in mind that one object can have many uses. Separate your responses with a comma.",,y,44293,,,6049,34073,,,,"Wear, organize",1
M20248064MJN,bjb0cz7ns6,"Affordance Norms_MSU_TEX",1,13,2023-04-12T18:34:29+00:00,122.0767121315,39,"updated stim.csv",Version39.csv,"Version 39","List 39",manhole,,1170,4.72,1589,0.475856617,1171,BOI,-,-,"Please name all of the ways you could use this object. Keep in mind that one object can have many uses. Separate your responses with a comma.",,y,121808,,,112652,121374,,,,"Decorate ",1
M20248064MJN,bjb0cz7ns6,"Affordance Norms_MSU_TEX",1,14,2023-04-12T18:34:57+00:00,27.88769698143,39,"updated stim.csv",Version39.csv,"Version 39","List 39",traveler,,1147,4.714285714,2766,0.7663085,1148,BOI,-,-,"Please name all of the ways you could use this object. Keep in mind that one object can have many uses. Separate your responses with a comma.",,y,27615,,,8653,9954,,,,Guide,1
M20248064MJN,bjb0cz7ns6,"Affordance Norms_MSU_TEX",1,15,2023-04-12T18:35:46+00:00,48.713976860046,39,"updated stim.csv",Version39.csv,"Version 39","List 39",garden,,1157,5.913043478,1076,0.285606366,1158,BOI,-,-,"Please name all of the ways you could use this object. Keep in mind that one object can have many uses. Separate your responses with a comma.",,y,48432,,,4300,46952,,,,"Grow, decorate, organize ",1
M20248064MJN,bjb0cz7ns6,"Affordance Norms_MSU_TEX",1,16,2023-04-12T18:36:54+00:00,68.397050142288,39,"updated stim.csv",Version39.csv,"Version 39","List 39",honey,,1154,5.434782609,1302,0.722168612,1155,BOI,-,-,"Please name all of the ways you could use this object. Keep in mind that one object can have many uses. Separate your responses with a comma.",,y,68123,,,26004,61656,,,,"Eat, collect, sell, drink ",1
M20248064MJN,bjb0cz7ns6,"Affordance Norms_MSU_TEX",1,17,2023-04-12T18:37:38+00:00,44.247938871384,39,"updated stim.csv",Version39.csv,"Version 39","List 39",tower,,1155,4.307692308,2747,0.015012916,1156,BOI,-,-,"Please name all of the ways you could use this object. Keep in mind that one object can have many uses. Separate your responses with a comma.",,y,43979,,,17106,39871,,,,"Protect, cover, lookout",1
M20248064MJN,bjb0cz7ns6,"Affordance Norms_MSU_TEX",1,18,2023-04-12T18:37:58+00:00,19.37701010704,39,"updated stim.csv",Version39.csv,"Version 39","List 39",dandruff,,1150,4.72,756,0.553084418,1151,BOI,-,-,"Please name all of the ways you could use this object. Keep in mind that one object can have many uses. Separate your responses with a comma.",,y,19105,,,5041,15252,,,,"Clean, get rid of",1
M20248064MJN,bjb0cz7ns6,"Affordance Norms_MSU_TEX",1,19,2023-04-12T18:39:16+00:00,78.492966890335,39,"updated stim.csv",Version39.csv,"Version 39","List 39",washer,,1145,5.518518519,2899,0.109488877,1146,BOI,-,-,"Please name all of the ways you could use this object. Keep in mind that one object can have many uses. Separate your responses with a comma.",,y,78226,,,6080,16044,,,,"Wash clothes, shoes ",1
M20248064MJN,bjb0cz7ns6,"Affordance Norms_MSU_TEX",1,20,2023-04-12T18:40:05+00:00,48.898188114166,39,"updated stim.csv",Version39.csv,"Version 39","List 39",gatehouse,,1169,4.464285714,1086,0.030067495,1170,BOI,-,-,"Please name all of the ways you could use this object. Keep in mind that one object can have many uses. Separate your responses with a comma.",,y,48624,,,33416,44730,,,,"Clean, decorate, organize ",1
M20248064MJN,bjb0cz7ns6,"Affordance Norms_MSU_TEX",1,21,2023-04-12T18:40:39+00:00,33.904484987259,39,"updated stim.csv",Version39.csv,"Version 39","List 39",swamp,,1159,4.52173913,2602,0.862310009,1160,BOI,-,-,"Please name all of the ways you could use this object. Keep in mind that one object can have many uses. Separate your responses with a comma.",,y,33617,,,7635,22081,,,,"Boat, fish, kill, swim",1
M20248064MJN,bjb0cz7ns6,"Affordance Norms_MSU_TEX",1,22,2023-04-12T18:41:32+00:00,53.295689105988,39,"updated stim.csv",Version39.csv,"Version 39","List 39",comic,,1162,4.88,608,0.52906397,1163,BOI,-,-,"Please name all of the ways you could use this object. Keep in mind that one object can have many uses. Separate your responses with a comma.",,y,53023,,,3268,49804,,,,"Read, explore, imagine ",1
M20248064MJN,bjb0cz7ns6,"Affordance Norms_MSU_TEX",1,23,2023-04-12T18:41:56+00:00,23.447540998459,39,"updated stim.csv",Version39.csv,"Version 39","List 39",poncho,,1144,5.458333333,2028,0.48079427,1145,BOI,-,-,"Please name all of the ways you could use this object. Keep in mind that one object can have many uses. Separate your responses with a comma.",,y,23176,,,2851,22518,,,,"Wear, style, cover ",1
M20248064MJN,bjb0cz7ns6,"Affordance Norms_MSU_TEX",1,24,2023-04-12T18:42:14+00:00,18.461681842804,39,"updated stim.csv",Version39.csv,"Version 39","List 39",harpist,,1151,4.304347826,1254,0.244143745,1152,BOI,-,-,"Please name all of the ways you could use this object. Keep in mind that one object can have many uses. Separate your responses with a comma.",,y,18195,,,3265,5292,,,,Play,1
M20248064MJN,bjb0cz7ns6,"Affordance Norms_MSU_TEX",1,25,2023-04-12T18:42:35+00:00,21.152611017227,39,"updated stim.csv",Version39.csv,"Version 39","List 39",skateboarder,,1158,4.739130435,2391,0.644910022,1159,BOI,-,-,"Please name all of the ways you could use this object. Keep in mind that one object can have many uses. Separate your responses with a comma.",,y,20876,,,12397,13780,,,,Ride,1
M20248064MJN,bjb0cz7ns6,"Affordance Norms_MSU_TEX",1,26,2023-04-12T18:42:44+00:00,8.6942050457001,39,"updated stim.csv",Version39.csv,"Version 39","List 39",crisps,,1166,5.130434783,696,0.102907541,1167,BOI,-,-,"Please name all of the ways you could use this object. Keep in mind that one object can have many uses. Separate your responses with a comma.",,y,8435,,,2390,5176,,,,"Eat,",1
M20248064MJN,bjb0cz7ns6,"Affordance Norms_MSU_TEX",1,27,2023-04-12T18:42:57+00:00,13.150146007538,39,"updated stim.csv",Version39.csv,"Version 39","List 39",ceramic,,1168,4.62962963,479,0.127971874,1169,BOI,-,-,"Please name all of the ways you could use this object. Keep in mind that one object can have many uses. Separate your responses with a comma.",,y,12885,,,8397,12381,,,,N/a,1
M20248064MJN,bjb0cz7ns6,"Affordance Norms_MSU_TEX",1,28,2023-04-12T18:43:06+00:00,8.5123820304871,39,"updated stim.csv",Version39.csv,"Version 39","List 39",genitals,,1152,6.130434783,1097,0.400051234,1153,BOI,-,-,"Please name all of the ways you could use this object. Keep in mind that one object can have many uses. Separate your responses with a comma.",,y,8251,,,5876,7367,,,,"Protect ",1
M20248064MJN,bjb0cz7ns6,"Affordance Norms_MSU_TEX",1,29,2023-04-12T18:43:15+00:00,9.2412528991699,39,"updated stim.csv",Version39.csv,"Version 39","List 39",matchstick,,1141,6.103448276,1622,0.667470628,1142,BOI,-,-,"Please name all of the ways you could use this object. Keep in mind that one object can have many uses. Separate your responses with a comma.",,y,8989,,,4534,5068,,,,"Fire ",1
M20248064MJN,bjb0cz7ns6,"Affordance Norms_MSU_TEX",1,30,2023-04-12T18:43:23+00:00,7.8567509651184,39,"updated stim.csv",Version39.csv,"Version 39","List 39",viewfinder,,1143,4.916666667,2857,0.571709017,1144,BOI,-,-,"Please name all of the ways you could use this object. Keep in mind that one object can have many uses. Separate your responses with a comma.",,y,7592,,,3517,6598,,,,Lookout,1
M20248064MJN,bjb0cz7ns6,"Affordance Norms_MSU_TEX",1,31,2023-04-12T18:43:57+00:00,33.979325056076,39,"updated stim.csv",Version39.csv,"Version 39","List 39",clubhouse,,1148,4.28,577,0.604371348,1149,BOI,-,-,"Please name all of the ways you could use this object. Keep in mind that one object can have many uses. Separate your responses with a comma.",,y,33714,,,1799,20846,,,,"Party, movies, pool",1
M20248064MJN,bjb0cz7ns6,"Affordance Norms_MSU_TEX",1,32,2023-04-12T18:44:15+00:00,18.222545146942,39,"updated stim.csv",Version39.csv,"Version 39","List 39",ink,,1153,5.56,1356,0.607533326,1154,BOI,-,-,"Please name all of the ways you could use this object. Keep in mind that one object can have many uses. Separate your responses with a comma.",,y,17932,,,6356,17576,,,,"Color, print, tattoo ",1
M20248064MJN,bjb0cz7ns6,"Affordance Norms_MSU_TEX",1,33,2023-04-12T18:44:24+00:00,9.1625227928162,39,"updated stim.csv",Version39.csv,"Version 39","List 39",dart,,1146,5.291666667,758,0.688744371,1147,BOI,-,-,"Please name all of the ways you could use this object. Keep in mind that one object can have many uses. Separate your responses with a comma.",,y,8879,,,2309,8122,,,,"Throw ",1
M20248064MJN,bjb0cz7ns6,"Affordance Norms_MSU_TEX",1,34,2023-04-12T18:44:33+00:00,8.899188041687,39,"updated stim.csv",Version39.csv,"Version 39","List 39",quadriceps,,1164,4.5,2109,0.927418534,1165,BOI,-,-,"Please name all of the ways you could use this object. Keep in mind that one object can have many uses. Separate your responses with a comma.",,y,8636,,,3062,7999,,,,"Flex, stretch ",1
M20248064MJN,bjb0cz7ns6,"Affordance Norms_MSU_TEX",1,35,2023-04-12T18:44:48+00:00,15.447801113129,39,"updated stim.csv",Version39.csv,"Version 39","List 39",chambermaid,,1156,4.727272727,492,0.587976201,1157,BOI,-,-,"Please name all of the ways you could use this object. Keep in mind that one object can have many uses. Separate your responses with a comma.",,y,15180,,,12285,13345,,,,"Clean ",1
M20248064MJN,bjb0cz7ns6,"Affordance Norms_MSU_TEX",1,36,2023-04-12T18:45:01+00:00,12.569103002548,39,"updated stim.csv",Version39.csv,"Version 39","List 39",ass,,1167,5.304347826,87,0.128366314,1168,BOI,-,-,"Please name all of the ways you could use this object. Keep in mind that one object can have many uses. Separate your responses with a comma.",,y,12256,,,2829,11847,,,,"Sit ",1
M20248064MJN,bjb0cz7ns6,"Affordance Norms_MSU_TEX",1,37,2023-04-12T18:46:00+00:00,58.719280004501,39,"updated stim.csv",Version39.csv,"Version 39","List 39",house,,1163,5.782608696,1326,0.505567762,1164,BOI,-,-,"Please name all of the ways you could use this object. Keep in mind that one object can have many uses. Separate your responses with a comma.",,y,58366,,,2773,57881,,,,"Protect, burn ",1
M20248064MJN,bjb0cz7ns6,"Affordance Norms_MSU_TEX",1,38,2023-04-12T18:46:27+00:00,27.424293994904,39,"updated stim.csv",Version39.csv,"Version 39","List 39",butter,,1142,6.217391304,375,0.147818284,1143,BOI,-,-,"Please name all of the ways you could use this object. Keep in mind that one object can have many uses. Separate your responses with a comma.",,y,27150,,,6424,26740,,,,"Slice, eat, cook, melt, drink ",1
M20248064MJN,bjb0cz7ns6,"Affordance Norms_MSU_TEX",1,39,2023-04-12T18:46:38+00:00,11.303354024887,39,"updated stim.csv",Version39.csv,"Version 39","List 39",tote,,1165,4.28,2742,0.381020449,1166,BOI,-,-,"Please name all of the ways you could use this object. Keep in mind that one object can have many uses. Separate your responses with a comma.",,y,11040,,,3069,9598,,,,N/a,1
M20248064MJN,bjb0cz7ns6,"Affordance Norms_MSU_TEX",1,40,2023-04-12T18:46:47+00:00,8.652007818222,39,"updated stim.csv",Version39.csv,"Version 39","List 39",buttermilk,,1149,4.826086957,377,0.710224765,1150,BOI,-,-,"Please name all of the ways you could use this object. Keep in mind that one object can have many uses. Separate your responses with a comma.",,y,8393,,,3014,7700,,,,"Drink, eat ",1
M20248064MJN,bjb0cz7ns6,"Affordance Norms_MSU_TEX",1,41,2023-04-12T18:46:50+00:00,2.908919095993,39,"updated stim.csv",Version39.csv,"Version 39","List 39",,,,,,,0,Instruct,,,"You will now be asked a few questions about your experience today.",,"Instruct 4",2738,,,-1,-1,,,,,1
