Username,ID,ExperimentName,Session,Trial,Date,TimeDif,"Condition Number","Stimuli File","Order File","Condition Description","Condition Notes",Stimuli*Cue,Stimuli*Answer,Stimuli*Shuffle,"Stimuli*Stimuli Notes",Stimuli*Value,Stimuli*Rand,Procedure*Item,"Procedure*Trial Type","Procedure*Max Time","Procedure*Min Time",Procedure*Text,"Procedure*Procedure Notes",Procedure*Shuffle,Response*RT,Response*Response,Response*Accuracy,Response*RTfirst,Response*RTlast,Response*strictAcc,Response*lenientAcc,Response*focus,Response*JOL,Response*Focus
M20315939_rln,ilzkpvd3qp,"Affordance Norms_MSU_TEX",1,1,2023-05-01T18:48:15+00:00,51.812176942825,12,"updated stim.csv",Version12.csv,"Version 12","List 12",,,,,,,0,Instruct,-,10,"In this section, you will be presented with a series of objects. Please name as many possible uses for this object as you can think of by typing them in the box below each object.",,Instruct1,51701,,,-1,-1,,,,,0.598
M20315939_rln,ilzkpvd3qp,"Affordance Norms_MSU_TEX",1,2,2023-05-01T18:48:32+00:00,16.955394029617,12,"updated stim.csv",Version12.csv,"Version 12","List 12",,,,,,,0,Instruct,-,10,"Please keep in mind that a single object will have more than one use. For example, a ball can be thrown or can be bounced or even stepped on. When listing multiple uses for one object, please separate each use with a comma (i.e., thrown, bounced, stepped on)",,Instruct2,13905,,,-1,-1,,,,,1
M20315939_rln,ilzkpvd3qp,"Affordance Norms_MSU_TEX",1,3,2023-05-01T18:48:40+00:00,7.9782199859619,12,"updated stim.csv",Version12.csv,"Version 12","List 12",,,,,,,0,Instruct,-,-,"Before starting the experiment, you will complete a short practice sesstion. Press ENTER when you are ready to begin.",,Instruct3,7478,,,-1,-1,,,,,1
M20315939_rln,ilzkpvd3qp,"Affordance Norms_MSU_TEX",1,4,2023-05-01T18:50:24+00:00,104.46309399605,12,"updated stim.csv",Version12.csv,"Version 12","List 12",saucer,,3005,5.777777778,2249,0.304808074,3006,BOI,-,-,"Please name all of the ways you could use this object. Keep in mind that one object can have many uses. Separate your responses with a comma.",,n,104185,,,44683,99936,,,,"hold, food, drink, plants, candle, ",1
M20315939_rln,ilzkpvd3qp,"Affordance Norms_MSU_TEX",1,5,2023-05-01T18:52:17+00:00,112.15112686157,12,"updated stim.csv",Version12.csv,"Version 12","List 12",shortening,,3002,4.92,2358,0.604328482,3003,BOI,-,-,"Please name all of the ways you could use this object. Keep in mind that one object can have many uses. Separate your responses with a comma.",,n,111849,,,84412,110749,,,,"baking, frying, butter, moisturizer, ",0.947
M20315939_rln,ilzkpvd3qp,"Affordance Norms_MSU_TEX",1,6,2023-05-01T18:54:22+00:00,125.41016221046,12,"updated stim.csv",Version12.csv,"Version 12","List 12",spaghetti,,3003,6,2461,0.090379998,3004,BOI,-,-,"Please name all of the ways you could use this object. Keep in mind that one object can have many uses. Separate your responses with a comma.",,n,125095,,,57095,124542,,,,"boiled, meatballs, pesto, casseroles, soup, appetizer, kebabs , ",1
M20315939_rln,ilzkpvd3qp,"Affordance Norms_MSU_TEX",1,7,2023-05-01T18:55:34+00:00,72.328074932098,12,"updated stim.csv",Version12.csv,"Version 12","List 12",paperwork,,3001,5.625,1866,0.124284162,3002,BOI,-,-,"Please name all of the ways you could use this object. Keep in mind that one object can have many uses. Separate your responses with a comma.",,n,72067,,,14940,67631,,,,"filing, homework, notes, origami, drawing, paper crafts, sketching",1
M20315939_rln,ilzkpvd3qp,"Affordance Norms_MSU_TEX",1,8,2023-05-01T18:56:31+00:00,56.531363964081,12,"updated stim.csv",Version12.csv,"Version 12","List 12",grain,,3004,5.217391304,1143,0.226863762,3005,BOI,-,-,"Please name all of the ways you could use this object. Keep in mind that one object can have many uses. Separate your responses with a comma.",,n,56323,,,14012,55814,,,,"bread, pasta, cereal, soup, stews, granola, energy bars",1
M20315939_rln,ilzkpvd3qp,"Affordance Norms_MSU_TEX",1,9,2023-05-01T18:56:35+00:00,4.0653920173645,12,"updated stim.csv",Version12.csv,"Version 12","List 12",,,,,,,0,Instruct,-,-,"You have completed this section. Press ENTER to continue",,"Instruct 5",3885,,,-1,-1,,,,,1
M20315939_rln,ilzkpvd3qp,"Affordance Norms_MSU_TEX",1,10,2023-05-01T18:56:39+00:00,4.0493960380554,12,"updated stim.csv",Version12.csv,"Version 12","List 12",,,,,,,0,Instruct,-,-,"You will now start the full experiment. Press ENTER when you are ready to begin.",,,3899,,,-1,-1,,,,,1
M20315939_rln,ilzkpvd3qp,"Affordance Norms_MSU_TEX",1,11,2023-05-01T18:59:03+00:00,143.61406087875,12,"updated stim.csv",Version12.csv,"Version 12","List 12",closet,,348,4.962962963,567,0.361293617,349,BOI,-,-,"Please name all of the ways you could use this object. Keep in mind that one object can have many uses. Separate your responses with a comma.",,y,143284,,,99222,138295,,,,"storages, clothes, shoes, accessories, towels, linens, cleaning supplies, books, ",1
M20315939_rln,ilzkpvd3qp,"Affordance Norms_MSU_TEX",1,12,2023-05-01T18:59:50+00:00,47.022264957428,12,"updated stim.csv",Version12.csv,"Version 12","List 12",dairy,,335,4.28,750,0.234031096,336,BOI,-,-,"Please name all of the ways you could use this object. Keep in mind that one object can have many uses. Separate your responses with a comma.",,y,46837,,,22988,42943,,,,"cheese, milk, yogurt, ice cream, baking, cooking, ",1
M20315939_rln,ilzkpvd3qp,"Affordance Norms_MSU_TEX",1,13,2023-05-01T19:01:01+00:00,70.918431997299,12,"updated stim.csv",Version12.csv,"Version 12","List 12",hip,,341,5.086956522,1291,0.796894413,342,BOI,-,-,"Please name all of the ways you could use this object. Keep in mind that one object can have many uses. Separate your responses with a comma.",,y,70629,,,23137,70266,,,,"human body, leg, standing, walking, running, physical activities, dance, yoga",1
M20315939_rln,ilzkpvd3qp,"Affordance Norms_MSU_TEX",1,14,2023-05-01T19:01:48+00:00,47.261872053146,12,"updated stim.csv",Version12.csv,"Version 12","List 12",someone,,357,4.625,2450,0.34986421,358,BOI,-,-,"Please name all of the ways you could use this object. Keep in mind that one object can have many uses. Separate your responses with a comma.",,y,46431,,,7629,45630,,,,"human, teacher, nurse, doctor, parent, sister, brother, mom, dad",1
M20315939_rln,ilzkpvd3qp,"Affordance Norms_MSU_TEX",1,15,2023-05-01T19:02:37+00:00,48.729122161865,12,"updated stim.csv",Version12.csv,"Version 12","List 12",ruby,,332,4.76,2202,0.999381206,333,BOI,-,-,"Please name all of the ways you could use this object. Keep in mind that one object can have many uses. Separate your responses with a comma.",,y,48476,,,19821,44638,,,,"jewerly, decorative, medicines",0.996
M20315939_rln,ilzkpvd3qp,"Affordance Norms_MSU_TEX",1,16,2023-05-01T19:08:11+00:00,334.19064378738,12,"updated stim.csv",Version12.csv,"Version 12","List 12",String,,334,5.626180837,2568,0.200879423,335,BOI,-,-,"Please name all of the ways you could use this object. Keep in mind that one object can have many uses. Separate your responses with a comma.",,y,333917,,,189731,331942,,,,"necklace, Fishing rod, Wool, Crossbows ",0.988
M20315939_rln,ilzkpvd3qp,"Affordance Norms_MSU_TEX",1,17,2023-05-01T19:11:17+00:00,186.16889500618,12,"updated stim.csv",Version12.csv,"Version 12","List 12",man,,352,5.346153846,1586,0.963710737,353,BOI,-,-,"Please name all of the ways you could use this object. Keep in mind that one object can have many uses. Separate your responses with a comma.",,y,185824,,,153458,167780,,,,"human, boy, male, teacher, doctor, ",1
M20315939_rln,ilzkpvd3qp,"Affordance Norms_MSU_TEX",1,18,2023-05-01T19:16:36+00:00,319.10869216919,12,"updated stim.csv",Version12.csv,"Version 12","List 12",bystander,,331,4.791666667,384,0.176677262,332,BOI,-,-,"Please name all of the ways you could use this object. Keep in mind that one object can have many uses. Separate your responses with a comma.",,y,318810,,,235835,311533,,,,"witness, ",0.993
M20315939_rln,ilzkpvd3qp,"Affordance Norms_MSU_TEX",1,19,2023-05-01T19:18:21+00:00,104.8286588192,12,"updated stim.csv",Version12.csv,"Version 12","List 12",beet,,345,5.32,193,0.704074452,346,BOI,-,-,"Please name all of the ways you could use this object. Keep in mind that one object can have many uses. Separate your responses with a comma.",,y,104382,,,23248,83047,,,,"cooking, roasted, boiled, pickled, salads, soups, stews, ",1
M20315939_rln,ilzkpvd3qp,"Affordance Norms_MSU_TEX",1,20,2023-05-01T19:20:28+00:00,126.73512601852,12,"updated stim.csv",Version12.csv,"Version 12","List 12",dock,,336,4.541666667,808,0.423772685,337,BOI,-,-,"Please name all of the ways you could use this object. Keep in mind that one object can have many uses. Separate your responses with a comma.",,y,126410,,,62713,125595,,,,"electronic devices, boats, ships",1
M20315939_rln,ilzkpvd3qp,"Affordance Norms_MSU_TEX",1,21,2023-05-01T19:21:38+00:00,70.179159164429,12,"updated stim.csv",Version12.csv,"Version 12","List 12",mall,,340,4.36,1582,0.724230565,341,BOI,-,-,"Please name all of the ways you could use this object. Keep in mind that one object can have many uses. Separate your responses with a comma.",,y,69916,,,14841,69472,,,,"shopping center, clothes, electronics, movies, arcade, games",1
M20315939_rln,ilzkpvd3qp,"Affordance Norms_MSU_TEX",1,22,2023-05-01T19:22:50+00:00,72.238411903381,12,"updated stim.csv",Version12.csv,"Version 12","List 12",cobweb,,359,4.916666667,584,0.98810054,360,BOI,-,-,"Please name all of the ways you could use this object. Keep in mind that one object can have many uses. Separate your responses with a comma.",,y,71949,,,18882,71247,,,,"spiderwebs, decoration, spooky",1
M20315939_rln,ilzkpvd3qp,"Affordance Norms_MSU_TEX",1,23,2023-05-01T19:23:42+00:00,52.519187927246,12,"updated stim.csv",Version12.csv,"Version 12","List 12",mayonnaise,,342,5.523809524,1628,0.940541237,343,BOI,-,-,"Please name all of the ways you could use this object. Keep in mind that one object can have many uses. Separate your responses with a comma.",,y,52317,,,17972,51389,,,,"condiment, sandwiches, burgers, salad dressing, dips",1
M20315939_rln,ilzkpvd3qp,"Affordance Norms_MSU_TEX",1,24,2023-05-01T19:26:34+00:00,171.51118206978,12,"updated stim.csv",Version12.csv,"Version 12","List 12",pinkie,,355,5.260869565,1974,0.365615857,356,BOI,-,-,"Please name all of the ways you could use this object. Keep in mind that one object can have many uses. Separate your responses with a comma.",,y,171220,,,147280,169027,,,,"nickname, smallest finger",0.942
M20315939_rln,ilzkpvd3qp,"Affordance Norms_MSU_TEX",1,25,2023-05-01T19:27:19+00:00,45.326924085617,12,"updated stim.csv",Version12.csv,"Version 12","List 12",bass,,337,4.37037037,164,0.261790448,338,BOI,-,-,"Please name all of the ways you could use this object. Keep in mind that one object can have many uses. Separate your responses with a comma.",,y,45143,,,8487,40148,,,,"fish, protein, musical instrument",1
M20315939_rln,ilzkpvd3qp,"Affordance Norms_MSU_TEX",1,26,2023-05-01T19:28:33+00:00,73.83168888092,12,"updated stim.csv",Version12.csv,"Version 12","List 12",fungus,,346,4.32,1064,0.562088746,347,BOI,-,-,"Please name all of the ways you could use this object. Keep in mind that one object can have many uses. Separate your responses with a comma.",,y,71682,,,25435,68300,,,,"organism, mushrooms, medicines",1
M20315939_rln,ilzkpvd3qp,"Affordance Norms_MSU_TEX",1,27,2023-05-01T19:29:11+00:00,37.799963951111,12,"updated stim.csv",Version12.csv,"Version 12","List 12",toddler,,349,5.875,2714,0.989271668,350,BOI,-,-,"Please name all of the ways you could use this object. Keep in mind that one object can have many uses. Separate your responses with a comma.",,y,37483,,,15763,36442,,,,"young child, care, attention, caregivers",1
M20315939_rln,ilzkpvd3qp,"Affordance Norms_MSU_TEX",1,28,2023-05-01T19:30:12+00:00,60.715130090714,12,"updated stim.csv",Version12.csv,"Version 12","List 12",flower,,343,5.916666667,1015,0.960657599,344,BOI,-,-,"Please name all of the ways you could use this object. Keep in mind that one object can have many uses. Separate your responses with a comma.",,y,60426,,,22010,42648,,,,"plant, decorations, gift, ",1
M20315939_rln,ilzkpvd3qp,"Affordance Norms_MSU_TEX",1,29,2023-05-01T19:30:56+00:00,43.946061134338,12,"updated stim.csv",Version12.csv,"Version 12","List 12",bartender,,353,4.64,156,0.909538497,354,BOI,-,-,"Please name all of the ways you could use this object. Keep in mind that one object can have many uses. Separate your responses with a comma.",,y,43765,,,31221,43159,,,,"skills, techniques",1
M20315939_rln,ilzkpvd3qp,"Affordance Norms_MSU_TEX",1,30,2023-05-01T19:31:43+00:00,47.713315010071,12,"updated stim.csv",Version12.csv,"Version 12","List 12",showerhead,,360,5.041666667,2365,0.714334081,361,BOI,-,-,"Please name all of the ways you could use this object. Keep in mind that one object can have many uses. Separate your responses with a comma.",,y,47536,,,20217,35862,,,,"shower, relaxing, ",1
M20315939_rln,ilzkpvd3qp,"Affordance Norms_MSU_TEX",1,31,2023-05-01T19:33:12+00:00,88.642836809158,12,"updated stim.csv",Version12.csv,"Version 12","List 12",certificate,,358,5.041666667,482,0.737715679,359,BOI,-,-,"Please name all of the ways you could use this object. Keep in mind that one object can have many uses. Separate your responses with a comma.",,y,88365,,,42717,87530,,,,"document, achieved, licenses",1
M20315939_rln,ilzkpvd3qp,"Affordance Norms_MSU_TEX",1,32,2023-05-01T19:34:17+00:00,65.194265127182,12,"updated stim.csv",Version12.csv,"Version 12","List 12",necklace,,338,5.821428571,1741,0.573731001,339,BOI,-,-,"Please name all of the ways you could use this object. Keep in mind that one object can have many uses. Separate your responses with a comma.",,y,64921,,,20687,53333,,,,"jewelry, accessories, ",1
M20315939_rln,ilzkpvd3qp,"Affordance Norms_MSU_TEX",1,33,2023-05-01T19:34:46+00:00,29.296571969986,12,"updated stim.csv",Version12.csv,"Version 12","List 12",mulberry,,339,4.703703704,1714,0.382484128,340,BOI,-,-,"Please name all of the ways you could use this object. Keep in mind that one object can have many uses. Separate your responses with a comma.",,y,29087,,,16617,28075,,,,"fruit, salad, raw, cooked",1
M20315939_rln,ilzkpvd3qp,"Affordance Norms_MSU_TEX",1,34,2023-05-01T19:35:21+00:00,34.116224050522,12,"updated stim.csv",Version12.csv,"Version 12","List 12",condiment,,347,5.76,620,0.735373904,348,BOI,-,-,"Please name all of the ways you could use this object. Keep in mind that one object can have many uses. Separate your responses with a comma.",,y,33904,,,19949,33418,,,,"seasoning, sauce, flavor",1
M20315939_rln,ilzkpvd3qp,"Affordance Norms_MSU_TEX",1,35,2023-05-01T19:37:05+00:00,104.83289599419,12,"updated stim.csv",Version12.csv,"Version 12","List 12",stockings,,344,5.84,2542,0.41824356,345,BOI,-,-,"Please name all of the ways you could use this object. Keep in mind that one object can have many uses. Separate your responses with a comma.",,y,104573,,,102496,104057,,,,styles,1
M20315939_rln,ilzkpvd3qp,"Affordance Norms_MSU_TEX",1,36,2023-05-01T19:38:09+00:00,64.061918020248,12,"updated stim.csv",Version12.csv,"Version 12","List 12",dumbbell,,351,5.958333333,865,0.537684107,352,BOI,-,-,"Please name all of the ways you could use this object. Keep in mind that one object can have many uses. Separate your responses with a comma.",,y,63794,,,37117,63262,,,,"weights, balance, coordination",1
M20315939_rln,ilzkpvd3qp,"Affordance Norms_MSU_TEX",1,37,2023-05-01T19:38:43+00:00,33.178331851959,12,"updated stim.csv",Version12.csv,"Version 12","List 12",shot,,356,4.392857143,2360,0.644561162,357,BOI,-,-,"Please name all of the ways you could use this object. Keep in mind that one object can have many uses. Separate your responses with a comma.",,y,33002,,,21421,32294,,,,"single gulp, s",1
M20315939_rln,ilzkpvd3qp,"Affordance Norms_MSU_TEX",1,38,2023-05-01T19:39:35+00:00,52.188802957535,12,"updated stim.csv",Version12.csv,"Version 12","List 12",sifter,,350,4.782608696,2378,0.890528918,351,BOI,-,-,"Please name all of the ways you could use this object. Keep in mind that one object can have many uses. Separate your responses with a comma.",,y,51992,,,24211,51576,,,,"kitchen tool, baking",1
M20315939_rln,ilzkpvd3qp,"Affordance Norms_MSU_TEX",1,39,2023-05-01T19:40:15+00:00,39.971698999405,12,"updated stim.csv",Version12.csv,"Version 12","List 12",champagne,,333,5.583333333,493,0.717474064,334,BOI,-,-,"Please name all of the ways you could use this object. Keep in mind that one object can have many uses. Separate your responses with a comma.",,y,39790,,,20929,38972,,,,"sparkling wine, dinner",1
M20315939_rln,ilzkpvd3qp,"Affordance Norms_MSU_TEX",1,40,2023-05-01T19:41:19+00:00,64.415119171143,12,"updated stim.csv",Version12.csv,"Version 12","List 12",hourglass,,354,4.583333333,1325,0.78313885,355,BOI,-,-,"Please name all of the ways you could use this object. Keep in mind that one object can have many uses. Separate your responses with a comma.",,y,64125,,,19185,61021,,,,"measurement of time, art, collection",0.997
M20315939_rln,ilzkpvd3qp,"Affordance Norms_MSU_TEX",1,41,2023-05-01T19:41:24+00:00,4.6372048854828,12,"updated stim.csv",Version12.csv,"Version 12","List 12",,,,,,,0,Instruct,,,"You will now be asked a few questions about your experience today.",,"Instruct 4",4469,,,-1,-1,,,,,1
