Username,ID,ExperimentName,Session,Trial,Date,TimeDif,Condition.Number,Stimuli.File,Order.File,Condition.Description,Condition.Notes,Stimuli.Cue,Stimuli.Answer,Stimuli.Shuffle,Stimuli.Stimuli.Notes,Stimuli.Value,Procedure.Item,Procedure.Trial.Type,Procedure.Max.Time,Procedure.Min.Time,Procedure.Text,Procedure.Procedure.Notes,Procedure.Shuffle,Response.RT,Response.Response,Response.Accuracy,Response.RTfirst,Response.RTlast,Response.strictAcc,Response.lenientAcc,Response.focus,Response.JOL,Response.Focus
10094962_mem,8fhc0rxils,BOI Norms,1,11,2022-11-14T21:31:18+00:00,5.916787863,3,updated stim.csv,Version28.csv,Version 28,List 28,inspector,NA,815,4.391304348,1359,816,BOI,-,-,Please name all of the ways you could use this object. Keep in mind that one object can have many uses. Separate your responses with a comma.,NA,y,5810,NA,NA,1924,4598,NA,NA,NA,to inspect stuff,1
10094962_mem,8fhc0rxils,BOI Norms,1,12,2022-11-14T21:31:32+00:00,13.24838209,3,updated stim.csv,Version28.csv,Version 28,List 28,carriage,NA,835,5.08,440,836,BOI,-,-,Please name all of the ways you could use this object. Keep in mind that one object can have many uses. Separate your responses with a comma.,NA,y,13128,NA,NA,1451,11383,NA,NA,NA,"to carry a baby, to attach to a horse to ride in",1
10094962_mem,8fhc0rxils,BOI Norms,1,13,2022-11-14T21:31:43+00:00,11.05466795,3,updated stim.csv,Version28.csv,Version 28,List 28,mail,NA,838,6.125,1577,839,BOI,-,-,Please name all of the ways you could use this object. Keep in mind that one object can have many uses. Separate your responses with a comma.,NA,y,10932,NA,NA,1129,10153,NA,NA,NA,"to send, to read, to deliver",1
10094962_mem,8fhc0rxils,BOI Norms,1,14,2022-11-14T21:34:32+00:00,169.238658,3,updated stim.csv,Version28.csv,Version 28,List 28,roadway,NA,818,4.565217391,2178,819,BOI,-,-,Please name all of the ways you could use this object. Keep in mind that one object can have many uses. Separate your responses with a comma.,NA,y,10863,NA,NA,8610,10009,NA,NA,NA,to ride on,1
10094962_mem,8fhc0rxils,BOI Norms,1,15,2022-11-14T21:34:32+00:00,0.011804104,3,updated stim.csv,Version28.csv,Version 28,List 28,traveller,NA,832,4.5,2767,833,BOI,-,-,,NA,y,10863,NA,NA,8610,10009,NA,NA,NA,to ride on,1
10094962_mem,8fhc0rxils,BOI Norms,1,16,2022-11-14T21:34:44+00:00,12.27902007,3,updated stim.csv,Version28.csv,Version 28,List 28,plane,NA,821,5.458333333,1986,822,BOI,-,-,Please name all of the ways you could use this object. Keep in mind that one object can have many uses. Separate your responses with a comma.,NA,y,11951,NA,NA,6745,11700,NA,NA,NA,"to fly, to ride in",1
10094962_mem,8fhc0rxils,BOI Norms,1,17,2022-11-14T21:34:53+00:00,8.369596958,3,updated stim.csv,Version28.csv,Version 28,List 28,eyelash,NA,813,5.423076923,935,814,BOI,-,-,Please name all of the ways you could use this object. Keep in mind that one object can have many uses. Separate your responses with a comma.,NA,y,8244,NA,NA,1731,7445,NA,NA,NA,"to curl, to put mascara on, to make a wish",1
10094962_mem,8fhc0rxils,BOI Norms,1,18,2022-11-14T21:35:10+00:00,17.24479008,3,updated stim.csv,Version28.csv,Version 28,List 28,bratwurst,NA,826,5.434782609,307,827,BOI,-,-,Please name all of the ways you could use this object. Keep in mind that one object can have many uses. Separate your responses with a comma.,NA,y,17123,NA,NA,10073,16225,NA,NA,NA,"to eat, to cut, to cook, to grill",0.869
10094962_mem,8fhc0rxils,BOI Norms,1,19,2022-11-14T21:35:24+00:00,13.74594092,3,updated stim.csv,Version28.csv,Version 28,List 28,cuticle,NA,827,5.08,737,828,BOI,-,-,Please name all of the ways you could use this object. Keep in mind that one object can have many uses. Separate your responses with a comma.,NA,y,13625,NA,NA,1389,11985,NA,NA,NA,"to paint, to clean up ",1
10094962_mem,8fhc0rxils,BOI Norms,1,20,2022-11-14T21:35:34+00:00,10.44270205,3,updated stim.csv,Version28.csv,Version 28,List 28,salesgirl,NA,820,4.769230769,2220,821,BOI,-,-,Please name all of the ways you could use this object. Keep in mind that one object can have many uses. Separate your responses with a comma.,NA,y,10317,NA,NA,1568,6827,NA,NA,NA,to make a sell,1
10094962_mem,8fhc0rxils,BOI Norms,1,21,2022-11-14T21:35:53+00:00,18.45607901,3,updated stim.csv,Version28.csv,Version 28,List 28,raisin,NA,831,5.64,2134,832,BOI,-,-,Please name all of the ways you could use this object. Keep in mind that one object can have many uses. Separate your responses with a comma.,NA,y,18321,NA,NA,1085,17676,NA,NA,NA,"comes from grapes, to eat, to make wine",1
10094962_mem,8fhc0rxils,BOI Norms,1,22,2022-11-14T21:36:03+00:00,10.2751298,3,updated stim.csv,Version28.csv,Version 28,List 28,dietician,NA,823,4.72,791,824,BOI,-,-,Please name all of the ways you could use this object. Keep in mind that one object can have many uses. Separate your responses with a comma.,NA,y,10140,NA,NA,1499,9322,NA,NA,NA,"to help eat healthy, to help get healthy",1
10094962_mem,8fhc0rxils,BOI Norms,1,23,2022-11-14T21:36:16+00:00,13.23411918,3,updated stim.csv,Version28.csv,Version 28,List 28,haystack,NA,816,4.956521739,1262,817,BOI,-,-,Please name all of the ways you could use this object. Keep in mind that one object can have many uses. Separate your responses with a comma.,NA,y,13106,NA,NA,2679,12098,NA,NA,NA,"to feed horses, to clean the pasture",1
10094962_mem,8fhc0rxils,BOI Norms,1,24,2022-11-14T21:36:47+00:00,30.91072798,3,updated stim.csv,Version28.csv,Version 28,List 28,hearse,NA,811,4.928571429,1274,812,BOI,-,-,Please name all of the ways you could use this object. Keep in mind that one object can have many uses. Separate your responses with a comma.,NA,y,30788,NA,NA,9913,30102,NA,NA,NA,"to carry a dead body to the funeral, to travel",0.945
10094962_mem,8fhc0rxils,BOI Norms,1,25,2022-11-14T21:37:03+00:00,15.92205787,3,updated stim.csv,Version28.csv,Version 28,List 28,web,NA,840,4.375,2917,841,BOI,-,-,Please name all of the ways you could use this object. Keep in mind that one object can have many uses. Separate your responses with a comma.,NA,y,15793,NA,NA,1237,15243,NA,NA,NA,"comes from a spider, on the internet, from spiderman",1
10094962_mem,8fhc0rxils,BOI Norms,1,26,2022-11-14T21:37:23+00:00,20.42254114,3,updated stim.csv,Version28.csv,Version 28,List 28,razor,NA,822,6.12,2142,823,BOI,-,-,Please name all of the ways you could use this object. Keep in mind that one object can have many uses. Separate your responses with a comma.,NA,y,20296,NA,NA,1091,19321,NA,NA,NA,"to shave your legs, facial hair, or hair anywhere else",1
10094962_mem,8fhc0rxils,BOI Norms,1,27,2022-11-14T21:37:33+00:00,9.849977016,3,updated stim.csv,Version28.csv,Version 28,List 28,heel,NA,839,4.666666667,1276,840,BOI,-,-,Please name all of the ways you could use this object. Keep in mind that one object can have many uses. Separate your responses with a comma.,NA,y,9728,NA,NA,1610,8983,NA,NA,NA,"to wear, on your foot",1
10094962_mem,8fhc0rxils,BOI Norms,1,28,2022-11-14T21:37:50+00:00,16.70191097,3,updated stim.csv,Version28.csv,Version 28,List 28,undershirt,NA,837,5.954545455,2824,838,BOI,-,-,Please name all of the ways you could use this object. Keep in mind that one object can have many uses. Separate your responses with a comma.,NA,y,16566,NA,NA,1408,14248,NA,NA,NA,"to wear in case you can see through shirt, to wear in case of sweat",1
10094962_mem,8fhc0rxils,BOI Norms,1,29,2022-11-14T21:38:09+00:00,18.69813299,3,updated stim.csv,Version28.csv,Version 28,List 28,fingerprint,NA,812,4.291666667,980,813,BOI,-,-,Please name all of the ways you could use this object. Keep in mind that one object can have many uses. Separate your responses with a comma.,NA,y,18539,NA,NA,1273,17791,NA,NA,NA,"to get into stuff, to test DNA, to look for clues in murder",1
10094962_mem,8fhc0rxils,BOI Norms,1,30,2022-11-14T21:38:22+00:00,13.87930107,3,updated stim.csv,Version28.csv,Version 28,List 28,club,NA,830,5.458333333,576,831,BOI,-,-,Please name all of the ways you could use this object. Keep in mind that one object can have many uses. Separate your responses with a comma.,NA,y,13752,NA,NA,1096,10839,NA,NA,NA,"to hit golf, to party at",1
10094962_mem,8fhc0rxils,BOI Norms,1,31,2022-11-14T21:38:35+00:00,12.35219193,3,updated stim.csv,Version28.csv,Version 28,List 28,player,NA,836,4.72,1999,837,BOI,-,-,Please name all of the ways you could use this object. Keep in mind that one object can have many uses. Separate your responses with a comma.,NA,y,12227,NA,NA,1929,11385,NA,NA,NA,"someone who cheats, someone who plays a sport",1
10094962_mem,8fhc0rxils,BOI Norms,1,32,2022-11-14T21:38:42+00:00,7.151484013,3,updated stim.csv,Version28.csv,Version 28,List 28,doorknocker,NA,829,5.52173913,825,830,BOI,-,-,Please name all of the ways you could use this object. Keep in mind that one object can have many uses. Separate your responses with a comma.,NA,y,7033,NA,NA,1895,6342,NA,NA,NA,someone who knocks on doors,1
10115261_mmd,rqneifacfz,BOI Norms,1,11,2022-10-26T06:42:36+00:00,18.46217799,7,updated stim.csv,Version32.csv,Version 32,List 32,bible,NA,931,5.826086957,208,932,BOI,-,-,Please name all of the ways you could use this object. Keep in mind that one object can have many uses. Separate your responses with a comma.,NA,y,18340,NA,NA,3076,17858,NA,NA,NA,"Religion, revolution",1
10115261_mmd,rqneifacfz,BOI Norms,1,12,2022-10-26T06:42:55+00:00,19.35545206,7,updated stim.csv,Version32.csv,Version 32,List 32,bead,NA,951,5.545454545,178,952,BOI,-,-,Please name all of the ways you could use this object. Keep in mind that one object can have many uses. Separate your responses with a comma.,NA,y,19241,NA,NA,10736,18072,NA,NA,NA,"Jewelry, toy, ",1
10115261_mmd,rqneifacfz,BOI Norms,1,13,2022-10-26T06:43:07+00:00,12.17799401,7,updated stim.csv,Version32.csv,Version 32,List 32,dollar,NA,944,6.24,815,945,BOI,-,-,Please name all of the ways you could use this object. Keep in mind that one object can have many uses. Separate your responses with a comma.,NA,y,12065,NA,NA,2709,11301,NA,NA,NA,"Money,drugs,food,fire",1
10115261_mmd,rqneifacfz,BOI Norms,1,14,2022-10-26T06:43:23+00:00,15.45987391,7,updated stim.csv,Version32.csv,Version 32,List 32,machinery,NA,954,5.416666667,1568,955,BOI,-,-,Please name all of the ways you could use this object. Keep in mind that one object can have many uses. Separate your responses with a comma.,NA,y,15341,NA,NA,2903,13848,NA,NA,NA,"Trash,farms,work,cars",1
10115261_mmd,rqneifacfz,BOI Norms,1,15,2022-10-26T06:43:41+00:00,18.16674209,7,updated stim.csv,Version32.csv,Version 32,List 32,stretcher,NA,947,5.08,2567,948,BOI,-,-,Please name all of the ways you could use this object. Keep in mind that one object can have many uses. Separate your responses with a comma.,NA,y,18043,NA,NA,4850,16610,NA,NA,NA,"EMS, torture,",1
10115261_mmd,rqneifacfz,BOI Norms,1,16,2022-10-26T06:43:51+00:00,9.842232943,7,updated stim.csv,Version32.csv,Version 32,List 32,hairnet,NA,940,5.458333333,1214,941,BOI,-,-,Please name all of the ways you could use this object. Keep in mind that one object can have many uses. Separate your responses with a comma.,NA,y,9727,NA,NA,2041,8700,NA,NA,NA,"Safety, water resistant, ",1
10115261_mmd,rqneifacfz,BOI Norms,1,17,2022-10-26T06:44:01+00:00,9.877614975,7,updated stim.csv,Version32.csv,Version 32,List 32,seed,NA,943,5.185185185,2308,944,BOI,-,-,Please name all of the ways you could use this object. Keep in mind that one object can have many uses. Separate your responses with a comma.,NA,y,9513,NA,NA,2113,8824,NA,NA,NA,"Plant, food, flower",1
10115261_mmd,rqneifacfz,BOI Norms,1,18,2022-10-26T06:44:01+00:00,0.589052916,7,updated stim.csv,Version32.csv,Version 32,List 32,dessert,NA,958,5.695652174,781,959,BOI,-,-,Please name all of the ways you could use this object. Keep in mind that one object can have many uses. Separate your responses with a comma.,NA,y,492,NA,NA,-1,-1,NA,NA,NA,,1
10115261_mmd,rqneifacfz,BOI Norms,1,19,2022-10-26T06:44:11+00:00,9.926277161,7,updated stim.csv,Version32.csv,Version 32,List 32,ash,NA,937,4.333333333,81,938,BOI,-,-,Please name all of the ways you could use this object. Keep in mind that one object can have many uses. Separate your responses with a comma.,NA,y,9809,NA,NA,2459,9307,NA,NA,NA,"Paint, dead body, fire",1
10115261_mmd,rqneifacfz,BOI Norms,1,20,2022-10-26T06:44:17+00:00,5.875341892,7,updated stim.csv,Version32.csv,Version 32,List 32,pimple,NA,957,5.72,1966,958,BOI,-,-,Please name all of the ways you could use this object. Keep in mind that one object can have many uses. Separate your responses with a comma.,NA,y,5722,NA,NA,3520,4969,NA,NA,NA,Acne,1
10115261_mmd,rqneifacfz,BOI Norms,1,21,2022-10-26T06:44:39+00:00,21.48477697,7,updated stim.csv,Version32.csv,Version 32,List 32,stairwell,NA,950,5.038461538,2502,951,BOI,-,-,Please name all of the ways you could use this object. Keep in mind that one object can have many uses. Separate your responses with a comma.,NA,y,21369,NA,NA,5346,20926,NA,NA,NA,"Up and down quickly, transportation",1
10115261_mmd,rqneifacfz,BOI Norms,1,22,2022-10-26T06:44:49+00:00,10.42225909,7,updated stim.csv,Version32.csv,Version 32,List 32,fan,NA,939,5.72,945,940,BOI,-,-,Please name all of the ways you could use this object. Keep in mind that one object can have many uses. Separate your responses with a comma.,NA,y,10312,NA,NA,1936,9118,NA,NA,NA,"Cooling off, supportive",1
10115261_mmd,rqneifacfz,BOI Norms,1,23,2022-10-26T06:44:58+00:00,9.020694017,7,updated stim.csv,Version32.csv,Version 32,List 32,pocketknife,NA,932,5.692307692,2015,933,BOI,-,-,Please name all of the ways you could use this object. Keep in mind that one object can have many uses. Separate your responses with a comma.,NA,y,8909,NA,NA,2103,8360,NA,NA,NA,"Cut,trim,score",1
10115261_mmd,rqneifacfz,BOI Norms,1,24,2022-10-26T06:45:07+00:00,8.487181902,7,updated stim.csv,Version32.csv,Version 32,List 32,costume,NA,935,6.28,657,936,BOI,-,-,Please name all of the ways you could use this object. Keep in mind that one object can have many uses. Separate your responses with a comma.,NA,y,8385,NA,NA,2613,8047,NA,NA,NA,"Pretend, be happy",1
10115261_mmd,rqneifacfz,BOI Norms,1,25,2022-10-26T06:45:14+00:00,7.25170517,7,updated stim.csv,Version32.csv,Version 32,List 32,pumice,NA,938,4.857142857,2095,939,BOI,-,-,Please name all of the ways you could use this object. Keep in mind that one object can have many uses. Separate your responses with a comma.,NA,y,7145,NA,NA,2474,5224,NA,NA,NA,"Foot rub, ",1
10115261_mmd,rqneifacfz,BOI Norms,1,26,2022-10-26T06:45:25+00:00,11.1258018,7,updated stim.csv,Version32.csv,Version 32,List 32,sidewalk,NA,959,5.291666667,2377,960,BOI,-,-,Please name all of the ways you could use this object. Keep in mind that one object can have many uses. Separate your responses with a comma.,NA,y,11018,NA,NA,1512,10429,NA,NA,NA,"Walking, running, biking",1
10115261_mmd,rqneifacfz,BOI Norms,1,27,2022-10-26T06:45:34+00:00,9.118343115,7,updated stim.csv,Version32.csv,Version 32,List 32,artifact,NA,942,4.416666667,79,943,BOI,-,-,Please name all of the ways you could use this object. Keep in mind that one object can have many uses. Separate your responses with a comma.,NA,y,9010,NA,NA,2913,7468,NA,NA,NA,"History, law",1
10115261_mmd,rqneifacfz,BOI Norms,1,28,2022-10-26T06:45:41+00:00,6.763068914,7,updated stim.csv,Version32.csv,Version 32,List 32,trousers,NA,948,6.185185185,2783,949,BOI,-,-,Please name all of the ways you could use this object. Keep in mind that one object can have many uses. Separate your responses with a comma.,NA,y,6656,NA,NA,3258,6237,NA,NA,NA,Wearing them,1
10115261_mmd,rqneifacfz,BOI Norms,1,29,2022-10-26T06:45:51+00:00,10.58919716,7,updated stim.csv,Version32.csv,Version 32,List 32,powerboat,NA,960,5.782608696,2056,961,BOI,-,-,Please name all of the ways you could use this object. Keep in mind that one object can have many uses. Separate your responses with a comma.,NA,y,10490,NA,NA,2627,9931,NA,NA,NA,"Go zoom, to get fish",1
10115261_mmd,rqneifacfz,BOI Norms,1,30,2022-10-26T06:46:02+00:00,10.99983382,7,updated stim.csv,Version32.csv,Version 32,List 32,lodging,NA,933,4.620689655,1540,934,BOI,-,-,Please name all of the ways you could use this object. Keep in mind that one object can have many uses. Separate your responses with a comma.,NA,y,10895,NA,NA,2987,9752,NA,NA,NA,"Sleep,play ",1
10115261_mmd,rqneifacfz,BOI Norms,1,31,2022-10-26T06:46:07+00:00,4.027009964,7,updated stim.csv,Version32.csv,Version 32,List 32,skillet,NA,949,5.409090909,2398,950,BOI,-,-,Please name all of the ways you could use this object. Keep in mind that one object can have many uses. Separate your responses with a comma.,NA,y,3943,NA,NA,1829,3475,NA,NA,NA,Cooking,1
10115261_mmd,rqneifacfz,BOI Norms,1,32,2022-10-26T06:46:13+00:00,6.518429041,7,updated stim.csv,Version32.csv,Version 32,List 32,sprinter,NA,936,4.565217391,2490,937,BOI,-,-,Please name all of the ways you could use this object. Keep in mind that one object can have many uses. Separate your responses with a comma.,NA,y,6425,NA,NA,1908,5993,NA,NA,NA,"Fast, running",1
10115261_mmd,rqneifacfz,BOI Norms,1,33,2022-10-26T06:46:20+00:00,6.748330116,7,updated stim.csv,Version32.csv,Version 32,List 32,balm,NA,952,4.583333333,134,953,BOI,-,-,Please name all of the ways you could use this object. Keep in mind that one object can have many uses. Separate your responses with a comma.,NA,y,6642,NA,NA,2089,4049,NA,NA,NA,Moisturizer ,1
10115261_mmd,rqneifacfz,BOI Norms,1,34,2022-10-26T06:46:25+00:00,4.910538912,7,updated stim.csv,Version32.csv,Version 32,List 32,summerhouse,NA,953,5,2584,954,BOI,-,-,Please name all of the ways you could use this object. Keep in mind that one object can have many uses. Separate your responses with a comma.,NA,y,4802,NA,NA,2111,4347,NA,NA,NA,Vacation,1
10115261_mmd,rqneifacfz,BOI Norms,1,35,2022-10-26T06:46:29+00:00,4.125183105,7,updated stim.csv,Version32.csv,Version 32,List 32,cloverleaf,NA,945,4.565217391,575,946,BOI,-,-,Please name all of the ways you could use this object. Keep in mind that one object can have many uses. Separate your responses with a comma.,NA,y,4019,NA,NA,2111,3435,NA,NA,NA,Luck,1
10115261_mmd,rqneifacfz,BOI Norms,1,36,2022-10-26T06:46:38+00:00,9.304085016,7,updated stim.csv,Version32.csv,Version 32,List 32,glassblower,NA,946,4.52173913,1111,947,BOI,-,-,Please name all of the ways you could use this object. Keep in mind that one object can have many uses. Separate your responses with a comma.,NA,y,8951,NA,NA,4322,8165,NA,NA,NA,"Hot, long,",1
10115261_mmd,rqneifacfz,BOI Norms,1,37,2022-10-26T06:46:47+00:00,9.134737968,7,updated stim.csv,Version32.csv,Version 32,List 32,tin,NA,941,4.727272727,2701,942,BOI,-,-,Please name all of the ways you could use this object. Keep in mind that one object can have many uses. Separate your responses with a comma.,NA,y,9020,NA,NA,1774,7962,NA,NA,NA,"Music, food storage",1
10115261_mmd,rqneifacfz,BOI Norms,1,38,2022-10-26T06:46:56+00:00,8.521961927,7,updated stim.csv,Version32.csv,Version 32,List 32,rotisserie,NA,956,4.791666667,2198,957,BOI,-,-,Please name all of the ways you could use this object. Keep in mind that one object can have many uses. Separate your responses with a comma.,NA,y,8422,NA,NA,2639,7740,NA,NA,NA,"To cook, to rotate",1
10115261_mmd,rqneifacfz,BOI Norms,1,39,2022-10-26T06:47:07+00:00,11.31785703,7,updated stim.csv,Version32.csv,Version 32,List 32,songbook,NA,955,5.76,2452,956,BOI,-,-,Please name all of the ways you could use this object. Keep in mind that one object can have many uses. Separate your responses with a comma.,NA,y,11210,NA,NA,6210,10377,NA,NA,NA,"Learn songs,",1
10115261_mmd,rqneifacfz,BOI Norms,1,40,2022-10-26T06:47:14+00:00,6.794832945,7,updated stim.csv,Version32.csv,Version 32,List 32,tinplate,NA,934,4.869565217,2704,935,BOI,-,-,Please name all of the ways you could use this object. Keep in mind that one object can have many uses. Separate your responses with a comma.,NA,y,6673,NA,NA,2096,5734,NA,NA,NA,"Music, food",1
10137293EH,1gdhvkcvx5,BOI Norms,1,11,2022-10-18T02:45:02+00:00,26.79983807,10,updated stim.csv,Version35.csv,Version 35,List 35,workbook,NA,1029,5.703703704,2969,1030,BOI,-,-,Please name all of the ways you could use this object. Keep in mind that one object can have many uses. Separate your responses with a comma.,NA,y,26640,NA,NA,5145,23964,NA,NA,NA,"work, planning, ",1
10137293EH,1gdhvkcvx5,BOI Norms,1,12,2022-10-18T02:45:23+00:00,21.545995,10,updated stim.csv,Version35.csv,Version 35,List 35,fence,NA,1046,5.62962963,962,1047,BOI,-,-,Please name all of the ways you could use this object. Keep in mind that one object can have many uses. Separate your responses with a comma.,NA,y,21473,NA,NA,1789,20437,NA,NA,NA,"protecting, blocking, safety",1
10137293EH,1gdhvkcvx5,BOI Norms,1,13,2022-10-18T02:45:40+00:00,17.01176095,10,updated stim.csv,Version35.csv,Version 35,List 35,stethoscope,NA,1031,5.8,2533,1032,BOI,-,-,Please name all of the ways you could use this object. Keep in mind that one object can have many uses. Separate your responses with a comma.,NA,y,16864,NA,NA,5208,15224,NA,NA,NA,"medical purposes, heart beat ",1
10137293EH,1gdhvkcvx5,BOI Norms,1,14,2022-10-18T02:45:55+00:00,14.36272216,10,updated stim.csv,Version35.csv,Version 35,List 35,watch,NA,1041,5.269230769,2905,1042,BOI,-,-,Please name all of the ways you could use this object. Keep in mind that one object can have many uses. Separate your responses with a comma.,NA,y,14218,NA,NA,2631,7178,NA,NA,NA,time management,1
10137293EH,1gdhvkcvx5,BOI Norms,1,15,2022-10-18T02:46:11+00:00,16.07449794,10,updated stim.csv,Version35.csv,Version 35,List 35,creamer,NA,1047,5.24,689,1048,BOI,-,-,Please name all of the ways you could use this object. Keep in mind that one object can have many uses. Separate your responses with a comma.,NA,y,15926,NA,NA,2984,14932,NA,NA,NA,"sweetening, tasty",1
10137293EH,1gdhvkcvx5,BOI Norms,1,16,2022-10-18T02:46:20+00:00,9.493191004,10,updated stim.csv,Version35.csv,Version 35,List 35,machetes,NA,1040,5.260869565,1566,1041,BOI,-,-,Please name all of the ways you could use this object. Keep in mind that one object can have many uses. Separate your responses with a comma.,NA,y,9355,NA,NA,1686,6585,NA,NA,NA,"cutting, chopping, clearing",1
10137293EH,1gdhvkcvx5,BOI Norms,1,17,2022-10-18T02:46:27+00:00,6.341114044,10,updated stim.csv,Version35.csv,Version 35,List 35,broom,NA,1022,6.416666667,332,1023,BOI,-,-,Please name all of the ways you could use this object. Keep in mind that one object can have many uses. Separate your responses with a comma.,NA,y,6203,NA,NA,1052,3385,NA,NA,NA,"sweeping, cleaning, ",1
10137293EH,1gdhvkcvx5,BOI Norms,1,18,2022-10-18T02:46:38+00:00,11.08530283,10,updated stim.csv,Version35.csv,Version 35,List 35,coke,NA,1023,6.2,596,1024,BOI,-,-,Please name all of the ways you could use this object. Keep in mind that one object can have many uses. Separate your responses with a comma.,NA,y,10943,NA,NA,1993,6846,NA,NA,NA,"drinking, refreshening",1
10137293EH,1gdhvkcvx5,BOI Norms,1,19,2022-10-18T02:47:08+00:00,29.96116519,10,updated stim.csv,Version35.csv,Version 35,List 35,partner,NA,1037,5.230769231,1879,1038,BOI,-,-,Please name all of the ways you could use this object. Keep in mind that one object can have many uses. Separate your responses with a comma.,NA,y,29811,NA,NA,7816,25434,NA,NA,NA,"friend figure, helper, accountability",1
10137293EH,1gdhvkcvx5,BOI Norms,1,20,2022-10-18T02:48:49+00:00,101.576268,10,updated stim.csv,Version35.csv,Version 35,List 35,receipt,NA,1028,5.28,2143,1029,BOI,-,-,Please name all of the ways you could use this object. Keep in mind that one object can have many uses. Separate your responses with a comma.,NA,y,101405,NA,NA,87625,100447,NA,NA,NA,"money-management, tracker",1
10137293EH,1gdhvkcvx5,BOI Norms,1,21,2022-10-18T02:48:59+00:00,9.573814869,10,updated stim.csv,Version35.csv,Version 35,List 35,cream,NA,1035,5.153846154,688,1036,BOI,-,-,Please name all of the ways you could use this object. Keep in mind that one object can have many uses. Separate your responses with a comma.,NA,y,9416,NA,NA,3309,8318,NA,NA,NA,"sweet, tasty",1
10137293EH,1gdhvkcvx5,BOI Norms,1,22,2022-10-18T02:49:18+00:00,18.68256402,10,updated stim.csv,Version35.csv,Version 35,List 35,genitalia,NA,1034,5.64,1096,1035,BOI,-,-,Please name all of the ways you could use this object. Keep in mind that one object can have many uses. Separate your responses with a comma.,NA,y,17796,NA,NA,3693,13897,NA,NA,NA,"private parts, reproduction, pleasure",1
10137293EH,1gdhvkcvx5,BOI Norms,1,23,2022-10-18T02:49:32+00:00,14.26512313,10,updated stim.csv,Version35.csv,Version 35,List 35,farmhand,NA,1026,4.4,948,1027,BOI,-,-,Please name all of the ways you could use this object. Keep in mind that one object can have many uses. Separate your responses with a comma.,NA,y,14121,NA,NA,1733,12531,NA,NA,NA,"helper, ",1
10137293EH,1gdhvkcvx5,BOI Norms,1,24,2022-10-18T02:49:45+00:00,13.58459187,10,updated stim.csv,Version35.csv,Version 35,List 35,shortcake,NA,1030,5.846153846,2357,1031,BOI,-,-,Please name all of the ways you could use this object. Keep in mind that one object can have many uses. Separate your responses with a comma.,NA,y,13436,NA,NA,2330,12036,NA,NA,NA,"dessert, sweet",1
10137293EH,1gdhvkcvx5,BOI Norms,1,25,2022-10-18T02:50:39+00:00,53.79770994,10,updated stim.csv,Version35.csv,Version 35,List 35,nurse,NA,1033,5.130434783,1786,1034,BOI,-,-,Please name all of the ways you could use this object. Keep in mind that one object can have many uses. Separate your responses with a comma.,NA,y,53642,NA,NA,9458,46554,NA,NA,NA,"monitor, helping-hand ",1
10137293EH,1gdhvkcvx5,BOI Norms,1,26,2022-10-18T02:51:00+00:00,20.78035402,10,updated stim.csv,Version35.csv,Version 35,List 35,neck,NA,1032,6.12,1738,1033,BOI,-,-,Please name all of the ways you could use this object. Keep in mind that one object can have many uses. Separate your responses with a comma.,NA,y,20629,NA,NA,2258,15761,NA,NA,NA,"support, fragile, ",1
10137293EH,1gdhvkcvx5,BOI Norms,1,27,2022-10-18T02:51:27+00:00,27.04523611,10,updated stim.csv,Version35.csv,Version 35,List 35,fountain,NA,1049,5.208333333,1050,1050,BOI,-,-,Please name all of the ways you could use this object. Keep in mind that one object can have many uses. Separate your responses with a comma.,NA,y,26891,NA,NA,4373,26114,NA,NA,NA,"tourist, sight, water",1
10137293EH,1gdhvkcvx5,BOI Norms,1,28,2022-10-18T02:51:39+00:00,11.53647399,10,updated stim.csv,Version35.csv,Version 35,List 35,patrolman,NA,1044,4.814814815,1888,1045,BOI,-,-,Please name all of the ways you could use this object. Keep in mind that one object can have many uses. Separate your responses with a comma.,NA,y,11392,NA,NA,1681,3271,NA,NA,NA,"protector, ",1
10137293EH,1gdhvkcvx5,BOI Norms,1,29,2022-10-18T02:51:50+00:00,11.13520503,10,updated stim.csv,Version35.csv,Version 35,List 35,scar,NA,1025,4.608695652,2266,1026,BOI,-,-,Please name all of the ways you could use this object. Keep in mind that one object can have many uses. Separate your responses with a comma.,NA,y,10998,NA,NA,1969,8637,NA,NA,NA,"memory, healing",1
10137293EH,1gdhvkcvx5,BOI Norms,1,30,2022-10-18T02:52:03+00:00,13.19888306,10,updated stim.csv,Version35.csv,Version 35,List 35,tobacco,NA,1038,5.666666667,2712,1039,BOI,-,-,Please name all of the ways you could use this object. Keep in mind that one object can have many uses. Separate your responses with a comma.,NA,y,13052,NA,NA,4029,11845,NA,NA,NA,"cancer, short term pleasure",1
10137293EH,1gdhvkcvx5,BOI Norms,1,31,2022-10-18T02:52:13+00:00,9.963046789,10,updated stim.csv,Version35.csv,Version 35,List 35,toboggan,NA,1027,5.68,2713,1028,BOI,-,-,Please name all of the ways you could use this object. Keep in mind that one object can have many uses. Separate your responses with a comma.,NA,y,9820,NA,NA,1988,6125,NA,NA,NA,"warmth, comfort",1
10137293EH,1gdhvkcvx5,BOI Norms,1,32,2022-10-18T02:52:35+00:00,21.96224618,10,updated stim.csv,Version35.csv,Version 35,List 35,goat,NA,1045,4.8,1122,1046,BOI,-,-,Please name all of the ways you could use this object. Keep in mind that one object can have many uses. Separate your responses with a comma.,NA,y,21814,NA,NA,5092,14168,NA,NA,NA,"pet, diary produce",1
10137293EH,1gdhvkcvx5,BOI Norms,1,33,2022-10-18T02:52:53+00:00,18.35103989,10,updated stim.csv,Version35.csv,Version 35,List 35,encyclopedia,NA,1042,6.16,906,1043,BOI,-,-,Please name all of the ways you could use this object. Keep in mind that one object can have many uses. Separate your responses with a comma.,NA,y,18203,NA,NA,2317,17037,NA,NA,NA,"research, table of contents",1
10137293EH,1gdhvkcvx5,BOI Norms,1,34,2022-10-18T02:53:03+00:00,9.692423105,10,updated stim.csv,Version35.csv,Version 35,List 35,caseworker,NA,1039,4.32,447,1040,BOI,-,-,Please name all of the ways you could use this object. Keep in mind that one object can have many uses. Separate your responses with a comma.,NA,y,9542,NA,NA,5498,8082,NA,NA,NA,researcher,1
10137293EH,1gdhvkcvx5,BOI Norms,1,35,2022-10-18T02:53:13+00:00,9.714143038,10,updated stim.csv,Version35.csv,Version 35,List 35,lint,NA,1048,5.04,1520,1049,BOI,-,-,Please name all of the ways you could use this object. Keep in mind that one object can have many uses. Separate your responses with a comma.,NA,y,9574,NA,NA,2101,8798,NA,NA,NA,"leftovers, dirty",1
10137293EH,1gdhvkcvx5,BOI Norms,1,36,2022-10-18T02:53:25+00:00,12.20940185,10,updated stim.csv,Version35.csv,Version 35,List 35,slipcover,NA,1036,5.409090909,2415,1037,BOI,-,-,Please name all of the ways you could use this object. Keep in mind that one object can have many uses. Separate your responses with a comma.,NA,y,12054,NA,NA,4554,7047,NA,NA,NA,"warmth, ",1
10137293EH,1gdhvkcvx5,BOI Norms,1,37,2022-10-18T02:53:39+00:00,14.04960608,10,updated stim.csv,Version35.csv,Version 35,List 35,watchmaker,NA,1050,4.56,2908,1051,BOI,-,-,Please name all of the ways you could use this object. Keep in mind that one object can have many uses. Separate your responses with a comma.,NA,y,13899,NA,NA,7711,9875,NA,NA,NA,"time keeper, ",1
10137293EH,1gdhvkcvx5,BOI Norms,1,38,2022-10-18T02:53:50+00:00,10.89472103,10,updated stim.csv,Version35.csv,Version 35,List 35,crumpet,NA,1021,5.136363636,715,1022,BOI,-,-,Please name all of the ways you could use this object. Keep in mind that one object can have many uses. Separate your responses with a comma.,NA,y,10754,NA,NA,7810,9980,NA,NA,NA,"eating, tasty",1
10137293EH,1gdhvkcvx5,BOI Norms,1,39,2022-10-18T02:54:00+00:00,10.08822489,10,updated stim.csv,Version35.csv,Version 35,List 35,Toilet,NA,1024,6.368918919,2719,1025,BOI,-,-,Please name all of the ways you could use this object. Keep in mind that one object can have many uses. Separate your responses with a comma.,NA,y,9939,NA,NA,2444,8168,NA,NA,NA,"bathroom, comfort, ",1
10137293EH,1gdhvkcvx5,BOI Norms,1,40,2022-10-18T02:54:06+00:00,5.83538413,10,updated stim.csv,Version35.csv,Version 35,List 35,corvette,NA,1043,5.875,654,1044,BOI,-,-,Please name all of the ways you could use this object. Keep in mind that one object can have many uses. Separate your responses with a comma.,NA,y,5693,NA,NA,1989,4917,NA,NA,NA,"car, luxury, wealth",1
10138605GB,qvc3xzsp9l,BOI Norms,1,11,2022-11-02T14:45:35+00:00,18.12029696,24,updated stim.csv,Version49.csv,Version 49,List 49,staff,NA,1454,4.928571429,2496,1455,BOI,-,-,Please name all of the ways you could use this object. Keep in mind that one object can have many uses. Separate your responses with a comma.,NA,y,17986,NA,NA,2784,15909,NA,NA,NA,"speak to, correct, work, clean, chores",1
10138605GB,qvc3xzsp9l,BOI Norms,1,12,2022-11-02T14:45:41+00:00,5.203261137,24,updated stim.csv,Version49.csv,Version 49,List 49,maple,NA,1455,4.32,1601,1456,BOI,-,-,Please name all of the ways you could use this object. Keep in mind that one object can have many uses. Separate your responses with a comma.,NA,y,4504,NA,NA,2541,3176,NA,NA,NA,syrup,1
10138605GB,qvc3xzsp9l,BOI Norms,1,13,2022-11-02T14:46:00+00:00,19.02513504,24,updated stim.csv,Version49.csv,Version 49,List 49,gavel,NA,1463,4.545454545,1089,1464,BOI,-,-,Please name all of the ways you could use this object. Keep in mind that one object can have many uses. Separate your responses with a comma.,NA,y,18347,NA,NA,15277,17317,NA,NA,NA,"hit, break",1
10138605GB,qvc3xzsp9l,BOI Norms,1,14,2022-11-02T14:46:12+00:00,12.37642384,24,updated stim.csv,Version49.csv,Version 49,List 49,Food,NA,1459,6.470350404,1027,1460,BOI,-,-,Please name all of the ways you could use this object. Keep in mind that one object can have many uses. Separate your responses with a comma.,NA,y,12242,NA,NA,1007,9523,NA,NA,NA,"eat, serve, throw, spill",1
10138605GB,qvc3xzsp9l,BOI Norms,1,15,2022-11-02T14:46:30+00:00,18.02726817,24,updated stim.csv,Version49.csv,Version 49,List 49,lady,NA,1448,5.32,1449,1449,BOI,-,-,Please name all of the ways you could use this object. Keep in mind that one object can have many uses. Separate your responses with a comma.,NA,y,17697,NA,NA,1871,16756,NA,NA,NA,"talk to, go out with, hang out",1
10138605GB,qvc3xzsp9l,BOI Norms,1,16,2022-11-02T14:46:38+00:00,7.591790915,24,updated stim.csv,Version49.csv,Version 49,List 49,scissor,NA,1467,6.173913043,2275,1468,BOI,-,-,Please name all of the ways you could use this object. Keep in mind that one object can have many uses. Separate your responses with a comma.,NA,y,7452,NA,NA,2362,4598,NA,NA,NA,"cut, stab",1
10138605GB,qvc3xzsp9l,BOI Norms,1,17,2022-11-02T14:46:51+00:00,13.16384792,24,updated stim.csv,Version49.csv,Version 49,List 49,icing,NA,1460,4.76,1348,1461,BOI,-,-,Please name all of the ways you could use this object. Keep in mind that one object can have many uses. Separate your responses with a comma.,NA,y,12909,NA,NA,1318,8284,NA,NA,NA,"decorate, smear",1
10138605GB,qvc3xzsp9l,BOI Norms,1,18,2022-11-02T14:47:06+00:00,15.23169899,24,updated stim.csv,Version49.csv,Version 49,List 49,abdomen,NA,1456,5.434782609,2,1457,BOI,-,-,Please name all of the ways you could use this object. Keep in mind that one object can have many uses. Separate your responses with a comma.,NA,y,14751,NA,NA,2259,13637,NA,NA,NA,"small intestine, large intestine, stomach",1
10138605GB,qvc3xzsp9l,BOI Norms,1,19,2022-11-02T14:47:34+00:00,27.86276102,24,updated stim.csv,Version49.csv,Version 49,List 49,tugboat,NA,1457,4.555555556,2793,1458,BOI,-,-,Please name all of the ways you could use this object. Keep in mind that one object can have many uses. Separate your responses with a comma.,NA,y,27590,NA,NA,9468,26080,NA,NA,NA,"ocean, swim",1
10138605GB,qvc3xzsp9l,BOI Norms,1,20,2022-11-02T14:47:39+00:00,4.887465,24,updated stim.csv,Version49.csv,Version 49,List 49,lobe,NA,1447,4.47826087,1533,1448,BOI,-,-,Please name all of the ways you could use this object. Keep in mind that one object can have many uses. Separate your responses with a comma.,NA,y,4550,NA,NA,1345,3355,NA,NA,NA,"ear, hear",1
10138605GB,qvc3xzsp9l,BOI Norms,1,21,2022-11-02T14:47:55+00:00,16.34509301,24,updated stim.csv,Version49.csv,Version 49,List 49,doghouse,NA,1445,5.076923077,813,1446,BOI,-,-,Please name all of the ways you could use this object. Keep in mind that one object can have many uses. Separate your responses with a comma.,NA,y,15947,NA,NA,4895,10294,NA,NA,NA,"outside, for dogs",1
10138605GB,qvc3xzsp9l,BOI Norms,1,22,2022-11-02T14:48:01+00:00,6.390063047,24,updated stim.csv,Version49.csv,Version 49,List 49,stomp,NA,1444,4.321428571,2544,1445,BOI,-,-,Please name all of the ways you could use this object. Keep in mind that one object can have many uses. Separate your responses with a comma.,NA,y,6151,NA,NA,2813,5208,NA,NA,NA,"kick, strong",1
10138605GB,qvc3xzsp9l,BOI Norms,1,23,2022-11-02T14:48:07+00:00,5.306299925,24,updated stim.csv,Version49.csv,Version 49,List 49,soles,NA,1462,4.913043478,2447,1463,BOI,-,-,Please name all of the ways you could use this object. Keep in mind that one object can have many uses. Separate your responses with a comma.,NA,y,5018,NA,NA,1622,3986,NA,NA,NA,"shoe, feet",1
10138605GB,qvc3xzsp9l,BOI Norms,1,24,2022-11-02T14:48:20+00:00,13.06286001,24,updated stim.csv,Version49.csv,Version 49,List 49,neckwear,NA,1466,5.652173913,1743,1467,BOI,-,-,Please name all of the ways you could use this object. Keep in mind that one object can have many uses. Separate your responses with a comma.,NA,y,12928,NA,NA,5667,12214,NA,NA,NA,"sweaters, shirts, clothes, scarfs",1
10138605GB,qvc3xzsp9l,BOI Norms,1,25,2022-11-02T14:48:25+00:00,5.243113041,24,updated stim.csv,Version49.csv,Version 49,List 49,Leaf,NA,1450,5.584345479,1477,1451,BOI,-,-,Please name all of the ways you could use this object. Keep in mind that one object can have many uses. Separate your responses with a comma.,NA,y,5108,NA,NA,1443,4642,NA,NA,NA,"outside, trees, fall",1
10138605GB,qvc3xzsp9l,BOI Norms,1,26,2022-11-02T14:48:31+00:00,5.435603142,24,updated stim.csv,Version49.csv,Version 49,List 49,pillowcase,NA,1453,5.92,1963,1454,BOI,-,-,Please name all of the ways you could use this object. Keep in mind that one object can have many uses. Separate your responses with a comma.,NA,y,5210,NA,NA,1742,4652,NA,NA,NA,"pillows, bed, sleep",1
10138605GB,qvc3xzsp9l,BOI Norms,1,27,2022-11-02T14:48:38+00:00,7.396328926,24,updated stim.csv,Version49.csv,Version 49,List 49,lawyer,NA,1452,4.625,1475,1453,BOI,-,-,Please name all of the ways you could use this object. Keep in mind that one object can have many uses. Separate your responses with a comma.,NA,y,7153,NA,NA,2346,6595,NA,NA,NA,"right, wrong, judge, gavel",1
10138605GB,qvc3xzsp9l,BOI Norms,1,28,2022-11-02T14:48:53+00:00,15.44952703,24,updated stim.csv,Version49.csv,Version 49,List 49,eyedrop,NA,1442,5.48,932,1443,BOI,-,-,Please name all of the ways you could use this object. Keep in mind that one object can have many uses. Separate your responses with a comma.,NA,y,13996,NA,NA,7215,12555,NA,NA,NA,"squirt it, throw it",1
10138605GB,qvc3xzsp9l,BOI Norms,1,29,2022-11-02T14:49:02+00:00,8.792755842,24,updated stim.csv,Version49.csv,Version 49,List 49,wounds,NA,1464,4.391304348,2977,1465,BOI,-,-,Please name all of the ways you could use this object. Keep in mind that one object can have many uses. Separate your responses with a comma.,NA,y,8392,NA,NA,1368,5319,NA,NA,NA,"clean, hit, scratch",1
10138605GB,qvc3xzsp9l,BOI Norms,1,30,2022-11-02T14:49:06+00:00,3.535206079,24,updated stim.csv,Version49.csv,Version 49,List 49,latrine,NA,1458,6.333333333,1471,1459,BOI,-,-,Please name all of the ways you could use this object. Keep in mind that one object can have many uses. Separate your responses with a comma.,NA,y,3382,NA,NA,-1,-1,NA,NA,NA,,1
10138605GB,qvc3xzsp9l,BOI Norms,1,31,2022-11-02T14:49:29+00:00,23.17703295,24,updated stim.csv,Version49.csv,Version 49,List 49,sweetener,NA,1449,5.2,2606,1450,BOI,-,-,Please name all of the ways you could use this object. Keep in mind that one object can have many uses. Separate your responses with a comma.,NA,y,22772,NA,NA,9592,21018,NA,NA,NA,"cook with, throw away",1
10138605GB,qvc3xzsp9l,BOI Norms,1,32,2022-11-02T14:49:36+00:00,7.642642975,24,updated stim.csv,Version49.csv,Version 49,List 49,sneaker,NA,1443,6.48,2427,1444,BOI,-,-,Please name all of the ways you could use this object. Keep in mind that one object can have many uses. Separate your responses with a comma.,NA,y,7259,NA,NA,1546,6754,NA,NA,NA,"wear, throw away, hit",1
10138605GB,qvc3xzsp9l,BOI Norms,1,33,2022-11-02T14:49:44+00:00,7.721727133,24,updated stim.csv,Version49.csv,Version 49,List 49,finger,NA,1461,6,977,1462,BOI,-,-,Please name all of the ways you could use this object. Keep in mind that one object can have many uses. Separate your responses with a comma.,NA,y,7565,NA,NA,1641,7106,NA,NA,NA,"touch, point, use",1
10138605GB,qvc3xzsp9l,BOI Norms,1,34,2022-11-02T14:49:55+00:00,11.01791191,24,updated stim.csv,Version49.csv,Version 49,List 49,boathouse,NA,1469,4.52173913,256,1470,BOI,-,-,Please name all of the ways you could use this object. Keep in mind that one object can have many uses. Separate your responses with a comma.,NA,y,10826,NA,NA,4106,9750,NA,NA,NA,"boat house, storage",1
10138605GB,qvc3xzsp9l,BOI Norms,1,35,2022-11-02T14:50:08+00:00,12.860636,24,updated stim.csv,Version49.csv,Version 49,List 49,opium,NA,1441,4.269230769,1812,1442,BOI,-,-,Please name all of the ways you could use this object. Keep in mind that one object can have many uses. Separate your responses with a comma.,NA,y,12344,NA,NA,-1,-1,NA,NA,NA,,1
10138605GB,qvc3xzsp9l,BOI Norms,1,36,2022-11-02T14:50:22+00:00,14.20422506,24,updated stim.csv,Version49.csv,Version 49,List 49,absinthe,NA,1468,4.590909091,3,1469,BOI,-,-,Please name all of the ways you could use this object. Keep in mind that one object can have many uses. Separate your responses with a comma.,NA,y,14020,NA,NA,12315,13477,NA,NA,NA,"smell, eat",1
10138605GB,qvc3xzsp9l,BOI Norms,1,37,2022-11-02T14:50:44+00:00,21.79476404,24,updated stim.csv,Version49.csv,Version 49,List 49,washstand,NA,1446,4.652173913,2902,1447,BOI,-,-,Please name all of the ways you could use this object. Keep in mind that one object can have many uses. Separate your responses with a comma.,NA,y,21149,NA,NA,12664,20946,NA,NA,NA,"wash hands, wash dishes, clean",1
10138605GB,qvc3xzsp9l,BOI Norms,1,38,2022-11-02T14:50:55+00:00,10.80215788,24,updated stim.csv,Version49.csv,Version 49,List 49,fixture,NA,1451,5,994,1452,BOI,-,-,Please name all of the ways you could use this object. Keep in mind that one object can have many uses. Separate your responses with a comma.,NA,y,10529,NA,NA,3137,7643,NA,NA,NA,"look at, put things on",1
10138605GB,qvc3xzsp9l,BOI Norms,1,39,2022-11-02T14:51:18+00:00,23.58145404,24,updated stim.csv,Version49.csv,Version 49,List 49,thumb,NA,1465,6.357142857,2687,1466,BOI,-,-,Please name all of the ways you could use this object. Keep in mind that one object can have many uses. Separate your responses with a comma.,NA,y,23206,NA,NA,3395,22760,NA,NA,NA,"type, throw, point",1
10138605GB,qvc3xzsp9l,BOI Norms,1,40,2022-11-02T14:51:23+00:00,4.908453941,24,updated stim.csv,Version49.csv,Version 49,List 49,pushcart,NA,1470,5.272727273,2106,1471,BOI,-,-,Please name all of the ways you could use this object. Keep in mind that one object can have many uses. Separate your responses with a comma.,NA,y,4064,NA,NA,1417,3936,NA,NA,NA,"push, shove",1
110106584_aa,pf4ulzvy7q,BOI Norms,1,11,2022-10-24T22:29:44+00:00,19.85087013,2,updated stim.csv,Version27.csv,Version 27,List 27,father,NA,788,6.035714286,951,789,BOI,-,-,Please name all of the ways you could use this object. Keep in mind that one object can have many uses. Separate your responses with a comma.,NA,y,19767,NA,NA,8793,15643,NA,NA,NA,"parent, church",1
110106584_aa,pf4ulzvy7q,BOI Norms,1,12,2022-10-24T22:30:00+00:00,15.692137,2,updated stim.csv,Version27.csv,Version 27,List 27,bunkmate,NA,791,4.458333333,362,792,BOI,-,-,Please name all of the ways you could use this object. Keep in mind that one object can have many uses. Separate your responses with a comma.,NA,y,15610,NA,NA,2561,14994,NA,NA,NA,"clean, friend",1
110106584_aa,pf4ulzvy7q,BOI Norms,1,13,2022-10-24T22:30:12+00:00,11.96850705,2,updated stim.csv,Version27.csv,Version 27,List 27,foxhound,NA,781,4.347826087,1052,782,BOI,-,-,Please name all of the ways you could use this object. Keep in mind that one object can have many uses. Separate your responses with a comma.,NA,y,11879,NA,NA,2252,7629,NA,NA,NA,"hunting, chasing",1
110106584_aa,pf4ulzvy7q,BOI Norms,1,14,2022-10-24T22:30:20+00:00,8.408874989,2,updated stim.csv,Version27.csv,Version 27,List 27,lingerie,NA,790,5.72,1518,791,BOI,-,-,Please name all of the ways you could use this object. Keep in mind that one object can have many uses. Separate your responses with a comma.,NA,y,8332,NA,NA,2400,8038,NA,NA,NA,"wearing, buying",1
110106584_aa,pf4ulzvy7q,BOI Norms,1,15,2022-10-24T22:30:37+00:00,16.78224301,2,updated stim.csv,Version27.csv,Version 27,List 27,townsfolk,NA,798,4.583333333,2748,799,BOI,-,-,Please name all of the ways you could use this object. Keep in mind that one object can have many uses. Separate your responses with a comma.,NA,y,16701,NA,NA,3446,16428,NA,NA,NA,"neighbor, friend, family",1
110106584_aa,pf4ulzvy7q,BOI Norms,1,16,2022-10-24T22:30:48+00:00,10.37365794,2,updated stim.csv,Version27.csv,Version 27,List 27,apricot,NA,808,6.291666667,66,809,BOI,-,-,Please name all of the ways you could use this object. Keep in mind that one object can have many uses. Separate your responses with a comma.,NA,y,10291,NA,NA,2022,9905,NA,NA,NA,"jam, eating, growing",1
110106584_aa,pf4ulzvy7q,BOI Norms,1,17,2022-10-24T22:31:06+00:00,18.0321629,2,updated stim.csv,Version27.csv,Version 27,List 27,breastbone,NA,785,5.318181818,313,786,BOI,-,-,Please name all of the ways you could use this object. Keep in mind that one object can have many uses. Separate your responses with a comma.,NA,y,17945,NA,NA,3069,17710,NA,NA,NA,"body part, chicken",1
110106584_aa,pf4ulzvy7q,BOI Norms,1,18,2022-10-24T22:31:33+00:00,27.20945501,2,updated stim.csv,Version27.csv,Version 27,List 27,bum,NA,782,4.346153846,357,783,BOI,-,-,Please name all of the ways you could use this object. Keep in mind that one object can have many uses. Separate your responses with a comma.,NA,y,27122,NA,NA,13249,26938,NA,NA,NA,take something,1
110106584_aa,pf4ulzvy7q,BOI Norms,1,19,2022-10-24T22:32:00+00:00,27.47729206,2,updated stim.csv,Version27.csv,Version 27,List 27,electronics,NA,783,5.12,899,784,BOI,-,-,Please name all of the ways you could use this object. Keep in mind that one object can have many uses. Separate your responses with a comma.,NA,y,27384,NA,NA,2249,27226,NA,NA,NA,"texting, research, phone calls",1
110106584_aa,pf4ulzvy7q,BOI Norms,1,20,2022-10-24T22:32:05+00:00,4.269093037,2,updated stim.csv,Version27.csv,Version 27,List 27,mothball,NA,796,5.12,1691,797,BOI,-,-,Please name all of the ways you could use this object. Keep in mind that one object can have many uses. Separate your responses with a comma.,NA,y,4184,NA,NA,2649,4001,NA,NA,NA,snakes ,1
110106584_aa,pf4ulzvy7q,BOI Norms,1,21,2022-10-24T22:32:18+00:00,13.26017308,2,updated stim.csv,Version27.csv,Version 27,List 27,marshmallow,NA,797,6.173913043,1611,798,BOI,-,-,Please name all of the ways you could use this object. Keep in mind that one object can have many uses. Separate your responses with a comma.,NA,y,13168,NA,NA,1923,11038,NA,NA,NA,"smores, throwing, eating",1
110106584_aa,pf4ulzvy7q,BOI Norms,1,22,2022-10-24T22:33:29+00:00,71.03189087,2,updated stim.csv,Version27.csv,Version 27,List 27,skin,NA,789,6.16,2399,790,BOI,-,-,Please name all of the ways you could use this object. Keep in mind that one object can have many uses. Separate your responses with a comma.,NA,y,20838,NA,NA,5344,20622,NA,NA,NA,"tattoos, scars, piercings",1
110106584_aa,pf4ulzvy7q,BOI Norms,1,23,2022-10-24T22:33:57+00:00,27.95343494,2,updated stim.csv,Version27.csv,Version 27,List 27,scythe,NA,803,4.727272727,2293,804,BOI,-,-,Please name all of the ways you could use this object. Keep in mind that one object can have many uses. Separate your responses with a comma.,NA,y,27864,NA,NA,23417,27244,NA,NA,NA,cutting,0.903
110106584_aa,pf4ulzvy7q,BOI Norms,1,24,2022-10-24T22:34:08+00:00,11.42183208,2,updated stim.csv,Version27.csv,Version 27,List 27,fridge,NA,786,6.166666667,1056,787,BOI,-,-,Please name all of the ways you could use this object. Keep in mind that one object can have many uses. Separate your responses with a comma.,NA,y,11331,NA,NA,2621,9434,NA,NA,NA,"keep cold, food, drinks",1
110106584_aa,pf4ulzvy7q,BOI Norms,1,25,2022-10-24T22:34:20+00:00,11.32021594,2,updated stim.csv,Version27.csv,Version 27,List 27,bug,NA,787,5.296296296,347,788,BOI,-,-,Please name all of the ways you could use this object. Keep in mind that one object can have many uses. Separate your responses with a comma.,NA,y,11234,NA,NA,5177,9423,NA,NA,NA,squish,1
110106584_aa,pf4ulzvy7q,BOI Norms,1,26,2022-10-24T22:34:26+00:00,6.541846991,2,updated stim.csv,Version27.csv,Version 27,List 27,fondue,NA,794,4.92,1026,795,BOI,-,-,Please name all of the ways you could use this object. Keep in mind that one object can have many uses. Separate your responses with a comma.,NA,y,6457,NA,NA,2699,6005,NA,NA,NA,dipping food in it,1
110106584_aa,pf4ulzvy7q,BOI Norms,1,27,2022-10-24T22:34:37+00:00,10.72083712,2,updated stim.csv,Version27.csv,Version 27,List 27,flagpole,NA,802,4.785714286,996,803,BOI,-,-,Please name all of the ways you could use this object. Keep in mind that one object can have many uses. Separate your responses with a comma.,NA,y,10644,NA,NA,8412,10116,NA,NA,NA,hold flag,1
110106584_aa,pf4ulzvy7q,BOI Norms,1,28,2022-10-24T22:34:44+00:00,6.88560605,2,updated stim.csv,Version27.csv,Version 27,List 27,daiquiri,NA,799,5.454545455,749,800,BOI,-,-,Please name all of the ways you could use this object. Keep in mind that one object can have many uses. Separate your responses with a comma.,NA,y,6811,NA,NA,1922,6637,NA,NA,NA,"drink, frozen",1
110106584_aa,pf4ulzvy7q,BOI Norms,1,29,2022-10-24T22:34:55+00:00,11.78143501,2,updated stim.csv,Version27.csv,Version 27,List 27,kaleidoscope,NA,784,5.84,1400,785,BOI,-,-,Please name all of the ways you could use this object. Keep in mind that one object can have many uses. Separate your responses with a comma.,NA,y,11702,NA,NA,5803,11551,NA,NA,NA,observations of shapes and colors,1
110106584_aa,pf4ulzvy7q,BOI Norms,1,30,2022-10-24T22:35:10+00:00,14.18577695,2,updated stim.csv,Version27.csv,Version 27,List 27,gambler,NA,792,4.416666667,1070,793,BOI,-,-,Please name all of the ways you could use this object. Keep in mind that one object can have many uses. Separate your responses with a comma.,NA,y,14100,NA,NA,2680,13868,NA,NA,NA,"casino, race track, horse track",1
110106584_aa,pf4ulzvy7q,BOI Norms,1,31,2022-10-24T22:35:19+00:00,9.336683989,2,updated stim.csv,Version27.csv,Version 27,List 27,billfold,NA,793,5.444444444,215,794,BOI,-,-,Please name all of the ways you could use this object. Keep in mind that one object can have many uses. Separate your responses with a comma.,NA,y,9246,NA,NA,2203,9006,NA,NA,NA,hold money or ID,1
110106584_aa,pf4ulzvy7q,BOI Norms,1,32,2022-10-24T22:35:27+00:00,8.470645905,2,updated stim.csv,Version27.csv,Version 27,List 27,housekeeper,NA,801,4.458333333,1331,802,BOI,-,-,Please name all of the ways you could use this object. Keep in mind that one object can have many uses. Separate your responses with a comma.,NA,y,8381,NA,NA,1433,6917,NA,NA,NA,clean all parts of house,1
110106584_aa,pf4ulzvy7q,BOI Norms,1,33,2022-10-24T22:35:36+00:00,8.484277964,2,updated stim.csv,Version27.csv,Version 27,List 27,sedative,NA,800,4.416666667,2307,801,BOI,-,-,Please name all of the ways you could use this object. Keep in mind that one object can have many uses. Separate your responses with a comma.,NA,y,8407,NA,NA,4462,8190,NA,NA,NA,"put to sleep, calm down",1
110106584_aa,pf4ulzvy7q,BOI Norms,1,34,2022-10-24T22:35:44+00:00,8.369204044,2,updated stim.csv,Version27.csv,Version 27,List 27,Grasshopper,NA,810,4.753721245,1161,811,BOI,-,-,Please name all of the ways you could use this object. Keep in mind that one object can have many uses. Separate your responses with a comma.,NA,y,8289,NA,NA,5909,8124,NA,NA,NA,bug,1
110106584_aa,pf4ulzvy7q,BOI Norms,1,35,2022-10-24T22:35:54+00:00,9.561361074,2,updated stim.csv,Version27.csv,Version 27,List 27,intercom,NA,809,4.695652174,1363,810,BOI,-,-,Please name all of the ways you could use this object. Keep in mind that one object can have many uses. Separate your responses with a comma.,NA,y,9481,NA,NA,1832,9364,NA,NA,NA,to mass call people,1
110106584_aa,pf4ulzvy7q,BOI Norms,1,36,2022-10-24T22:36:01+00:00,7.361403942,2,updated stim.csv,Version27.csv,Version 27,List 27,vermicelli,NA,806,5.571428571,2850,807,BOI,-,-,Please name all of the ways you could use this object. Keep in mind that one object can have many uses. Separate your responses with a comma.,NA,y,7280,NA,NA,5795,7140,NA,NA,NA,im not sure,1
110106584_aa,pf4ulzvy7q,BOI Norms,1,37,2022-10-24T22:36:11+00:00,9.454612017,2,updated stim.csv,Version27.csv,Version 27,List 27,cherry,NA,804,5.454545455,511,805,BOI,-,-,Please name all of the ways you could use this object. Keep in mind that one object can have many uses. Separate your responses with a comma.,NA,y,9379,NA,NA,1420,4801,NA,NA,NA,"eating, garnish",1
110106584_aa,pf4ulzvy7q,BOI Norms,1,38,2022-10-24T22:36:20+00:00,8.889296055,2,updated stim.csv,Version27.csv,Version 27,List 27,subway,NA,805,5,2577,806,BOI,-,-,Please name all of the ways you could use this object. Keep in mind that one object can have many uses. Separate your responses with a comma.,NA,y,8440,NA,NA,4257,8287,NA,NA,NA,"transportation, playing",1
110106584_aa,pf4ulzvy7q,BOI Norms,1,39,2022-10-24T22:36:34+00:00,14.26930094,2,updated stim.csv,Version27.csv,Version 27,List 27,receipts,NA,795,5.04,2144,796,BOI,-,-,Please name all of the ways you could use this object. Keep in mind that one object can have many uses. Separate your responses with a comma.,NA,y,13144,NA,NA,6021,12888,NA,NA,NA,"check book, copy ",1
110106584_aa,pf4ulzvy7q,BOI Norms,1,40,2022-10-24T22:36:55+00:00,21.17999697,2,updated stim.csv,Version27.csv,Version 27,List 27,appliance,NA,807,5.791666667,62,808,BOI,-,-,Please name all of the ways you could use this object. Keep in mind that one object can have many uses. Separate your responses with a comma.,NA,y,21092,NA,NA,19902,20881,NA,NA,NA,cooking,0.941
w10011164_tal,mggj13xne9,BOI Norms,1,11,2022-11-17T20:22:41+00:00,26.20409417,11,updated stim.csv,Version36.csv,Version 36,List 36,llama,NA,1054,4.75,1530,1055,BOI,-,-,Please name all of the ways you could use this object. Keep in mind that one object can have many uses. Separate your responses with a comma.,NA,y,25978,NA,NA,3577,20560,NA,NA,NA,"kept as a pet, put in zoo, return to wild",1
w10011164_tal,mggj13xne9,BOI Norms,1,12,2022-11-17T20:23:07+00:00,26.21637392,11,updated stim.csv,Version36.csv,Version 36,List 36,engine,NA,1065,5.333333333,908,1066,BOI,-,-,Please name all of the ways you could use this object. Keep in mind that one object can have many uses. Separate your responses with a comma.,NA,y,25959,NA,NA,2935,24174,NA,NA,NA,"in a car, as a spare, spare parts, sold, bought, returned, broken",1
w10011164_tal,mggj13xne9,BOI Norms,1,13,2022-11-17T20:23:35+00:00,27.69456911,11,updated stim.csv,Version36.csv,Version 36,List 36,mentor,NA,1053,4.347826087,1645,1054,BOI,-,-,Please name all of the ways you could use this object. Keep in mind that one object can have many uses. Separate your responses with a comma.,NA,y,26471,NA,NA,4513,23767,NA,NA,NA,"advice, help, networking",1
w10011164_tal,mggj13xne9,BOI Norms,1,14,2022-11-17T20:23:54+00:00,19.1721499,11,updated stim.csv,Version36.csv,Version 36,List 36,tombstone,NA,1072,5.043478261,2725,1073,BOI,-,-,Please name all of the ways you could use this object. Keep in mind that one object can have many uses. Separate your responses with a comma.,NA,y,18893,NA,NA,5642,16167,NA,NA,NA,"deathbed marker, landmark ",1
w10011164_tal,mggj13xne9,BOI Norms,1,15,2022-11-17T20:24:14+00:00,19.58410311,11,updated stim.csv,Version36.csv,Version 36,List 36,leftovers,NA,1070,5.625,1485,1071,BOI,-,-,Please name all of the ways you could use this object. Keep in mind that one object can have many uses. Separate your responses with a comma.,NA,y,18993,NA,NA,1331,10350,NA,NA,NA,"eaten, thrown away, reheated, served",1
w10011164_tal,mggj13xne9,BOI Norms,1,16,2022-11-17T20:24:40+00:00,26.26682997,11,updated stim.csv,Version36.csv,Version 36,List 36,saltshaker,NA,1058,6,2228,1059,BOI,-,-,Please name all of the ways you could use this object. Keep in mind that one object can have many uses. Separate your responses with a comma.,NA,y,25991,NA,NA,6334,25382,NA,NA,NA,"paperweight, dispense salt, bought, broken, returned, gifted",1
w10011164_tal,mggj13xne9,BOI Norms,1,17,2022-11-17T20:25:06+00:00,25.52485681,11,updated stim.csv,Version36.csv,Version 36,List 36,drugstore,NA,1079,5.260869565,853,1080,BOI,-,-,Please name all of the ways you could use this object. Keep in mind that one object can have many uses. Separate your responses with a comma.,NA,y,25018,NA,NA,6856,17704,NA,NA,NA,"buy medicine, bought, ",1
w10011164_tal,mggj13xne9,BOI Norms,1,18,2022-11-17T20:25:24+00:00,18.30201817,11,updated stim.csv,Version36.csv,Version 36,List 36,ornament,NA,1062,6.181818182,1823,1063,BOI,-,-,Please name all of the ways you could use this object. Keep in mind that one object can have many uses. Separate your responses with a comma.,NA,y,18063,NA,NA,2164,16690,NA,NA,NA,"tree decoration, broken, brought, returned, gifted, ",1
w10011164_tal,mggj13xne9,BOI Norms,1,19,2022-11-17T20:25:39+00:00,15.46459985,11,updated stim.csv,Version36.csv,Version 36,List 36,lambskin,NA,1055,4.416666667,1454,1056,BOI,-,-,Please name all of the ways you could use this object. Keep in mind that one object can have many uses. Separate your responses with a comma.,NA,y,15004,NA,NA,10317,11510,NA,NA,NA,,1
w10011164_tal,mggj13xne9,BOI Norms,1,20,2022-11-17T20:26:00+00:00,20.64184117,11,updated stim.csv,Version36.csv,Version 36,List 36,barber,NA,1060,4.958333333,147,1061,BOI,-,-,Please name all of the ways you could use this object. Keep in mind that one object can have many uses. Separate your responses with a comma.,NA,y,20240,NA,NA,1819,19518,NA,NA,NA,"haircut, beard trim, advice, friend",1
w10011164_tal,mggj13xne9,BOI Norms,1,21,2022-11-17T20:26:10+00:00,9.821328878,11,updated stim.csv,Version36.csv,Version 36,List 36,switchboard,NA,1074,4.777777778,2610,1075,BOI,-,-,Please name all of the ways you could use this object. Keep in mind that one object can have many uses. Separate your responses with a comma.,NA,y,9328,NA,NA,-1,-1,NA,NA,NA,,1
w10011164_tal,mggj13xne9,BOI Norms,1,22,2022-11-17T20:26:47+00:00,37.30198908,11,updated stim.csv,Version36.csv,Version 36,List 36,curler,NA,1068,4.454545455,730,1069,BOI,-,-,Please name all of the ways you could use this object. Keep in mind that one object can have many uses. Separate your responses with a comma.,NA,y,36974,NA,NA,2245,36745,NA,NA,NA,"curl hair, burn, cook, bought, gifted, returned, broken",1
w10011164_tal,mggj13xne9,BOI Norms,1,23,2022-11-17T20:27:03+00:00,15.46957088,11,updated stim.csv,Version36.csv,Version 36,List 36,houseboat,NA,1071,4.956521739,1327,1072,BOI,-,-,Please name all of the ways you could use this object. Keep in mind that one object can have many uses. Separate your responses with a comma.,NA,y,15206,NA,NA,2496,12663,NA,NA,NA,"live in, sail, sell, buy",1
w10011164_tal,mggj13xne9,BOI Norms,1,24,2022-11-17T20:27:23+00:00,20.29299402,11,updated stim.csv,Version36.csv,Version 36,List 36,male,NA,1057,5.5,1581,1058,BOI,-,-,Please name all of the ways you could use this object. Keep in mind that one object can have many uses. Separate your responses with a comma.,NA,y,19771,NA,NA,5165,17679,NA,NA,NA,"help, advice, sex, husband, friend",1
w10011164_tal,mggj13xne9,BOI Norms,1,25,2022-11-17T20:27:46+00:00,22.66093802,11,updated stim.csv,Version36.csv,Version 36,List 36,motorcycle,NA,1066,5.555555556,1696,1067,BOI,-,-,Please name all of the ways you could use this object. Keep in mind that one object can have many uses. Separate your responses with a comma.,NA,y,22433,NA,NA,1320,22023,NA,NA,NA,"ride, sell, fix, clean, fuel, buy",1
w10011164_tal,mggj13xne9,BOI Norms,1,26,2022-11-17T20:27:54+00:00,8.864706993,11,updated stim.csv,Version36.csv,Version 36,List 36,harmonica,NA,1061,6.416666667,1251,1062,BOI,-,-,Please name all of the ways you could use this object. Keep in mind that one object can have many uses. Separate your responses with a comma.,NA,y,8462,NA,NA,1167,7508,NA,NA,NA,"play, sell, listen, ",1
w10011164_tal,mggj13xne9,BOI Norms,1,27,2022-11-17T20:28:01+00:00,6.857680082,11,updated stim.csv,Version36.csv,Version 36,List 36,manicure,NA,1080,4.730769231,1590,1081,BOI,-,-,Please name all of the ways you could use this object. Keep in mind that one object can have many uses. Separate your responses with a comma.,NA,y,6471,NA,NA,4436,5717,NA,NA,NA,fix nails,1
w10011164_tal,mggj13xne9,BOI Norms,1,28,2022-11-17T20:28:09+00:00,7.378609896,11,updated stim.csv,Version36.csv,Version 36,List 36,edibles,NA,1063,5.428571429,888,1064,BOI,-,-,Please name all of the ways you could use this object. Keep in mind that one object can have many uses. Separate your responses with a comma.,NA,y,6979,NA,NA,1785,5239,NA,NA,NA,"eat, gift, buy",1
w10011164_tal,mggj13xne9,BOI Norms,1,29,2022-11-17T20:28:23+00:00,14.52064919,11,updated stim.csv,Version36.csv,Version 36,List 36,woodshed,NA,1051,5.25,2964,1052,BOI,-,-,Please name all of the ways you could use this object. Keep in mind that one object can have many uses. Separate your responses with a comma.,NA,y,14127,NA,NA,1490,9738,NA,NA,NA,"store wood and tools, ",1
w10011164_tal,mggj13xne9,BOI Norms,1,30,2022-11-17T20:28:43+00:00,19.36388397,11,updated stim.csv,Version36.csv,Version 36,List 36,beagle,NA,1075,5.2,179,1076,BOI,-,-,Please name all of the ways you could use this object. Keep in mind that one object can have many uses. Separate your responses with a comma.,NA,y,18928,NA,NA,2179,15325,NA,NA,NA,"friend, train, feed, walk, pet",1
w10011164_tal,mggj13xne9,BOI Norms,1,31,2022-11-17T20:28:47+00:00,4.448901892,11,updated stim.csv,Version36.csv,Version 36,List 36,rain,NA,1067,4.958333333,2129,1068,BOI,-,-,Please name all of the ways you could use this object. Keep in mind that one object can have many uses. Separate your responses with a comma.,NA,y,4211,NA,NA,1478,2979,NA,NA,NA,"watch, ",1
w10011164_tal,mggj13xne9,BOI Norms,1,32,2022-11-17T20:28:54+00:00,6.885388136,11,updated stim.csv,Version36.csv,Version 36,List 36,laxative,NA,1052,5.206896552,1476,1053,BOI,-,-,Please name all of the ways you could use this object. Keep in mind that one object can have many uses. Separate your responses with a comma.,NA,y,6502,NA,NA,1379,5915,NA,NA,NA,"take, give, buy, ",1
w10011164_tal,mggj13xne9,BOI Norms,1,33,2022-11-17T20:28:58+00:00,3.725082874,11,updated stim.csv,Version36.csv,Version 36,List 36,ductwork,NA,1056,4.52173913,862,1057,BOI,-,-,Please name all of the ways you could use this object. Keep in mind that one object can have many uses. Separate your responses with a comma.,NA,y,3520,NA,NA,-1,-1,NA,NA,NA,,1
w10011164_tal,mggj13xne9,BOI Norms,1,34,2022-11-17T20:29:08+00:00,10.58849502,11,updated stim.csv,Version36.csv,Version 36,List 36,evergreen,NA,1078,4.444444444,923,1079,BOI,-,-,Please name all of the ways you could use this object. Keep in mind that one object can have many uses. Separate your responses with a comma.,NA,y,10323,NA,NA,4317,5611,NA,NA,NA,"cut down, ",1
w10011164_tal,mggj13xne9,BOI Norms,1,35,2022-11-17T20:29:18+00:00,10.29165006,11,updated stim.csv,Version36.csv,Version 36,List 36,alfalfa,NA,1073,5.045454545,26,1074,BOI,-,-,Please name all of the ways you could use this object. Keep in mind that one object can have many uses. Separate your responses with a comma.,NA,y,9823,NA,NA,3486,6357,NA,NA,NA,feed animals,1
w10011164_tal,mggj13xne9,BOI Norms,1,36,2022-11-17T20:29:30+00:00,11.98024201,11,updated stim.csv,Version36.csv,Version 36,List 36,flashbulb,NA,1076,4.375,1001,1077,BOI,-,-,Please name all of the ways you could use this object. Keep in mind that one object can have many uses. Separate your responses with a comma.,NA,y,11693,NA,NA,-1,-1,NA,NA,NA,,1
w10011164_tal,mggj13xne9,BOI Norms,1,37,2022-11-17T20:29:39+00:00,8.420854807,11,updated stim.csv,Version36.csv,Version 36,List 36,telescope,NA,1059,5.916666667,2659,1060,BOI,-,-,Please name all of the ways you could use this object. Keep in mind that one object can have many uses. Separate your responses with a comma.,NA,y,7999,NA,NA,1407,3097,NA,NA,NA,look at sky,1
w10011164_tal,mggj13xne9,BOI Norms,1,38,2022-11-17T20:29:48+00:00,9.446813107,11,updated stim.csv,Version36.csv,Version 36,List 36,teardrop,NA,1064,4.695652174,2651,1065,BOI,-,-,Please name all of the ways you could use this object. Keep in mind that one object can have many uses. Separate your responses with a comma.,NA,y,9035,NA,NA,1715,6986,NA,NA,NA,"cry, wipe away",1
w10011164_tal,mggj13xne9,BOI Norms,1,39,2022-11-17T20:29:58+00:00,9.755271912,11,updated stim.csv,Version36.csv,Version 36,List 36,screwdriver,NA,1069,6.52173913,2287,1070,BOI,-,-,Please name all of the ways you could use this object. Keep in mind that one object can have many uses. Separate your responses with a comma.,NA,y,9403,NA,NA,890,8614,NA,NA,NA,"fix things, build things, buy ",1
w10011164_tal,mggj13xne9,BOI Norms,1,40,2022-11-17T20:30:12+00:00,13.42808318,11,updated stim.csv,Version36.csv,Version 36,List 36,vitamins,NA,1077,5.12,2870,1078,BOI,-,-,Please name all of the ways you could use this object. Keep in mind that one object can have many uses. Separate your responses with a comma.,NA,y,11951,NA,NA,1178,10785,NA,NA,NA,"take, prescribe, buy, return",1
w10011881DND,o04zwod4l1,BOI Norms,1,11,2022-10-19T19:37:12+00:00,27.24028301,12,updated stim.csv,Version37.csv,Version 37,List 37,vase,NA,1081,5.36,2838,1082,BOI,-,-,Please name all of the ways you could use this object. Keep in mind that one object can have many uses. Separate your responses with a comma.,NA,y,26817,NA,NA,11688,22775,NA,NA,NA,"thrown, placed on,",1
w10011881DND,o04zwod4l1,BOI Norms,1,12,2022-10-19T19:37:37+00:00,24.37651396,12,updated stim.csv,Version37.csv,Version 37,List 37,glue,NA,1106,5.043478261,1118,1107,BOI,-,-,Please name all of the ways you could use this object. Keep in mind that one object can have many uses. Separate your responses with a comma.,NA,y,23914,NA,NA,4655,21366,NA,NA,NA,"crafting, holding together, fixing",1
w10011881DND,o04zwod4l1,BOI Norms,1,13,2022-10-19T19:37:52+00:00,15.43940997,12,updated stim.csv,Version37.csv,Version 37,List 37,scorecard,NA,1090,4.875,2279,1091,BOI,-,-,Please name all of the ways you could use this object. Keep in mind that one object can have many uses. Separate your responses with a comma.,NA,y,14753,NA,NA,10910,12716,NA,NA,NA,recording,1
w10011881DND,o04zwod4l1,BOI Norms,1,14,2022-10-19T19:38:11+00:00,18.86077499,12,updated stim.csv,Version37.csv,Version 37,List 37,toffee,NA,1091,5.608695652,2716,1092,BOI,-,-,Please name all of the ways you could use this object. Keep in mind that one object can have many uses. Separate your responses with a comma.,NA,y,18442,NA,NA,2700,7465,NA,NA,NA,"eaten, baked",1
w10011881DND,o04zwod4l1,BOI Norms,1,15,2022-10-19T19:38:32+00:00,21.08192396,12,updated stim.csv,Version37.csv,Version 37,List 37,clover,NA,1089,4.695652174,574,1090,BOI,-,-,Please name all of the ways you could use this object. Keep in mind that one object can have many uses. Separate your responses with a comma.,NA,y,20589,NA,NA,3456,18842,NA,NA,NA,"cooked, picked, bought, stored",1
w10011881DND,o04zwod4l1,BOI Norms,1,16,2022-10-19T19:38:54+00:00,22.250664,12,updated stim.csv,Version37.csv,Version 37,List 37,rag,NA,1085,5.666666667,2126,1086,BOI,-,-,Please name all of the ways you could use this object. Keep in mind that one object can have many uses. Separate your responses with a comma.,NA,y,21840,NA,NA,3463,13540,NA,NA,NA,"washed, wiped",1
w10011881DND,o04zwod4l1,BOI Norms,1,17,2022-10-19T19:39:13+00:00,18.66855192,12,updated stim.csv,Version37.csv,Version 37,List 37,stereo,NA,1102,5.68,2531,1103,BOI,-,-,Please name all of the ways you could use this object. Keep in mind that one object can have many uses. Separate your responses with a comma.,NA,y,18171,NA,NA,3945,12791,NA,NA,NA,"plays, plugged in, ",1
w10011881DND,o04zwod4l1,BOI Norms,1,18,2022-10-19T19:39:35+00:00,21.98931813,12,updated stim.csv,Version37.csv,Version 37,List 37,shirttail,NA,1093,5.333333333,2348,1094,BOI,-,-,Please name all of the ways you could use this object. Keep in mind that one object can have many uses. Separate your responses with a comma.,NA,y,21519,NA,NA,4071,19911,NA,NA,NA,"hangs, dangles, drags",1
w10011881DND,o04zwod4l1,BOI Norms,1,19,2022-10-19T19:40:12+00:00,37.29691887,12,updated stim.csv,Version37.csv,Version 37,List 37,twig,NA,1109,5.28,2811,1110,BOI,-,-,Please name all of the ways you could use this object. Keep in mind that one object can have many uses. Separate your responses with a comma.,NA,y,36581,NA,NA,3027,35092,NA,NA,NA,"thrown, placed, built, drug",1
w10011881DND,o04zwod4l1,BOI Norms,1,20,2022-10-19T19:40:35+00:00,22.88392806,12,updated stim.csv,Version37.csv,Version 37,List 37,lotion,NA,1097,6.28,1548,1098,BOI,-,-,Please name all of the ways you could use this object. Keep in mind that one object can have many uses. Separate your responses with a comma.,NA,y,22451,NA,NA,3220,18529,NA,NA,NA,"lathered, rubbed in",1
w10011881DND,o04zwod4l1,BOI Norms,1,21,2022-10-19T19:40:54+00:00,18.32118607,12,updated stim.csv,Version37.csv,Version 37,List 37,jet,NA,1084,5.041666667,1383,1085,BOI,-,-,Please name all of the ways you could use this object. Keep in mind that one object can have many uses. Separate your responses with a comma.,NA,y,17620,NA,NA,4296,14945,NA,NA,NA,"flown, landing",1
w10011881DND,o04zwod4l1,BOI Norms,1,22,2022-10-19T19:41:09+00:00,15.0683341,12,updated stim.csv,Version37.csv,Version 37,List 37,forklift,NA,1094,5.541666667,1048,1095,BOI,-,-,Please name all of the ways you could use this object. Keep in mind that one object can have many uses. Separate your responses with a comma.,NA,y,14667,NA,NA,10749,13149,NA,NA,NA,transfer,1
w10011881DND,o04zwod4l1,BOI Norms,1,23,2022-10-19T19:41:46+00:00,37.72392488,12,updated stim.csv,Version37.csv,Version 37,List 37,jeweler,NA,1100,4.695652174,1385,1101,BOI,-,-,Please name all of the ways you could use this object. Keep in mind that one object can have many uses. Separate your responses with a comma.,NA,y,37298,NA,NA,20442,34809,NA,NA,NA,"design, create, make",1
w10011881DND,o04zwod4l1,BOI Norms,1,24,2022-10-19T19:42:09+00:00,22.927068,12,updated stim.csv,Version37.csv,Version 37,List 37,chair,NA,1110,6.88,485,1111,BOI,-,-,Please name all of the ways you could use this object. Keep in mind that one object can have many uses. Separate your responses with a comma.,NA,y,22522,NA,NA,1487,19101,NA,NA,NA,"sit, stand, lean",1
w10011881DND,o04zwod4l1,BOI Norms,1,25,2022-10-19T19:42:21+00:00,11.49857712,12,updated stim.csv,Version37.csv,Version 37,List 37,rosary,NA,1082,5.791666667,2193,1083,BOI,-,-,Please name all of the ways you could use this object. Keep in mind that one object can have many uses. Separate your responses with a comma.,NA,y,11082,NA,NA,1993,5947,NA,NA,NA,"pray, faith",1
w10011881DND,o04zwod4l1,BOI Norms,1,26,2022-10-19T19:42:44+00:00,22.86142588,12,updated stim.csv,Version37.csv,Version 37,List 37,handle,NA,1086,4.958333333,1239,1087,BOI,-,-,Please name all of the ways you could use this object. Keep in mind that one object can have many uses. Separate your responses with a comma.,NA,y,22223,NA,NA,2948,19991,NA,NA,NA,"turn, open, close, grip",1
w10011881DND,o04zwod4l1,BOI Norms,1,27,2022-10-19T19:43:00+00:00,16.01288891,12,updated stim.csv,Version37.csv,Version 37,List 37,critter,NA,1087,4.863636364,697,1088,BOI,-,-,Please name all of the ways you could use this object. Keep in mind that one object can have many uses. Separate your responses with a comma.,NA,y,15453,NA,NA,2552,13475,NA,NA,NA,"crawl, bite, sleep, eat, reproduce",1
w10011881DND,o04zwod4l1,BOI Norms,1,28,2022-10-19T19:43:12+00:00,12.42487717,12,updated stim.csv,Version37.csv,Version 37,List 37,pistachio,NA,1101,5.541666667,1978,1102,BOI,-,-,Please name all of the ways you could use this object. Keep in mind that one object can have many uses. Separate your responses with a comma.,NA,y,11750,NA,NA,1612,9851,NA,NA,NA,"eat, bake, cook, mix",1
w10011881DND,o04zwod4l1,BOI Norms,1,29,2022-10-19T19:43:37+00:00,25.03382397,12,updated stim.csv,Version37.csv,Version 37,List 37,elephant,NA,1108,4.36,900,1109,BOI,-,-,Please name all of the ways you could use this object. Keep in mind that one object can have many uses. Separate your responses with a comma.,NA,y,24553,NA,NA,2802,21195,NA,NA,NA,"eat, reproduce, walk,",1
w10011881DND,o04zwod4l1,BOI Norms,1,30,2022-10-19T19:43:52+00:00,14.48786497,12,updated stim.csv,Version37.csv,Version 37,List 37,greenery,NA,1103,4.375,1170,1104,BOI,-,-,Please name all of the ways you could use this object. Keep in mind that one object can have many uses. Separate your responses with a comma.,NA,y,14070,NA,NA,2638,8152,NA,NA,NA,"decoration, design",1
w10011881DND,o04zwod4l1,BOI Norms,1,31,2022-10-19T19:44:08+00:00,16.17822409,12,updated stim.csv,Version37.csv,Version 37,List 37,mustard,NA,1104,5.8,1727,1105,BOI,-,-,Please name all of the ways you could use this object. Keep in mind that one object can have many uses. Separate your responses with a comma.,NA,y,15414,NA,NA,6649,13677,NA,NA,NA,"season, cook, mix",1
w10011881DND,o04zwod4l1,BOI Norms,1,32,2022-10-19T19:44:30+00:00,22.49002481,12,updated stim.csv,Version37.csv,Version 37,List 37,gear,NA,1083,4.695652174,1091,1084,BOI,-,-,Please name all of the ways you could use this object. Keep in mind that one object can have many uses. Separate your responses with a comma.,NA,y,21930,NA,NA,1680,18674,NA,NA,NA,"protect, wear",1
w10011881DND,o04zwod4l1,BOI Norms,1,33,2022-10-19T19:44:47+00:00,16.54951406,12,updated stim.csv,Version37.csv,Version 37,List 37,tub,NA,1099,6.086956522,2789,1100,BOI,-,-,Please name all of the ways you could use this object. Keep in mind that one object can have many uses. Separate your responses with a comma.,NA,y,16094,NA,NA,1798,14583,NA,NA,NA,"bathe, soak, relax",1
w10011881DND,o04zwod4l1,BOI Norms,1,34,2022-10-19T19:45:04+00:00,17.17109299,12,updated stim.csv,Version37.csv,Version 37,List 37,dressing,NA,1098,5.08,845,1099,BOI,-,-,Please name all of the ways you could use this object. Keep in mind that one object can have many uses. Separate your responses with a comma.,NA,y,16764,NA,NA,5768,15206,NA,NA,NA,"season, eat, drink, cook, mix",1
w10011881DND,o04zwod4l1,BOI Norms,1,35,2022-10-19T19:45:28+00:00,24.16974497,12,updated stim.csv,Version37.csv,Version 37,List 37,locket,NA,1088,5.333333333,1537,1089,BOI,-,-,Please name all of the ways you could use this object. Keep in mind that one object can have many uses. Separate your responses with a comma.,NA,y,23527,NA,NA,12582,21662,NA,NA,NA,"necklace, keepsake, memory",1
w10011881DND,o04zwod4l1,BOI Norms,1,36,2022-10-19T19:45:40+00:00,12.10554504,12,updated stim.csv,Version37.csv,Version 37,List 37,lid,NA,1107,5.428571429,1503,1108,BOI,-,-,Please name all of the ways you could use this object. Keep in mind that one object can have many uses. Separate your responses with a comma.,NA,y,11490,NA,NA,1927,10091,NA,NA,NA,"store, protect, wash",1
w10011881DND,o04zwod4l1,BOI Norms,1,37,2022-10-19T19:46:06+00:00,25.96415305,12,updated stim.csv,Version37.csv,Version 37,List 37,auto,NA,1096,4.391304348,100,1097,BOI,-,-,Please name all of the ways you could use this object. Keep in mind that one object can have many uses. Separate your responses with a comma.,NA,y,25513,NA,NA,13312,23549,NA,NA,NA,"transport, move, drive",1
w10011881DND,o04zwod4l1,BOI Norms,1,38,2022-10-19T19:46:40+00:00,33.39307809,12,updated stim.csv,Version37.csv,Version 37,List 37,lamplight,NA,1095,4.291666667,1456,1096,BOI,-,-,Please name all of the ways you could use this object. Keep in mind that one object can have many uses. Separate your responses with a comma.,NA,y,32979,NA,NA,3583,27278,NA,NA,NA,"brighten, heat",1
w10011881DND,o04zwod4l1,BOI Norms,1,39,2022-10-19T19:46:51+00:00,11.44280195,12,updated stim.csv,Version37.csv,Version 37,List 37,tummy,NA,1105,5.125,2796,1106,BOI,-,-,Please name all of the ways you could use this object. Keep in mind that one object can have many uses. Separate your responses with a comma.,NA,y,10745,NA,NA,1856,8210,NA,NA,NA,"store, nutrition, digest",1
w10011881DND,o04zwod4l1,BOI Norms,1,40,2022-10-19T19:47:08+00:00,17.24634194,12,updated stim.csv,Version37.csv,Version 37,List 37,kneecap,NA,1092,5.714285714,1434,1093,BOI,-,-,Please name all of the ways you could use this object. Keep in mind that one object can have many uses. Separate your responses with a comma.,NA,y,16827,NA,NA,1798,15173,NA,NA,NA,"bend, support, move, walk",1
w10030828_aes,64mqf7bk55,BOI Norms,1,11,2022-10-24T17:01:35+00:00,44.37890887,25,updated stim.csv,Version50.csv,Version 50,List 50,houseboy,NA,1500,4.583333333,1328,1501,BOI,-,-,Please name all of the ways you could use this object. Keep in mind that one object can have many uses. Separate your responses with a comma.,NA,y,44046,NA,NA,4395,41702,NA,NA,NA,"clean house, handle needs, act as an assistant, do chores",1
w10030828_aes,64mqf7bk55,BOI Norms,1,12,2022-10-24T17:02:07+00:00,31.60638714,25,updated stim.csv,Version50.csv,Version 50,List 50,wildcat,NA,1474,4.583333333,2938,1475,BOI,-,-,Please name all of the ways you could use this object. Keep in mind that one object can have many uses. Separate your responses with a comma.,NA,y,31248,NA,NA,9251,29981,NA,NA,NA,"mascot, an animal that gets crazy, eats prey",1
w10030828_aes,64mqf7bk55,BOI Norms,1,13,2022-10-24T17:02:26+00:00,19.47781205,25,updated stim.csv,Version50.csv,Version 50,List 50,necktie,NA,1482,6.043478261,1742,1483,BOI,-,-,Please name all of the ways you could use this object. Keep in mind that one object can have many uses. Separate your responses with a comma.,NA,y,19121,NA,NA,4139,16202,NA,NA,NA,"wear to an event, put around collar, tie",1
w10030828_aes,64mqf7bk55,BOI Norms,1,14,2022-10-24T17:03:17+00:00,50.47582889,25,updated stim.csv,Version50.csv,Version 50,List 50,merchant,NA,1478,4.5,1648,1479,BOI,-,-,Please name all of the ways you could use this object. Keep in mind that one object can have many uses. Separate your responses with a comma.,NA,y,50139,NA,NA,15881,48494,NA,NA,NA,"sells trinkets, entertain customers, order inventory",1
w10030828_aes,64mqf7bk55,BOI Norms,1,15,2022-10-24T17:04:03+00:00,46.50360394,25,updated stim.csv,Version50.csv,Version 50,List 50,geranium,NA,1471,4.695652174,1099,1472,BOI,-,-,Please name all of the ways you could use this object. Keep in mind that one object can have many uses. Separate your responses with a comma.,NA,y,46155,NA,NA,20647,45019,NA,NA,NA,"list of plants, acts as a genus",1
w10030828_aes,64mqf7bk55,BOI Norms,1,16,2022-10-24T17:04:35+00:00,31.58091807,25,updated stim.csv,Version50.csv,Version 50,List 50,pullover,NA,1476,4.56,2093,1477,BOI,-,-,Please name all of the ways you could use this object. Keep in mind that one object can have many uses. Separate your responses with a comma.,NA,y,31240,NA,NA,6537,26927,NA,NA,NA,"pull something over on someone, pull a hoodie over head",1
w10030828_aes,64mqf7bk55,BOI Norms,1,17,2022-10-24T17:04:59+00:00,23.92671394,25,updated stim.csv,Version50.csv,Version 50,List 50,muzzle,NA,1490,4.391304348,1730,1491,BOI,-,-,Please name all of the ways you could use this object. Keep in mind that one object can have many uses. Separate your responses with a comma.,NA,y,23541,NA,NA,4164,21639,NA,NA,NA,"quiet a dog, keep a dog from biting",1
w10030828_aes,64mqf7bk55,BOI Norms,1,18,2022-10-24T17:05:30+00:00,31.15122104,25,updated stim.csv,Version50.csv,Version 50,List 50,orange,NA,1489,5.08,1814,1490,BOI,-,-,Please name all of the ways you could use this object. Keep in mind that one object can have many uses. Separate your responses with a comma.,NA,y,30788,NA,NA,8015,28643,NA,NA,NA,"the color of things, fruit to eat, flavor for chicken",1
w10030828_aes,64mqf7bk55,BOI Norms,1,19,2022-10-24T17:05:49+00:00,19.121979,25,updated stim.csv,Version50.csv,Version 50,List 50,cent,NA,1473,5.12,477,1474,BOI,-,-,Please name all of the ways you could use this object. Keep in mind that one object can have many uses. Separate your responses with a comma.,NA,y,18738,NA,NA,8273,17658,NA,NA,NA,"a coin, a piece of someone's mind",1
w10030828_aes,64mqf7bk55,BOI Norms,1,20,2022-10-24T17:06:07+00:00,17.51037312,25,updated stim.csv,Version50.csv,Version 50,List 50,joystick,NA,1472,6.12,1392,1473,BOI,-,-,Please name all of the ways you could use this object. Keep in mind that one object can have many uses. Separate your responses with a comma.,NA,y,17182,NA,NA,3775,15325,NA,NA,NA,"part of a controller, used to move in a video game",1
w10030828_aes,64mqf7bk55,BOI Norms,1,21,2022-10-24T17:06:21+00:00,14.37119389,25,updated stim.csv,Version50.csv,Version 50,List 50,pineapple,NA,1477,6.304347826,1971,1478,BOI,-,-,Please name all of the ways you could use this object. Keep in mind that one object can have many uses. Separate your responses with a comma.,NA,y,14046,NA,NA,2466,12145,NA,NA,NA,"part of a drink, a fruit, flavoring",1
w10030828_aes,64mqf7bk55,BOI Norms,1,22,2022-10-24T17:06:34+00:00,12.87835813,25,updated stim.csv,Version50.csv,Version 50,List 50,shallot,NA,1479,5.380952381,2319,1480,BOI,-,-,Please name all of the ways you could use this object. Keep in mind that one object can have many uses. Separate your responses with a comma.,NA,y,12526,NA,NA,6177,11264,NA,NA,NA,I do not know what this is,1
w10030828_aes,64mqf7bk55,BOI Norms,1,23,2022-10-24T17:07:33+00:00,59.12016988,25,updated stim.csv,Version50.csv,Version 50,List 50,coin,NA,1485,6.4,595,1486,BOI,-,-,Please name all of the ways you could use this object. Keep in mind that one object can have many uses. Separate your responses with a comma.,NA,y,58654,NA,NA,4008,56895,NA,NA,NA,"quarter, dime, nickel, penny, half dollar, pays for something",1
w10030828_aes,64mqf7bk55,BOI Norms,1,24,2022-10-24T17:08:00+00:00,27.48061705,25,updated stim.csv,Version50.csv,Version 50,List 50,drywall,NA,1481,5.208333333,858,1482,BOI,-,-,Please name all of the ways you could use this object. Keep in mind that one object can have many uses. Separate your responses with a comma.,NA,y,27098,NA,NA,3290,25737,NA,NA,NA,"fills inside of a wall, adds sound barrier",1
w10030828_aes,64mqf7bk55,BOI Norms,1,25,2022-10-24T17:08:21+00:00,20.36702085,25,updated stim.csv,Version50.csv,Version 50,List 50,poultry,NA,1487,4.826086957,2053,1488,BOI,-,-,Please name all of the ways you could use this object. Keep in mind that one object can have many uses. Separate your responses with a comma.,NA,y,19997,NA,NA,1352,18487,NA,NA,NA,"chicken, bake, cook, grill, raise, feed",1
w10030828_aes,64mqf7bk55,BOI Norms,1,26,2022-10-24T17:08:38+00:00,17.4675622,25,updated stim.csv,Version50.csv,Version 50,List 50,saddle,NA,1499,4.954545455,2212,1500,BOI,-,-,Please name all of the ways you could use this object. Keep in mind that one object can have many uses. Separate your responses with a comma.,NA,y,17116,NA,NA,3834,15739,NA,NA,NA,"ride in, put on a horse, keep you stable",1
w10030828_aes,64mqf7bk55,BOI Norms,1,27,2022-10-24T17:08:59+00:00,21.10932302,25,updated stim.csv,Version50.csv,Version 50,List 50,cliff,NA,1494,4.64,559,1495,BOI,-,-,Please name all of the ways you could use this object. Keep in mind that one object can have many uses. Separate your responses with a comma.,NA,y,20782,NA,NA,3537,18841,NA,NA,NA,"edge of a canyon, risk, potential to fall over",1
w10030828_aes,64mqf7bk55,BOI Norms,1,28,2022-10-24T17:09:21+00:00,21.715132,25,updated stim.csv,Version50.csv,Version 50,List 50,corset,NA,1493,5.44,653,1494,BOI,-,-,Please name all of the ways you could use this object. Keep in mind that one object can have many uses. Separate your responses with a comma.,NA,y,21329,NA,NA,4437,19293,NA,NA,NA,"trims waist, hurts ribcage, constricts breathing",1
w10030828_aes,64mqf7bk55,BOI Norms,1,29,2022-10-24T17:10:29+00:00,67.93133283,25,updated stim.csv,Version50.csv,Version 50,List 50,forehead,NA,1475,5.777777778,1045,1476,BOI,-,-,Please name all of the ways you could use this object. Keep in mind that one object can have many uses. Separate your responses with a comma.,NA,y,67588,NA,NA,60411,66587,NA,NA,NA,"protects brain, holds hair",1
w10030828_aes,64mqf7bk55,BOI Norms,1,30,2022-10-24T17:10:55+00:00,25.51435208,25,updated stim.csv,Version50.csv,Version 50,List 50,nanny,NA,1480,4.6,1734,1481,BOI,-,-,Please name all of the ways you could use this object. Keep in mind that one object can have many uses. Separate your responses with a comma.,NA,y,25153,NA,NA,3170,22514,NA,NA,NA,"watches children, helps with chores, feeds children",1
w10030828_aes,64mqf7bk55,BOI Norms,1,31,2022-10-24T17:11:47+00:00,52.76782799,25,updated stim.csv,Version50.csv,Version 50,List 50,sombrero,NA,1492,5.518518519,2449,1493,BOI,-,-,Please name all of the ways you could use this object. Keep in mind that one object can have many uses. Separate your responses with a comma.,NA,y,52401,NA,NA,5797,51070,NA,NA,NA,"shadows face, part of a culture",1
w10030828_aes,64mqf7bk55,BOI Norms,1,32,2022-10-24T17:12:51+00:00,63.36791897,25,updated stim.csv,Version50.csv,Version 50,List 50,celery,NA,1484,6.086956522,471,1485,BOI,-,-,Please name all of the ways you could use this object. Keep in mind that one object can have many uses. Separate your responses with a comma.,NA,y,63046,NA,NA,23811,61342,NA,NA,NA,"snack, part of southern cooking",1
w10030828_aes,64mqf7bk55,BOI Norms,1,33,2022-10-24T17:13:05+00:00,14.66086793,25,updated stim.csv,Version50.csv,Version 50,List 50,pudding,NA,1496,5.958333333,2088,1497,BOI,-,-,Please name all of the ways you could use this object. Keep in mind that one object can have many uses. Separate your responses with a comma.,NA,y,14299,NA,NA,3827,13017,NA,NA,NA,"eats, adds to a dessert",1
w10030828_aes,64mqf7bk55,BOI Norms,1,34,2022-10-24T17:14:41+00:00,95.46084619,25,updated stim.csv,Version50.csv,Version 50,List 50,shavings,NA,1498,4.6,2325,1499,BOI,-,-,Please name all of the ways you could use this object. Keep in mind that one object can have many uses. Separate your responses with a comma.,NA,y,95114,NA,NA,78533,93621,NA,NA,NA,"used for woodcarving, clean hair off of face and legs",1
w10030828_aes,64mqf7bk55,BOI Norms,1,35,2022-10-24T17:15:30+00:00,48.82045984,25,updated stim.csv,Version50.csv,Version 50,List 50,metal,NA,1491,5.130434783,1650,1492,BOI,-,-,Please name all of the ways you could use this object. Keep in mind that one object can have many uses. Separate your responses with a comma.,NA,y,48328,NA,NA,6328,46928,NA,NA,NA,"used to build things, used to weld",1
w10030828_aes,64mqf7bk55,BOI Norms,1,36,2022-10-24T17:15:48+00:00,18.87697816,25,updated stim.csv,Version50.csv,Version 50,List 50,potato,NA,1483,5.6,2047,1484,BOI,-,-,Please name all of the ways you could use this object. Keep in mind that one object can have many uses. Separate your responses with a comma.,NA,y,18473,NA,NA,2538,16930,NA,NA,NA,"bake, cook, mashed, eat",1
w10030828_aes,64mqf7bk55,BOI Norms,1,37,2022-10-24T17:17:36+00:00,107.506006,25,updated stim.csv,Version50.csv,Version 50,List 50,councilwoman,NA,1488,4.583333333,664,1489,BOI,-,-,Please name all of the ways you could use this object. Keep in mind that one object can have many uses. Separate your responses with a comma.,NA,y,107184,NA,NA,2544,106138,NA,NA,NA,"handles government issues, goes o meetings, represents people",1
w10030828_aes,64mqf7bk55,BOI Norms,1,38,2022-10-24T17:17:59+00:00,22.80848694,25,updated stim.csv,Version50.csv,Version 50,List 50,Ladder,NA,1497,6.117567568,1447,1498,BOI,-,-,Please name all of the ways you could use this object. Keep in mind that one object can have many uses. Separate your responses with a comma.,NA,y,22312,NA,NA,2531,12465,NA,NA,NA,"climb, reach tall things",1
w10030828_aes,64mqf7bk55,BOI Norms,1,39,2022-10-24T17:18:19+00:00,20.11783409,25,updated stim.csv,Version50.csv,Version 50,List 50,needle,NA,1495,5.739130435,1745,1496,BOI,-,-,Please name all of the ways you could use this object. Keep in mind that one object can have many uses. Separate your responses with a comma.,NA,y,19770,NA,NA,1986,18510,NA,NA,NA,"thread, sew, fix ripped clothes",1
w10030828_aes,64mqf7bk55,BOI Norms,1,40,2022-10-24T17:18:39+00:00,20.57314682,25,updated stim.csv,Version50.csv,Version 50,List 50,grandson,NA,1486,5.785714286,1153,1487,BOI,-,-,Please name all of the ways you could use this object. Keep in mind that one object can have many uses. Separate your responses with a comma.,NA,y,20247,NA,NA,3710,17160,NA,NA,NA,"act as a son, act as a grandson",1
w10030831_AS,y94tad7v06,BOI Norms,1,11,2022-11-08T21:40:32+00:00,20.42086601,10,updated stim.csv,Version35.csv,Version 35,List 35,fountain,NA,1049,5.208333333,1050,1050,BOI,-,-,Please name all of the ways you could use this object. Keep in mind that one object can have many uses. Separate your responses with a comma.,NA,y,20268,NA,NA,7187,14709,NA,NA,NA,"to make a wish, to sit by",1
w10030831_AS,y94tad7v06,BOI Norms,1,12,2022-11-08T21:40:50+00:00,18.51510715,10,updated stim.csv,Version35.csv,Version 35,List 35,coke,NA,1023,6.2,596,1024,BOI,-,-,Please name all of the ways you could use this object. Keep in mind that one object can have many uses. Separate your responses with a comma.,NA,y,18354,NA,NA,5878,16563,NA,NA,NA,"to drink, experiment with",1
w10030831_AS,y94tad7v06,BOI Norms,1,13,2022-11-08T21:41:13+00:00,23.14640188,10,updated stim.csv,Version35.csv,Version 35,List 35,Toilet,NA,1024,6.368918919,2719,1025,BOI,-,-,Please name all of the ways you could use this object. Keep in mind that one object can have many uses. Separate your responses with a comma.,NA,y,22997,NA,NA,7267,20701,NA,NA,NA,to use the bathroom or dispose an item,1
w10030831_AS,y94tad7v06,BOI Norms,1,14,2022-11-08T21:41:39+00:00,25.84132695,10,updated stim.csv,Version35.csv,Version 35,List 35,toboggan,NA,1027,5.68,2713,1028,BOI,-,-,Please name all of the ways you could use this object. Keep in mind that one object can have many uses. Separate your responses with a comma.,NA,y,25682,NA,NA,22360,24000,NA,NA,NA,to ride on,1
w10030831_AS,y94tad7v06,BOI Norms,1,15,2022-11-08T21:41:55+00:00,16.18286014,10,updated stim.csv,Version35.csv,Version 35,List 35,tobacco,NA,1038,5.666666667,2712,1039,BOI,-,-,Please name all of the ways you could use this object. Keep in mind that one object can have many uses. Separate your responses with a comma.,NA,y,16025,NA,NA,4114,10727,NA,NA,NA,to smoke ,1
w10030831_AS,y94tad7v06,BOI Norms,1,16,2022-11-08T21:42:13+00:00,17.75390506,10,updated stim.csv,Version35.csv,Version 35,List 35,broom,NA,1022,6.416666667,332,1023,BOI,-,-,Please name all of the ways you could use this object. Keep in mind that one object can have many uses. Separate your responses with a comma.,NA,y,17608,NA,NA,6614,13155,NA,NA,NA,"to clean, play with",1
w10030831_AS,y94tad7v06,BOI Norms,1,17,2022-11-08T21:43:18+00:00,64.86468291,10,updated stim.csv,Version35.csv,Version 35,List 35,genitalia,NA,1034,5.64,1096,1035,BOI,-,-,Please name all of the ways you could use this object. Keep in mind that one object can have many uses. Separate your responses with a comma.,NA,y,64715,NA,NA,18603,58430,NA,NA,NA,"to remove waste from your body, or reproduce",1
w10030831_AS,y94tad7v06,BOI Norms,1,18,2022-11-08T21:43:54+00:00,35.93506289,10,updated stim.csv,Version35.csv,Version 35,List 35,partner,NA,1037,5.230769231,1879,1038,BOI,-,-,Please name all of the ways you could use this object. Keep in mind that one object can have many uses. Separate your responses with a comma.,NA,y,35806,NA,NA,2951,34196,NA,NA,NA,"use for company, for emotional support",1
w10030831_AS,y94tad7v06,BOI Norms,1,19,2022-11-08T21:45:03+00:00,68.85160398,10,updated stim.csv,Version35.csv,Version 35,List 35,watchmaker,NA,1050,4.56,2908,1051,BOI,-,-,Please name all of the ways you could use this object. Keep in mind that one object can have many uses. Separate your responses with a comma.,NA,y,68705,NA,NA,53169,65746,NA,NA,NA,"someone who creates watches, or creates times",1
w10030831_AS,y94tad7v06,BOI Norms,1,20,2022-11-08T21:45:27+00:00,24.59444213,10,updated stim.csv,Version35.csv,Version 35,List 35,workbook,NA,1029,5.703703704,2969,1030,BOI,-,-,Please name all of the ways you could use this object. Keep in mind that one object can have many uses. Separate your responses with a comma.,NA,y,24420,NA,NA,4317,22472,NA,NA,NA,"to learn, to get an assignment done",1
w10030831_AS,y94tad7v06,BOI Norms,1,21,2022-11-08T21:45:59+00:00,31.32008195,10,updated stim.csv,Version35.csv,Version 35,List 35,scar,NA,1025,4.608695652,2266,1026,BOI,-,-,Please name all of the ways you could use this object. Keep in mind that one object can have many uses. Separate your responses with a comma.,NA,y,31154,NA,NA,4734,28743,NA,NA,NA,"to tell a story, to hide, to enhance",1
w10030831_AS,y94tad7v06,BOI Norms,1,22,2022-11-08T21:46:32+00:00,33.72549701,10,updated stim.csv,Version35.csv,Version 35,List 35,farmhand,NA,1026,4.4,948,1027,BOI,-,-,Please name all of the ways you could use this object. Keep in mind that one object can have many uses. Separate your responses with a comma.,NA,y,33555,NA,NA,16362,31691,NA,NA,NA,to help on a farm,1
w10030831_AS,y94tad7v06,BOI Norms,1,23,2022-11-08T21:46:43+00:00,10.2859931,10,updated stim.csv,Version35.csv,Version 35,List 35,caseworker,NA,1039,4.32,447,1040,BOI,-,-,Please name all of the ways you could use this object. Keep in mind that one object can have many uses. Separate your responses with a comma.,NA,y,10138,NA,NA,5152,8624,NA,NA,NA,to study cases,1
w10030831_AS,y94tad7v06,BOI Norms,1,24,2022-11-08T21:47:04+00:00,21.47662282,10,updated stim.csv,Version35.csv,Version 35,List 35,nurse,NA,1033,5.130434783,1786,1034,BOI,-,-,Please name all of the ways you could use this object. Keep in mind that one object can have many uses. Separate your responses with a comma.,NA,y,21309,NA,NA,3692,19754,NA,NA,NA,"to make someone feel better, or for company reasons",1
w10030831_AS,y94tad7v06,BOI Norms,1,25,2022-11-08T21:47:14+00:00,9.809277058,10,updated stim.csv,Version35.csv,Version 35,List 35,shortcake,NA,1030,5.846153846,2357,1031,BOI,-,-,Please name all of the ways you could use this object. Keep in mind that one object can have many uses. Separate your responses with a comma.,NA,y,9661,NA,NA,1770,8018,NA,NA,NA,"to eat, to decorate",1
w10030831_AS,y94tad7v06,BOI Norms,1,26,2022-11-08T21:47:27+00:00,12.97460508,10,updated stim.csv,Version35.csv,Version 35,List 35,encyclopedia,NA,1042,6.16,906,1043,BOI,-,-,Please name all of the ways you could use this object. Keep in mind that one object can have many uses. Separate your responses with a comma.,NA,y,12822,NA,NA,1614,11288,NA,NA,NA,"to find definitions, to inform others",1
w10030831_AS,y94tad7v06,BOI Norms,1,27,2022-11-08T21:48:01+00:00,33.66404986,10,updated stim.csv,Version35.csv,Version 35,List 35,watch,NA,1041,5.269230769,2905,1042,BOI,-,-,Please name all of the ways you could use this object. Keep in mind that one object can have many uses. Separate your responses with a comma.,NA,y,33531,NA,NA,1445,31762,NA,NA,NA,"used to find out the time, or used to time others",1
w10030831_AS,y94tad7v06,BOI Norms,1,28,2022-11-08T21:48:26+00:00,25.15700698,10,updated stim.csv,Version35.csv,Version 35,List 35,cream,NA,1035,5.153846154,688,1036,BOI,-,-,Please name all of the ways you could use this object. Keep in mind that one object can have many uses. Separate your responses with a comma.,NA,y,25024,NA,NA,3514,23344,NA,NA,NA,"as a topping, or incorporated in a dish",1
w10030831_AS,y94tad7v06,BOI Norms,1,29,2022-11-08T21:48:55+00:00,29.082407,10,updated stim.csv,Version35.csv,Version 35,List 35,stethoscope,NA,1031,5.8,2533,1032,BOI,-,-,Please name all of the ways you could use this object. Keep in mind that one object can have many uses. Separate your responses with a comma.,NA,y,28943,NA,NA,21371,27298,NA,NA,NA,used to track heart rate,1
w10030831_AS,y94tad7v06,BOI Norms,1,30,2022-11-08T21:49:31+00:00,36.32000017,10,updated stim.csv,Version35.csv,Version 35,List 35,neck,NA,1032,6.12,1738,1033,BOI,-,-,Please name all of the ways you could use this object. Keep in mind that one object can have many uses. Separate your responses with a comma.,NA,y,36191,NA,NA,4777,34624,NA,NA,NA,"used to be able to speak, and swallow",1
w10030831_AS,y94tad7v06,BOI Norms,1,31,2022-11-08T21:49:47+00:00,16.25659585,10,updated stim.csv,Version35.csv,Version 35,List 35,patrolman,NA,1044,4.814814815,1888,1045,BOI,-,-,Please name all of the ways you could use this object. Keep in mind that one object can have many uses. Separate your responses with a comma.,NA,y,16144,NA,NA,5751,14766,NA,NA,NA,"organizes traffic, or crowds",1
w10030831_AS,y94tad7v06,BOI Norms,1,32,2022-11-08T21:50:07+00:00,19.32144904,10,updated stim.csv,Version35.csv,Version 35,List 35,goat,NA,1045,4.8,1122,1046,BOI,-,-,Please name all of the ways you could use this object. Keep in mind that one object can have many uses. Separate your responses with a comma.,NA,y,19177,NA,NA,1829,17922,NA,NA,NA,"for producing milk, or use as a pet",1
w10030831_AS,y94tad7v06,BOI Norms,1,33,2022-11-08T21:50:31+00:00,24.60166407,10,updated stim.csv,Version35.csv,Version 35,List 35,slipcover,NA,1036,5.409090909,2415,1037,BOI,-,-,Please name all of the ways you could use this object. Keep in mind that one object can have many uses. Separate your responses with a comma.,NA,y,24191,NA,NA,3617,22979,NA,NA,NA,"to cover an item, to secure something in place",1
w10030831_AS,y94tad7v06,BOI Norms,1,34,2022-11-08T21:51:07+00:00,35.28368402,10,updated stim.csv,Version35.csv,Version 35,List 35,machetes,NA,1040,5.260869565,1566,1041,BOI,-,-,Please name all of the ways you could use this object. Keep in mind that one object can have many uses. Separate your responses with a comma.,NA,y,35143,NA,NA,19682,33671,NA,NA,NA,"to cut an object, or for defense purposes",1
w10030831_AS,y94tad7v06,BOI Norms,1,35,2022-11-08T21:51:25+00:00,18.56371689,10,updated stim.csv,Version35.csv,Version 35,List 35,corvette,NA,1043,5.875,654,1044,BOI,-,-,Please name all of the ways you could use this object. Keep in mind that one object can have many uses. Separate your responses with a comma.,NA,y,18396,NA,NA,2364,16761,NA,NA,NA,"to get to a location, or to showcase",1
w10030831_AS,y94tad7v06,BOI Norms,1,36,2022-11-08T21:52:08+00:00,43.2570641,10,updated stim.csv,Version35.csv,Version 35,List 35,fence,NA,1046,5.62962963,962,1047,BOI,-,-,Please name all of the ways you could use this object. Keep in mind that one object can have many uses. Separate your responses with a comma.,NA,y,43109,NA,NA,1435,41779,NA,NA,NA,"to contain, or protect a property",1
w10030831_AS,y94tad7v06,BOI Norms,1,37,2022-11-08T21:52:27+00:00,18.90443492,10,updated stim.csv,Version35.csv,Version 35,List 35,creamer,NA,1047,5.24,689,1048,BOI,-,-,Please name all of the ways you could use this object. Keep in mind that one object can have many uses. Separate your responses with a comma.,NA,y,18764,NA,NA,1341,17408,NA,NA,NA,"to make a drink sweeter, or creamier",1
w10030831_AS,y94tad7v06,BOI Norms,1,38,2022-11-08T21:52:47+00:00,19.67178011,10,updated stim.csv,Version35.csv,Version 35,List 35,lint,NA,1048,5.04,1520,1049,BOI,-,-,Please name all of the ways you could use this object. Keep in mind that one object can have many uses. Separate your responses with a comma.,NA,y,19527,NA,NA,11364,18225,NA,NA,NA,to see now dirty an object is,1
w10030831_AS,y94tad7v06,BOI Norms,1,39,2022-11-08T21:53:15+00:00,27.92033601,10,updated stim.csv,Version35.csv,Version 35,List 35,crumpet,NA,1021,5.136363636,715,1022,BOI,-,-,Please name all of the ways you could use this object. Keep in mind that one object can have many uses. Separate your responses with a comma.,NA,y,27779,NA,NA,17209,26354,NA,NA,NA,"to consume, to serve to others",1
w10030831_AS,y94tad7v06,BOI Norms,1,40,2022-11-08T21:53:33+00:00,18.54520798,10,updated stim.csv,Version35.csv,Version 35,List 35,receipt,NA,1028,5.28,2143,1029,BOI,-,-,Please name all of the ways you could use this object. Keep in mind that one object can have many uses. Separate your responses with a comma.,NA,y,18393,NA,NA,1909,16844,NA,NA,NA,"to get a refund, or to check charges",1
