Username,ID,ExperimentName,Session,Trial,Date,TimeDif,"Condition Number","Stimuli File","Order File","Condition Description","Condition Notes",Stimuli*Cue,Stimuli*Answer,Stimuli*Shuffle,"Stimuli*Stimuli Notes",Stimuli*Value,Stimuli*Rand,Procedure*Item,"Procedure*Trial Type","Procedure*Max Time","Procedure*Min Time",Procedure*Text,"Procedure*Procedure Notes",Procedure*Shuffle,Response*RT,Response*Response,Response*Accuracy,Response*RTfirst,Response*RTlast,Response*strictAcc,Response*lenientAcc,Response*focus,Response*JOL,Response*Focus
5995889da2bbe000018833d9,56lpzofy0q,"Affordance Norms_Prolific",1,1,2023-07-28T14:24:19+00:00,16.794439077377,1,"updated stim.csv",Version1.csv,"Version 1","List 1",,,,,,,0,Instruct,-,10,"In this section, you will be presented with a series of objects. Please name as many possible uses for this object as you can think of by typing them in the box below each object.",,Instruct1,15296,,,-1,-1,,,,,1
5995889da2bbe000018833d9,56lpzofy0q,"Affordance Norms_Prolific",1,2,2023-07-28T14:24:34+00:00,14.475625038147,1,"updated stim.csv",Version1.csv,"Version 1","List 1",,,,,,,0,Instruct,-,10,"Please keep in mind that a single object will have more than one use. For example, a ball can be thrown or can be bounced or even stepped on. When listing multiple uses for one object, please separate each use with a comma (i.e., thrown, bounced, stepped on)",,Instruct2,11084,,,-1,-1,,,,,1
5995889da2bbe000018833d9,56lpzofy0q,"Affordance Norms_Prolific",1,3,2023-07-28T14:24:42+00:00,8.3743100166321,1,"updated stim.csv",Version1.csv,"Version 1","List 1",,,,,,,0,Instruct,-,-,"Before starting the experiment, you will complete a short practice sesstion. Press ENTER when you are ready to begin.",,Instruct3,4319,,,-1,-1,,,,,1
5995889da2bbe000018833d9,56lpzofy0q,"Affordance Norms_Prolific",1,4,2023-07-28T14:25:08+00:00,25.69967508316,1,"updated stim.csv",Version1.csv,"Version 1","List 1",grain,,635,4.708333333,1700,0.685106443,636,BOI,-,-,"Please name all of the ways you could use this object. Keep in mind that one object can have many uses. Separate your responses with a comma.",,n,23792,,,3545,22710,,,,"cooked, coloured, sensory toy ",1
5995889da2bbe000018833d9,56lpzofy0q,"Affordance Norms_Prolific",1,5,2023-07-28T14:25:57+00:00,48.962430953979,1,"updated stim.csv",Version1.csv,"Version 1","List 1",paperwork,,632,4.28,439,0.557499565,633,BOI,-,-,"Please name all of the ways you could use this object. Keep in mind that one object can have many uses. Separate your responses with a comma.",,n,47325,,,11323,46895,,,,"information, booklet, poster, schhol work, scripts, stories ",1
5995889da2bbe000018833d9,56lpzofy0q,"Affordance Norms_Prolific",1,6,2023-07-28T14:26:33+00:00,36.335657835007,1,"updated stim.csv",Version1.csv,"Version 1","List 1",glove,,631,5.217391304,2788,0.288599309,632,BOI,-,-,"Please name all of the ways you could use this object. Keep in mind that one object can have many uses. Separate your responses with a comma.",,n,32866,,,4507,27995,,,,"protection, keep hands warm, gardening, ",1
5995889da2bbe000018833d9,56lpzofy0q,"Affordance Norms_Prolific",1,7,2023-07-28T14:27:05+00:00,31.766204118729,1,"updated stim.csv",Version1.csv,"Version 1","List 1",spaghetti,,634,4.608695652,2807,0.295026168,635,BOI,-,-,"Please name all of the ways you could use this object. Keep in mind that one object can have many uses. Separate your responses with a comma.",,n,28210,,,6908,27924,,,,"cooked, eaten, decorated, ",1
5995889da2bbe000018833d9,56lpzofy0q,"Affordance Norms_Prolific",1,8,2023-07-28T14:27:27+00:00,22.625006914139,1,"updated stim.csv",Version1.csv,"Version 1","List 1",shortening,,633,4.961538462,2303,0.081957919,634,BOI,-,-,"Please name all of the ways you could use this object. Keep in mind that one object can have many uses. Separate your responses with a comma.",,n,21814,,,3882,21582,,,,"making smaller, cutting, making more managable ",1
5995889da2bbe000018833d9,56lpzofy0q,"Affordance Norms_Prolific",1,9,2023-07-28T14:27:29+00:00,2.0232260227203,1,"updated stim.csv",Version1.csv,"Version 1","List 1",,,,,,,0,Instruct,-,-,"You have completed this section. Press ENTER to continue",,"Instruct 5",1563,,,-1,-1,,,,,1
5995889da2bbe000018833d9,56lpzofy0q,"Affordance Norms_Prolific",1,10,2023-07-28T14:27:31+00:00,1.7556281089783,1,"updated stim.csv",Version1.csv,"Version 1","List 1",,,,,,,0,Instruct,-,-,"You will now start the full experiment. Press ENTER when you are ready to begin.",,,1393,,,-1,-1,,,,,1
5995889da2bbe000018833d9,56lpzofy0q,"Affordance Norms_Prolific",1,11,2023-07-28T14:27:46+00:00,14.568192005157,1,"updated stim.csv",Version1.csv,"Version 1","List 1",smock,,3,5.76,1666,0.330502966,4,BOI,-,-,"Please name all of the ways you could use this object. Keep in mind that one object can have many uses. Separate your responses with a comma.",,y,13892,,,2156,13609,,,,"dress, body cover, protection, ",1
5995889da2bbe000018833d9,56lpzofy0q,"Affordance Norms_Prolific",1,12,2023-07-28T14:28:03+00:00,17.389128923416,1,"updated stim.csv",Version1.csv,"Version 1","List 1",loaf,,11,5.92,2708,0.629763414,12,BOI,-,-,"Please name all of the ways you could use this object. Keep in mind that one object can have many uses. Separate your responses with a comma.",,y,16726,,,3628,5595,,,,"eat, bake, ",1
5995889da2bbe000018833d9,56lpzofy0q,"Affordance Norms_Prolific",1,13,2023-07-28T14:28:28+00:00,25.181819915771,1,"updated stim.csv",Version1.csv,"Version 1","List 1",hinge,,7,6.230769231,308,0.981109369,8,BOI,-,-,"Please name all of the ways you could use this object. Keep in mind that one object can have many uses. Separate your responses with a comma.",,y,21467,,,3510,20763,,,,"hold door on frame, dating site, hang something",1
5995889da2bbe000018833d9,56lpzofy0q,"Affordance Norms_Prolific",1,14,2023-07-28T14:29:11+00:00,43.064686059952,1,"updated stim.csv",Version1.csv,"Version 1","List 1",ski,,18,4.666666667,1815,0.413937663,19,BOI,-,-,"Please name all of the ways you could use this object. Keep in mind that one object can have many uses. Separate your responses with a comma.",,y,41914,,,5293,41295,,,,"mountain, olympics, holiday, han gon wall ",1
5995889da2bbe000018833d9,56lpzofy0q,"Affordance Norms_Prolific",1,15,2023-07-28T14:29:38+00:00,27.094612121582,1,"updated stim.csv",Version1.csv,"Version 1","List 1",granite,,26,4.727272727,2510,0.797812576,27,BOI,-,-,"Please name all of the ways you could use this object. Keep in mind that one object can have many uses. Separate your responses with a comma.",,y,26400,,,2737,26120,,,,"work service, jewellery, building blocks, saucepans ",1
5995889da2bbe000018833d9,56lpzofy0q,"Affordance Norms_Prolific",1,16,2023-07-28T14:29:54+00:00,15.563560962677,1,"updated stim.csv",Version1.csv,"Version 1","List 1",amulet,,19,5.227272727,1241,0.629851612,20,BOI,-,-,"Please name all of the ways you could use this object. Keep in mind that one object can have many uses. Separate your responses with a comma.",,y,14863,,,2174,11884,,,,"jewellery, picture, holder, ",1
5995889da2bbe000018833d9,56lpzofy0q,"Affordance Norms_Prolific",1,17,2023-07-28T14:30:12+00:00,17.710959911346,1,"updated stim.csv",Version1.csv,"Version 1","List 1",dye,,23,4.84,1448,0.448711971,24,BOI,-,-,"Please name all of the ways you could use this object. Keep in mind that one object can have many uses. Separate your responses with a comma.",,y,16993,,,1764,16569,,,,"change colour, clothes, food, hair, skin ",1
5995889da2bbe000018833d9,56lpzofy0q,"Affordance Norms_Prolific",1,18,2023-07-28T14:30:21+00:00,9.731703042984,1,"updated stim.csv",Version1.csv,"Version 1","List 1",burlap,,10,6.25,323,0.73335018,11,BOI,-,-,"Please name all of the ways you could use this object. Keep in mind that one object can have many uses. Separate your responses with a comma.",,y,8900,,,4507,8736,,,,"not sure what this is ",1
5995889da2bbe000018833d9,56lpzofy0q,"Affordance Norms_Prolific",1,19,2023-07-28T14:30:44+00:00,22.139518976212,1,"updated stim.csv",Version1.csv,"Version 1","List 1",bully,,20,5.458333333,2953,0.249710528,21,BOI,-,-,"Please name all of the ways you could use this object. Keep in mind that one object can have many uses. Separate your responses with a comma.",,y,21611,,,1779,21349,,,,"mean, harmful, hurtful, nasty, child, adult, ",1
5995889da2bbe000018833d9,56lpzofy0q,"Affordance Norms_Prolific",1,20,2023-07-28T14:31:16+00:00,32.81077003479,1,"updated stim.csv",Version1.csv,"Version 1","List 1",apparatus,,1,4.538461538,764,0.261476603,2,BOI,-,-,"Please name all of the ways you could use this object. Keep in mind that one object can have many uses. Separate your responses with a comma.",,y,32156,,,2964,30891,,,,"cooking, climbing, drawing, reading, writing, ",1
5995889da2bbe000018833d9,56lpzofy0q,"Affordance Norms_Prolific",1,21,2023-07-28T14:31:32+00:00,15.194979906082,1,"updated stim.csv",Version1.csv,"Version 1","List 1",boa,,21,4.4,243,0.879020377,22,BOI,-,-,"Please name all of the ways you could use this object. Keep in mind that one object can have many uses. Separate your responses with a comma.",,y,14480,,,2792,14317,,,,"dangerous, snake, strangler, ",1
5995889da2bbe000018833d9,56lpzofy0q,"Affordance Norms_Prolific",1,22,2023-07-28T14:31:51+00:00,19.154067993164,1,"updated stim.csv",Version1.csv,"Version 1","List 1",panhandler,,12,5.777777778,2235,0.168486135,13,BOI,-,-,"Please name all of the ways you could use this object. Keep in mind that one object can have many uses. Separate your responses with a comma.",,y,18518,,,2791,18019,,,,"sausce pan, cook, sous chef, dish washer ",1
5995889da2bbe000018833d9,56lpzofy0q,"Affordance Norms_Prolific",1,23,2023-07-28T14:32:19+00:00,28.41091299057,1,"updated stim.csv",Version1.csv,"Version 1","List 1",dude,,4,5.416666667,1464,0.391267155,5,BOI,-,-,"Please name all of the ways you could use this object. Keep in mind that one object can have many uses. Separate your responses with a comma.",,y,27749,,,1504,27510,,,,"male, boy, adult, child, teenager, schhol kid, surfer, football player ",1
5995889da2bbe000018833d9,56lpzofy0q,"Affordance Norms_Prolific",1,24,2023-07-28T14:32:44+00:00,24.975516080856,1,"updated stim.csv",Version1.csv,"Version 1","List 1",trench,,28,5.142857143,2618,0.332046282,29,BOI,-,-,"Please name all of the ways you could use this object. Keep in mind that one object can have many uses. Separate your responses with a comma.",,y,24339,,,4230,23100,,,,"protection, muddy, dug out, shelter, ",1
5995889da2bbe000018833d9,56lpzofy0q,"Affordance Norms_Prolific",1,25,2023-07-28T14:33:11+00:00,26.997128009796,1,"updated stim.csv",Version1.csv,"Version 1","List 1",tonic,,27,5.434782609,1877,0.096670334,28,BOI,-,-,"Please name all of the ways you could use this object. Keep in mind that one object can have many uses. Separate your responses with a comma.",,y,26069,,,2517,25644,,,,"mixter, gin, lemon, baking, cooking ",1
5995889da2bbe000018833d9,56lpzofy0q,"Affordance Norms_Prolific",1,26,2023-07-28T14:33:24+00:00,13.30611205101,1,"updated stim.csv",Version1.csv,"Version 1","List 1",morsel,,15,4.666666667,1168,0.129741388,16,BOI,-,-,"Please name all of the ways you could use this object. Keep in mind that one object can have many uses. Separate your responses with a comma.",,y,12561,,,2652,12329,,,,"mouthful, small bite, small portion ",1
5995889da2bbe000018833d9,56lpzofy0q,"Affordance Norms_Prolific",1,27,2023-07-28T14:33:28+00:00,4.0125479698181,1,"updated stim.csv",Version1.csv,"Version 1","List 1",fauna,,25,4.333333333,252,0.347548191,26,BOI,-,-,"Please name all of the ways you could use this object. Keep in mind that one object can have many uses. Separate your responses with a comma.",,y,3188,,,1391,2730,,,,"not sure ",1
5995889da2bbe000018833d9,56lpzofy0q,"Affordance Norms_Prolific",1,28,2023-07-28T14:33:42+00:00,13.690119028091,1,"updated stim.csv",Version1.csv,"Version 1","List 1",tampon,,2,6.416666667,2301,0.945985105,3,BOI,-,-,"Please name all of the ways you could use this object. Keep in mind that one object can have many uses. Separate your responses with a comma.",,y,12998,,,2165,12814,,,,"period, female, monthly, protection, bleeding ",1
5995889da2bbe000018833d9,56lpzofy0q,"Affordance Norms_Prolific",1,29,2023-07-28T14:33:59+00:00,16.715260028839,1,"updated stim.csv",Version1.csv,"Version 1","List 1",hailstone,,16,5.565217391,1319,0.287274537,17,BOI,-,-,"Please name all of the ways you could use this object. Keep in mind that one object can have many uses. Separate your responses with a comma.",,y,15961,,,3038,15671,,,,"rain, sleet, hard, ice, cold, wet ",1
5995889da2bbe000018833d9,56lpzofy0q,"Affordance Norms_Prolific",1,30,2023-07-28T14:34:10+00:00,11.466897010803,1,"updated stim.csv",Version1.csv,"Version 1","List 1",crossbar,,8,5.454545455,1935,0.125396232,9,BOI,-,-,"Please name all of the ways you could use this object. Keep in mind that one object can have many uses. Separate your responses with a comma.",,y,10803,,,6122,10108,,,,"protection ",1
5995889da2bbe000018833d9,56lpzofy0q,"Affordance Norms_Prolific",1,31,2023-07-28T14:34:25+00:00,14.329654932022,1,"updated stim.csv",Version1.csv,"Version 1","List 1",mitt,,22,4.826086957,1618,0.113902737,23,BOI,-,-,"Please name all of the ways you could use this object. Keep in mind that one object can have many uses. Separate your responses with a comma.",,y,13658,,,2643,10777,,,,"protection, cold, hot oven, hands, ",1
5995889da2bbe000018833d9,56lpzofy0q,"Affordance Norms_Prolific",1,32,2023-07-28T14:34:42+00:00,17.609065055847,1,"updated stim.csv",Version1.csv,"Version 1","List 1",nylon,,6,4.375,1389,0.172930083,7,BOI,-,-,"Please name all of the ways you could use this object. Keep in mind that one object can have many uses. Separate your responses with a comma.",,y,16846,,,1610,14615,,,,"clothing, blanket, rug, shoes, ",1
5995889da2bbe000018833d9,56lpzofy0q,"Affordance Norms_Prolific",1,33,2023-07-28T14:35:01+00:00,18.75485086441,1,"updated stim.csv",Version1.csv,"Version 1","List 1",meadow,,30,5.64,2491,0.148115672,31,BOI,-,-,"Please name all of the ways you could use this object. Keep in mind that one object can have many uses. Separate your responses with a comma.",,y,17225,,,1454,11673,,,,"grass, flowers, nature, peaceful, bugs, ",1
5995889da2bbe000018833d9,56lpzofy0q,"Affordance Norms_Prolific",1,34,2023-07-28T14:35:23+00:00,22.106340169907,1,"updated stim.csv",Version1.csv,"Version 1","List 1",crotch,,14,4.958333333,2722,0.368202979,15,BOI,-,-,"Please name all of the ways you could use this object. Keep in mind that one object can have many uses. Separate your responses with a comma.",,y,21353,,,5170,17593,,,,"penis, vagina, male, female, intimate area, ",1
5995889da2bbe000018833d9,56lpzofy0q,"Affordance Norms_Prolific",1,35,2023-07-28T14:35:42+00:00,18.736687898636,1,"updated stim.csv",Version1.csv,"Version 1","List 1",defendant,,24,5.347826087,469,0.48837589,25,BOI,-,-,"Please name all of the ways you could use this object. Keep in mind that one object can have many uses. Separate your responses with a comma.",,y,18012,,,11232,17727,,,,"law, courtroom, human ",1
5995889da2bbe000018833d9,56lpzofy0q,"Affordance Norms_Prolific",1,36,2023-07-28T14:35:53+00:00,11.46191906929,1,"updated stim.csv",Version1.csv,"Version 1","List 1",virgin,,17,5.481481481,1600,0.476399064,18,BOI,-,-,"Please name all of the ways you could use this object. Keep in mind that one object can have many uses. Separate your responses with a comma.",,y,10852,,,5832,10010,,,,"male, female, no sex.",1
5995889da2bbe000018833d9,56lpzofy0q,"Affordance Norms_Prolific",1,37,2023-07-28T14:35:57+00:00,3.8114929199219,1,"updated stim.csv",Version1.csv,"Version 1","List 1",tiller,,9,4.875,2448,0.423270691,10,BOI,-,-,"Please name all of the ways you could use this object. Keep in mind that one object can have many uses. Separate your responses with a comma.",,y,3350,,,1862,2840,,,,"not sure ",1
5995889da2bbe000018833d9,56lpzofy0q,"Affordance Norms_Prolific",1,38,2023-07-28T14:36:18+00:00,20.798438072205,1,"updated stim.csv",Version1.csv,"Version 1","List 1",pigtail,,5,5.833333333,1647,0.48521541,6,BOI,-,-,"Please name all of the ways you could use this object. Keep in mind that one object can have many uses. Separate your responses with a comma.",,y,20024,,,3961,19750,,,,"pig, food ",1
5995889da2bbe000018833d9,56lpzofy0q,"Affordance Norms_Prolific",1,39,2023-07-28T14:36:51+00:00,32.741035938263,1,"updated stim.csv",Version1.csv,"Version 1","List 1",taxpayer,,29,5.88,1967,0.018459114,30,BOI,-,-,"Please name all of the ways you could use this object. Keep in mind that one object can have many uses. Separate your responses with a comma.",,y,31972,,,8538,31105,,,,"male, female, post 16, high earner, ",1
5995889da2bbe000018833d9,56lpzofy0q,"Affordance Norms_Prolific",1,40,2023-07-28T14:37:08+00:00,17.446604967117,1,"updated stim.csv",Version1.csv,"Version 1","List 1",plaintiff,,13,4.444444444,1011,0.860315666,14,BOI,-,-,"Please name all of the ways you could use this object. Keep in mind that one object can have many uses. Separate your responses with a comma.",,y,15517,,,6556,15064,,,,"law, court, human, man, woman ",1
5995889da2bbe000018833d9,56lpzofy0q,"Affordance Norms_Prolific",1,41,2023-07-28T14:37:10+00:00,2.3677470684052,1,"updated stim.csv",Version1.csv,"Version 1","List 1",,,,,,,0,Instruct,,,"You will now be asked a few questions about your experience today.",,"Instruct 4",2049,,,-1,-1,,,,,1
