"Username","ID","ExperimentName","Session","Trial","Date","TimeDif","Condition.Number","Stimuli.File","Order.File","Condition.Description","Condition.Notes","Stimuli.Cue","Stimuli.Answer","Stimuli.Shuffle","Stimuli.Stimuli.Notes","Stimuli.Value","Procedure.Item","Procedure.Trial.Type","Procedure.Max.Time","Procedure.Min.Time","Procedure.Text","Procedure.Procedure.Notes","Procedure.Shuffle","Response.RT","Response.Response","Response.Accuracy","Response.RTfirst","Response.RTlast","Response.strictAcc","Response.lenientAcc","Response.focus","Response.JOL","Response.Focus"
"J00706891_rea","c7aqv3ycrw","Affordance Norms_South Alabama",1,11,"2023-02-09T03:43:56+00:00",9.2201099395752,50,"updated stim.csv","Version50.csv","Version 50","List 50","pineapple",NA,1477,6.304347826,1971,1478,"BOI","-","-","Please name all of the ways you could use this object. Keep in mind that one object can have many uses. Separate your responses with a comma.",NA,"y",9013,NA,NA,1977,8519,NA,NA,NA,"eat, cook, core",1
"J00706891_rea","c7aqv3ycrw","Affordance Norms_South Alabama",1,12,"2023-02-09T03:44:06+00:00",9.5214760303497,50,"updated stim.csv","Version50.csv","Version 50","List 50","drywall",NA,1481,5.208333333,858,1482,"BOI","-","-","Please name all of the ways you could use this object. Keep in mind that one object can have many uses. Separate your responses with a comma.",NA,"y",9242,NA,NA,1663,9005,NA,NA,NA,"build, punch",1
"J00706891_rea","c7aqv3ycrw","Affordance Norms_South Alabama",1,13,"2023-02-09T03:44:09+00:00",2.8676590919495,50,"updated stim.csv","Version50.csv","Version 50","List 50","geranium",NA,1471,4.695652174,1099,1472,"BOI","-","-","Please name all of the ways you could use this object. Keep in mind that one object can have many uses. Separate your responses with a comma.",NA,"y",2632,NA,NA,1980,2468,NA,NA,NA,"no id",1
"J00706891_rea","c7aqv3ycrw","Affordance Norms_South Alabama",1,14,"2023-02-09T03:44:21+00:00",12.285239934921,50,"updated stim.csv","Version50.csv","Version 50","List 50","saddle",NA,1499,4.954545455,2212,1500,"BOI","-","-","Please name all of the ways you could use this object. Keep in mind that one object can have many uses. Separate your responses with a comma.",NA,"y",11955,NA,NA,2854,11910,NA,NA,NA,"ride horse, decoration, functionality",1
"J00706891_rea","c7aqv3ycrw","Affordance Norms_South Alabama",1,15,"2023-02-09T03:44:39+00:00",17.830038070679,50,"updated stim.csv","Version50.csv","Version 50","List 50","needle",NA,1495,5.739130435,1745,1496,"BOI","-","-","Please name all of the ways you could use this object. Keep in mind that one object can have many uses. Separate your responses with a comma.",NA,"y",17578,NA,NA,1298,16012,NA,NA,NA,"sew, stab, poke, knit, crochet",1
"J00706891_rea","c7aqv3ycrw","Affordance Norms_South Alabama",1,16,"2023-02-09T03:44:54+00:00",14.82735490799,50,"updated stim.csv","Version50.csv","Version 50","List 50","shavings",NA,1498,4.6,2325,1499,"BOI","-","-","Please name all of the ways you could use this object. Keep in mind that one object can have many uses. Separate your responses with a comma.",NA,"y",14494,NA,NA,5072,12434,NA,NA,NA,"confetti, decoration",1
"J00706891_rea","c7aqv3ycrw","Affordance Norms_South Alabama",1,17,"2023-02-09T03:45:00+00:00",6.2356629371643,50,"updated stim.csv","Version50.csv","Version 50","List 50","celery",NA,1484,6.086956522,471,1485,"BOI","-","-","Please name all of the ways you could use this object. Keep in mind that one object can have many uses. Separate your responses with a comma.",NA,"y",6002,NA,NA,1619,5881,NA,NA,NA,"eat, cook, grow",1
"J00706891_rea","c7aqv3ycrw","Affordance Norms_South Alabama",1,18,"2023-02-09T03:45:12+00:00",11.69114112854,50,"updated stim.csv","Version50.csv","Version 50","List 50","cliff",NA,1494,4.64,559,1495,"BOI","-","-","Please name all of the ways you could use this object. Keep in mind that one object can have many uses. Separate your responses with a comma.",NA,"y",11315,NA,NA,1224,11038,NA,NA,NA,"jump, climb, look at",1
"J00706891_rea","c7aqv3ycrw","Affordance Norms_South Alabama",1,19,"2023-02-09T03:45:18+00:00",6.7919430732727,50,"updated stim.csv","Version50.csv","Version 50","List 50","joystick",NA,1472,6.12,1392,1473,"BOI","-","-","Please name all of the ways you could use this object. Keep in mind that one object can have many uses. Separate your responses with a comma.",NA,"y",5943,NA,NA,1939,5288,NA,NA,NA,"gaming, fun",1
"J00706891_rea","c7aqv3ycrw","Affordance Norms_South Alabama",1,20,"2023-02-09T03:45:32+00:00",13.468052864075,50,"updated stim.csv","Version50.csv","Version 50","List 50","sombrero",NA,1492,5.518518519,2449,1493,"BOI","-","-","Please name all of the ways you could use this object. Keep in mind that one object can have many uses. Separate your responses with a comma.",NA,"y",12923,NA,NA,2997,12322,NA,NA,NA,"wear, fashion, block sun",1
"J00706891_rea","c7aqv3ycrw","Affordance Norms_South Alabama",1,21,"2023-02-09T03:45:40+00:00",8.1240351200104,50,"updated stim.csv","Version50.csv","Version 50","List 50","wildcat",NA,1474,4.583333333,2938,1475,"BOI","-","-","Please name all of the ways you could use this object. Keep in mind that one object can have many uses. Separate your responses with a comma.",NA,"y",7619,NA,NA,2791,7517,NA,NA,NA,"zoo, admire",1
"J00706891_rea","c7aqv3ycrw","Affordance Norms_South Alabama",1,22,"2023-02-09T03:46:01+00:00",21.312537908554,50,"updated stim.csv","Version50.csv","Version 50","List 50","metal",NA,1491,5.130434783,1650,1492,"BOI","-","-","Please name all of the ways you could use this object. Keep in mind that one object can have many uses. Separate your responses with a comma.",NA,"y",20643,NA,NA,2331,20491,NA,NA,NA,"jewelry, build, bend, stab, cook, decorate",1
"J00706891_rea","c7aqv3ycrw","Affordance Norms_South Alabama",1,23,"2023-02-09T03:46:12+00:00",10.546149969101,50,"updated stim.csv","Version50.csv","Version 50","List 50","houseboy",NA,1500,4.583333333,1328,1501,"BOI","-","-","Please name all of the ways you could use this object. Keep in mind that one object can have many uses. Separate your responses with a comma.",NA,"y",9464,NA,NA,2565,9317,NA,NA,NA,"pool, clean, chores",1
"J00706891_rea","c7aqv3ycrw","Affordance Norms_South Alabama",1,24,"2023-02-09T03:46:22+00:00",10.346110105515,50,"updated stim.csv","Version50.csv","Version 50","List 50","pudding",NA,1496,5.958333333,2088,1497,"BOI","-","-","Please name all of the ways you could use this object. Keep in mind that one object can have many uses. Separate your responses with a comma.",NA,"y",9641,NA,NA,2561,9169,NA,NA,NA,"eat, spoon feed",1
"J00706891_rea","c7aqv3ycrw","Affordance Norms_South Alabama",1,25,"2023-02-09T03:46:35+00:00",12.425264835358,50,"updated stim.csv","Version50.csv","Version 50","List 50","coin",NA,1485,6.4,595,1486,"BOI","-","-","Please name all of the ways you could use this object. Keep in mind that one object can have many uses. Separate your responses with a comma.",NA,"y",12102,NA,NA,249,12018,NA,NA,NA,"spend, collect, save, admire",1
"J00706891_rea","c7aqv3ycrw","Affordance Norms_South Alabama",1,26,"2023-02-09T03:46:46+00:00",11.794399023056,50,"updated stim.csv","Version50.csv","Version 50","List 50","muzzle",NA,1490,4.391304348,1730,1491,"BOI","-","-","Please name all of the ways you could use this object. Keep in mind that one object can have many uses. Separate your responses with a comma.",NA,"y",11551,NA,NA,4265,11406,NA,NA,NA,"quiet, keep from biting",1
"J00706891_rea","c7aqv3ycrw","Affordance Norms_South Alabama",1,27,"2023-02-09T03:46:52+00:00",5.8332691192627,50,"updated stim.csv","Version50.csv","Version 50","List 50","merchant",NA,1478,4.5,1648,1479,"BOI","-","-","Please name all of the ways you could use this object. Keep in mind that one object can have many uses. Separate your responses with a comma.",NA,"y",5390,NA,NA,3758,5307,NA,NA,NA,"have money",1
"J00706891_rea","c7aqv3ycrw","Affordance Norms_South Alabama",1,28,"2023-02-09T03:47:09+00:00",16.401646852493,50,"updated stim.csv","Version50.csv","Version 50","List 50","necktie",NA,1482,6.043478261,1742,1483,"BOI","-","-","Please name all of the ways you could use this object. Keep in mind that one object can have many uses. Separate your responses with a comma.",NA,"y",15898,NA,NA,1824,15729,NA,NA,NA,"wear, tie, hang up, fancy event",1
"J00706891_rea","c7aqv3ycrw","Affordance Norms_South Alabama",1,29,"2023-02-09T03:47:15+00:00",6.5365290641785,50,"updated stim.csv","Version50.csv","Version 50","List 50","cent",NA,1473,5.12,477,1474,"BOI","-","-","Please name all of the ways you could use this object. Keep in mind that one object can have many uses. Separate your responses with a comma.",NA,"y",6184,NA,NA,1471,6082,NA,NA,NA,"spend, save, collect",1
"J00706891_rea","c7aqv3ycrw","Affordance Norms_South Alabama",1,30,"2023-02-09T03:47:27+00:00",11.950948953629,50,"updated stim.csv","Version50.csv","Version 50","List 50","grandson",NA,1486,5.785714286,1153,1487,"BOI","-","-","Please name all of the ways you could use this object. Keep in mind that one object can have many uses. Separate your responses with a comma.",NA,"y",11648,NA,NA,3179,11425,NA,NA,NA,"play, watch, babysit, raise",1
"J00706891_rea","c7aqv3ycrw","Affordance Norms_South Alabama",1,31,"2023-02-09T03:47:39+00:00",12.024470090866,50,"updated stim.csv","Version50.csv","Version 50","List 50","corset",NA,1493,5.44,653,1494,"BOI","-","-","Please name all of the ways you could use this object. Keep in mind that one object can have many uses. Separate your responses with a comma.",NA,"y",11660,NA,NA,1632,11543,NA,NA,NA,"wear, suck in stomach, fashion, costume",1
"J00706891_rea","c7aqv3ycrw","Affordance Norms_South Alabama",1,32,"2023-02-09T03:47:51+00:00",11.92325091362,50,"updated stim.csv","Version50.csv","Version 50","List 50","Ladder",NA,1497,6.117567568,1447,1498,"BOI","-","-","Please name all of the ways you could use this object. Keep in mind that one object can have many uses. Separate your responses with a comma.",NA,"y",11622,NA,NA,6594,10366,NA,NA,NA,"climb, store",1
"J00706891_rea","c7aqv3ycrw","Affordance Norms_South Alabama",1,33,"2023-02-09T03:47:58+00:00",6.6233520507812,50,"updated stim.csv","Version50.csv","Version 50","List 50","councilwoman",NA,1488,4.583333333,664,1489,"BOI","-","-","Please name all of the ways you could use this object. Keep in mind that one object can have many uses. Separate your responses with a comma.",NA,"y",6417,NA,NA,2848,6316,NA,NA,NA,"make decisions",1
"J00706891_rea","c7aqv3ycrw","Affordance Norms_South Alabama",1,34,"2023-02-09T03:48:05+00:00",6.8848609924316,50,"updated stim.csv","Version50.csv","Version 50","List 50","poultry",NA,1487,4.826086957,2053,1488,"BOI","-","-","Please name all of the ways you could use this object. Keep in mind that one object can have many uses. Separate your responses with a comma.",NA,"y",6546,NA,NA,1703,6258,NA,NA,NA,"eat, grow",1
"J00706891_rea","c7aqv3ycrw","Affordance Norms_South Alabama",1,35,"2023-02-09T03:48:09+00:00",4.1072039604187,50,"updated stim.csv","Version50.csv","Version 50","List 50","shallot",NA,1479,5.380952381,2319,1480,"BOI","-","-","Please name all of the ways you could use this object. Keep in mind that one object can have many uses. Separate your responses with a comma.",NA,"y",3541,NA,NA,1462,3412,NA,NA,NA,"eat, cook",1
"J00706891_rea","c7aqv3ycrw","Affordance Norms_South Alabama",1,36,"2023-02-09T03:48:21+00:00",12.193306207657,50,"updated stim.csv","Version50.csv","Version 50","List 50","orange",NA,1489,5.08,1814,1490,"BOI","-","-","Please name all of the ways you could use this object. Keep in mind that one object can have many uses. Separate your responses with a comma.",NA,"y",11908,NA,NA,955,11814,NA,NA,NA,"eat, cook, peel, slice",1
"J00706891_rea","c7aqv3ycrw","Affordance Norms_South Alabama",1,37,"2023-02-09T03:48:26+00:00",5.2477929592133,50,"updated stim.csv","Version50.csv","Version 50","List 50","pullover",NA,1476,4.56,2093,1477,"BOI","-","-","Please name all of the ways you could use this object. Keep in mind that one object can have many uses. Separate your responses with a comma.",NA,"y",4590,NA,NA,1383,4118,NA,NA,NA,"wear, warm",1
"J00706891_rea","c7aqv3ycrw","Affordance Norms_South Alabama",1,38,"2023-02-09T03:48:40+00:00",14.113922834396,50,"updated stim.csv","Version50.csv","Version 50","List 50","potato",NA,1483,5.6,2047,1484,"BOI","-","-","Please name all of the ways you could use this object. Keep in mind that one object can have many uses. Separate your responses with a comma.",NA,"y",13771,NA,NA,2375,11710,NA,NA,NA,"bake, fry, broil, cook",1
"J00706891_rea","c7aqv3ycrw","Affordance Norms_South Alabama",1,39,"2023-02-09T03:48:54+00:00",14.012042045593,50,"updated stim.csv","Version50.csv","Version 50","List 50","nanny",NA,1480,4.6,1734,1481,"BOI","-","-","Please name all of the ways you could use this object. Keep in mind that one object can have many uses. Separate your responses with a comma.",NA,"y",13541,NA,NA,1590,13304,NA,NA,NA,"watch kids, cook, feed, play, chore=s",1
"J00706891_rea","c7aqv3ycrw","Affordance Norms_South Alabama",1,40,"2023-02-09T03:49:05+00:00",10.9842710495,50,"updated stim.csv","Version50.csv","Version 50","List 50","forehead",NA,1475,5.777777778,1045,1476,"BOI","-","-","Please name all of the ways you could use this object. Keep in mind that one object can have many uses. Separate your responses with a comma.",NA,"y",10564,NA,NA,6933,10480,NA,NA,NA,"facial expressions",1
"J00707393_rgg","96533mus0m","Affordance Norms_South Alabama",1,11,"2023-04-08T14:03:15+00:00",15.898909807205,56,"updated stim.csv","Version56.csv","Version 56","List 56","deliveryman",NA,1671,4.44,770,1672,"BOI","-","-","Please name all of the ways you could use this object. Keep in mind that one object can have many uses. Separate your responses with a comma.",NA,"y",15721,NA,NA,4883,14567,NA,NA,NA,"load, deliver, open, knock",1
"J00707393_rgg","96533mus0m","Affordance Norms_South Alabama",1,12,"2023-04-08T14:03:33+00:00",18.659149169922,56,"updated stim.csv","Version56.csv","Version 56","List 56","surveyor",NA,1669,4.47826087,2596,1670,"BOI","-","-","Please name all of the ways you could use this object. Keep in mind that one object can have many uses. Separate your responses with a comma.",NA,"y",18472,NA,NA,3186,9781,NA,NA,NA,"asks, writes, checks",1
"J00707393_rgg","96533mus0m","Affordance Norms_South Alabama",1,13,"2023-04-08T14:03:46+00:00",12.890532016754,56,"updated stim.csv","Version56.csv","Version 56","List 56","minnow",NA,1655,4.416666667,1665,1656,"BOI","-","-","Please name all of the ways you could use this object. Keep in mind that one object can have many uses. Separate your responses with a comma.",NA,"y",12715,NA,NA,1744,11754,NA,NA,NA,"swims, eats, grows, jumps",1
"J00707393_rgg","96533mus0m","Affordance Norms_South Alabama",1,14,"2023-04-08T14:03:52+00:00",5.2696568965912,56,"updated stim.csv","Version56.csv","Version 56","List 56","spectroscope",NA,1661,4.9,2467,1662,"BOI","-","-","Please name all of the ways you could use this object. Keep in mind that one object can have many uses. Separate your responses with a comma.",NA,"y",5108,NA,NA,3782,4076,NA,NA,NA,"idk",1
"J00707393_rgg","96533mus0m","Affordance Norms_South Alabama",1,15,"2023-04-08T14:04:03+00:00",11.809596061707,56,"updated stim.csv","Version56.csv","Version 56","List 56","kettle",NA,1673,5.44,1409,1674,"BOI","-","-","Please name all of the ways you could use this object. Keep in mind that one object can have many uses. Separate your responses with a comma.",NA,"y",11639,NA,NA,2914,10836,NA,NA,NA,"heats, boils, pours",1
"J00707393_rgg","96533mus0m","Affordance Norms_South Alabama",1,16,"2023-04-08T14:04:07+00:00",3.181501865387,56,"updated stim.csv","Version56.csv","Version 56","List 56","carp",NA,1660,4.52173913,435,1661,"BOI","-","-","Please name all of the ways you could use this object. Keep in mind that one object can have many uses. Separate your responses with a comma.",NA,"y",3008,NA,NA,1823,2097,NA,NA,NA,"idk",1
"J00707393_rgg","96533mus0m","Affordance Norms_South Alabama",1,17,"2023-04-08T14:04:24+00:00",17.766191959381,56,"updated stim.csv","Version56.csv","Version 56","List 56","apple",NA,1677,6.272727273,61,1678,"BOI","-","-","Please name all of the ways you could use this object. Keep in mind that one object can have many uses. Separate your responses with a comma.",NA,"y",17466,NA,NA,3550,16386,NA,NA,NA,"picked, grow, eaten, thrown away",1
"J00707393_rgg","96533mus0m","Affordance Norms_South Alabama",1,18,"2023-04-08T14:04:42+00:00",17.452072143555,56,"updated stim.csv","Version56.csv","Version 56","List 56","ointment",NA,1658,5.869565217,1804,1659,"BOI","-","-","Please name all of the ways you could use this object. Keep in mind that one object can have many uses. Separate your responses with a comma.",NA,"y",17279,NA,NA,12555,16556,NA,NA,NA,"on a injury",1
"J00707393_rgg","96533mus0m","Affordance Norms_South Alabama",1,19,"2023-04-08T14:05:00+00:00",18.278213024139,56,"updated stim.csv","Version56.csv","Version 56","List 56","passenger",NA,1667,5.08,1880,1668,"BOI","-","-","Please name all of the ways you could use this object. Keep in mind that one object can have many uses. Separate your responses with a comma.",NA,"y",18105,NA,NA,13425,14017,NA,NA,NA,"ride",1
"J00707393_rgg","96533mus0m","Affordance Norms_South Alabama",1,20,"2023-04-08T14:05:06+00:00",5.5922918319702,56,"updated stim.csv","Version56.csv","Version 56","List 56","jewel",NA,1663,5.44,1384,1664,"BOI","-","-","Please name all of the ways you could use this object. Keep in mind that one object can have many uses. Separate your responses with a comma.",NA,"y",5413,NA,NA,3506,4348,NA,NA,NA,"shines",1
"J00707393_rgg","96533mus0m","Affordance Norms_South Alabama",1,21,"2023-04-08T14:05:09+00:00",3.3354451656342,56,"updated stim.csv","Version56.csv","Version 56","List 56","ale",NA,1666,4.962962963,25,1667,"BOI","-","-","Please name all of the ways you could use this object. Keep in mind that one object can have many uses. Separate your responses with a comma.",NA,"y",3147,NA,NA,2542,2842,NA,NA,NA,"idk",1
"J00707393_rgg","96533mus0m","Affordance Norms_South Alabama",1,22,"2023-04-08T14:05:14+00:00",4.9782328605652,56,"updated stim.csv","Version56.csv","Version 56","List 56","privates",NA,1652,4.681818182,2068,1653,"BOI","-","-","Please name all of the ways you could use this object. Keep in mind that one object can have many uses. Separate your responses with a comma.",NA,"y",4795,NA,NA,2746,3507,NA,NA,NA,"taken",1
"J00707393_rgg","96533mus0m","Affordance Norms_South Alabama",1,23,"2023-04-08T14:05:23+00:00",9.2154040336609,56,"updated stim.csv","Version56.csv","Version 56","List 56","lemonade",NA,1672,5.409090909,1490,1673,"BOI","-","-","Please name all of the ways you could use this object. Keep in mind that one object can have many uses. Separate your responses with a comma.",NA,"y",9020,NA,NA,1667,8666,NA,NA,NA,"made, drank, poured",1
"J00707393_rgg","96533mus0m","Affordance Norms_South Alabama",1,24,"2023-04-08T14:05:38+00:00",14.344292163849,56,"updated stim.csv","Version56.csv","Version 56","List 56","pocketbook",NA,1680,5.884615385,2014,1681,"BOI","-","-","Please name all of the ways you could use this object. Keep in mind that one object can have many uses. Separate your responses with a comma.",NA,"y",14136,NA,NA,2828,12771,NA,NA,NA,"hold it, use it for storage",1
"J00707393_rgg","96533mus0m","Affordance Norms_South Alabama",1,25,"2023-04-08T14:05:45+00:00",7.7149479389191,56,"updated stim.csv","Version56.csv","Version 56","List 56","escalator",NA,1668,5.52,920,1669,"BOI","-","-","Please name all of the ways you could use this object. Keep in mind that one object can have many uses. Separate your responses with a comma.",NA,"y",7531,NA,NA,1905,7058,NA,NA,NA,"ride it, go up, go down",1
"J00707393_rgg","96533mus0m","Affordance Norms_South Alabama",1,26,"2023-04-08T14:05:52+00:00",6.8832778930664,56,"updated stim.csv","Version56.csv","Version 56","List 56","tranquilizer",NA,1670,4.56,2760,1671,"BOI","-","-","Please name all of the ways you could use this object. Keep in mind that one object can have many uses. Separate your responses with a comma.",NA,"y",6700,NA,NA,3119,6170,NA,NA,NA,"put to sleep, calm",1
"J00707393_rgg","96533mus0m","Affordance Norms_South Alabama",1,27,"2023-04-08T14:05:55+00:00",3.278293132782,56,"updated stim.csv","Version56.csv","Version 56","List 56","pendant",NA,1674,5.791666667,1914,1675,"BOI","-","-","Please name all of the ways you could use this object. Keep in mind that one object can have many uses. Separate your responses with a comma.",NA,"y",3105,NA,NA,2314,2777,NA,NA,NA,"worn",1
"J00707393_rgg","96533mus0m","Affordance Norms_South Alabama",1,28,"2023-04-08T14:06:09+00:00",13.697942972183,56,"updated stim.csv","Version56.csv","Version 56","List 56","woods",NA,1653,4.409090909,2963,1654,"BOI","-","-","Please name all of the ways you could use this object. Keep in mind that one object can have many uses. Separate your responses with a comma.",NA,"y",13507,NA,NA,3541,13103,NA,NA,NA,"grow, hunting, explore",1
"J00707393_rgg","96533mus0m","Affordance Norms_South Alabama",1,29,"2023-04-08T14:06:19+00:00",10.070518016815,56,"updated stim.csv","Version56.csv","Version 56","List 56","husky",NA,1659,4.892857143,1340,1660,"BOI","-","-","Please name all of the ways you could use this object. Keep in mind that one object can have many uses. Separate your responses with a comma.",NA,"y",9890,NA,NA,2082,9373,NA,NA,NA,"dog, walk, cuddle, feed",1
"J00707393_rgg","96533mus0m","Affordance Norms_South Alabama",1,30,"2023-04-08T14:06:32+00:00",12.441872835159,56,"updated stim.csv","Version56.csv","Version 56","List 56","dog",NA,1662,6.4,811,1663,"BOI","-","-","Please name all of the ways you could use this object. Keep in mind that one object can have many uses. Separate your responses with a comma.",NA,"y",12268,NA,NA,1719,11642,NA,NA,NA,"walk, feed, play, cuddle",1
"J00707393_rgg","96533mus0m","Affordance Norms_South Alabama",1,31,"2023-04-08T14:06:43+00:00",11.016983032227,56,"updated stim.csv","Version56.csv","Version 56","List 56","dust",NA,1664,4.827586207,868,1665,"BOI","-","-","Please name all of the ways you could use this object. Keep in mind that one object can have many uses. Separate your responses with a comma.",NA,"y",10839,NA,NA,3861,10608,NA,NA,NA,"clean it, let it sit",1
"J00707393_rgg","96533mus0m","Affordance Norms_South Alabama",1,32,"2023-04-08T14:06:47+00:00",4.4806070327759,56,"updated stim.csv","Version56.csv","Version 56","List 56","beetle",NA,1657,5.166666667,194,1658,"BOI","-","-","Please name all of the ways you could use this object. Keep in mind that one object can have many uses. Separate your responses with a comma.",NA,"y",4308,NA,NA,2741,3952,NA,NA,NA,"kill it",1
"J00707393_rgg","96533mus0m","Affordance Norms_South Alabama",1,33,"2023-04-08T14:06:54+00:00",6.3365409374237,56,"updated stim.csv","Version56.csv","Version 56","List 56","matchbox",NA,1656,5.875,1621,1657,"BOI","-","-","Please name all of the ways you could use this object. Keep in mind that one object can have many uses. Separate your responses with a comma.",NA,"y",6158,NA,NA,2524,5677,NA,NA,NA,"light a match",1
"J00707393_rgg","96533mus0m","Affordance Norms_South Alabama",1,34,"2023-04-08T14:07:01+00:00",7.7657361030579,56,"updated stim.csv","Version56.csv","Version 56","List 56","waistband",NA,1678,5.833333333,2881,1679,"BOI","-","-","Please name all of the ways you could use this object. Keep in mind that one object can have many uses. Separate your responses with a comma.",NA,"y",7597,NA,NA,1675,7375,NA,NA,NA,"hold pants, attach belt",1
"J00707393_rgg","96533mus0m","Affordance Norms_South Alabama",1,35,"2023-04-08T14:07:09+00:00",7.2657771110535,56,"updated stim.csv","Version56.csv","Version 56","List 56","cousin",NA,1675,5.375,669,1676,"BOI","-","-","Please name all of the ways you could use this object. Keep in mind that one object can have many uses. Separate your responses with a comma.",NA,"y",7054,NA,NA,5894,6893,NA,NA,NA,"family",1
"J00707393_rgg","96533mus0m","Affordance Norms_South Alabama",1,36,"2023-04-08T14:07:15+00:00",6.90802693367,56,"updated stim.csv","Version56.csv","Version 56","List 56","bookcase",NA,1654,5.56,272,1655,"BOI","-","-","Please name all of the ways you could use this object. Keep in mind that one object can have many uses. Separate your responses with a comma.",NA,"y",6725,NA,NA,1447,6501,NA,NA,NA,"store books",1
"J00707393_rgg","96533mus0m","Affordance Norms_South Alabama",1,37,"2023-04-08T14:07:18+00:00",2.3328168392181,56,"updated stim.csv","Version56.csv","Version 56","List 56","fauna",NA,1676,5,953,1677,"BOI","-","-","Please name all of the ways you could use this object. Keep in mind that one object can have many uses. Separate your responses with a comma.",NA,"y",2145,NA,NA,1535,1808,NA,NA,NA,"idk",1
"J00707393_rgg","96533mus0m","Affordance Norms_South Alabama",1,38,"2023-04-08T14:07:24+00:00",6.3813450336456,56,"updated stim.csv","Version56.csv","Version 56","List 56","sirloin",NA,1665,5.32,2386,1666,"BOI","-","-","Please name all of the ways you could use this object. Keep in mind that one object can have many uses. Separate your responses with a comma.",NA,"y",6192,NA,NA,1787,5614,NA,NA,NA,"eaten, cooked, cut",1
"J00707393_rgg","96533mus0m","Affordance Norms_South Alabama",1,39,"2023-04-08T14:07:28+00:00",4.3047909736633,56,"updated stim.csv","Version56.csv","Version 56","List 56","buttocks",NA,1679,6.434782609,380,1680,"BOI","-","-","Please name all of the ways you could use this object. Keep in mind that one object can have many uses. Separate your responses with a comma.",NA,"y",4119,NA,NA,1521,2394,NA,NA,NA,"sat on",1
"J00707393_rgg","96533mus0m","Affordance Norms_South Alabama",1,40,"2023-04-08T14:07:36+00:00",7.4089500904083,56,"updated stim.csv","Version56.csv","Version 56","List 56","hanger",NA,1651,5.291666667,1245,1652,"BOI","-","-","Please name all of the ways you could use this object. Keep in mind that one object can have many uses. Separate your responses with a comma.",NA,"y",7224,NA,NA,4118,6944,NA,NA,NA,"hang stuff",1
"J00707594_bmp","1rvrrxii6f","Affordance Norms_South Alabama",1,11,"2023-04-04T21:49:34+00:00",6.8083279132843,39,"updated stim.csv","Version39.csv","Version 39","List 39","gatehouse",NA,1169,4.464285714,1086,1170,"BOI","-","-","Please name all of the ways you could use this object. Keep in mind that one object can have many uses. Separate your responses with a comma.",NA,"y",6245,NA,NA,1374,5444,NA,NA,NA,"close,open",1
"J00707594_bmp","1rvrrxii6f","Affordance Norms_South Alabama",1,12,"2023-04-04T21:49:38+00:00",3.5675129890442,39,"updated stim.csv","Version39.csv","Version 39","List 39","tote",NA,1165,4.28,2742,1166,"BOI","-","-","Please name all of the ways you could use this object. Keep in mind that one object can have many uses. Separate your responses with a comma.",NA,"y",3282,NA,NA,1092,1879,NA,NA,NA,"carry",1
"J00707594_bmp","1rvrrxii6f","Affordance Norms_South Alabama",1,13,"2023-04-04T21:49:40+00:00",2.7894861698151,39,"updated stim.csv","Version39.csv","Version 39","List 39","dart",NA,1146,5.291666667,758,1147,"BOI","-","-","Please name all of the ways you could use this object. Keep in mind that one object can have many uses. Separate your responses with a comma.",NA,"y",2485,NA,NA,1070,1889,NA,NA,NA,"throw",1
"J00707594_bmp","1rvrrxii6f","Affordance Norms_South Alabama",1,14,"2023-04-04T21:49:43+00:00",2.2500858306885,39,"updated stim.csv","Version39.csv","Version 39","List 39","viewfinder",NA,1143,4.916666667,2857,1144,"BOI","-","-","Please name all of the ways you could use this object. Keep in mind that one object can have many uses. Separate your responses with a comma.",NA,"y",1971,NA,NA,1074,1606,NA,NA,NA,"look",1
"J00707594_bmp","1rvrrxii6f","Affordance Norms_South Alabama",1,15,"2023-04-04T21:49:49+00:00",6.7208139896393,39,"updated stim.csv","Version39.csv","Version 39","List 39","buttermilk",NA,1149,4.826086957,377,1150,"BOI","-","-","Please name all of the ways you could use this object. Keep in mind that one object can have many uses. Separate your responses with a comma.",NA,"y",6196,NA,NA,4443,5362,NA,NA,NA,"pour",1
"J00707594_bmp","1rvrrxii6f","Affordance Norms_South Alabama",1,16,"2023-04-04T21:49:53+00:00",4.018844127655,39,"updated stim.csv","Version39.csv","Version 39","List 39","harpist",NA,1151,4.304347826,1254,1152,"BOI","-","-","Please name all of the ways you could use this object. Keep in mind that one object can have many uses. Separate your responses with a comma.",NA,"y",3714,NA,NA,1270,2090,NA,NA,NA,"play",1
"J00707594_bmp","1rvrrxii6f","Affordance Norms_South Alabama",1,17,"2023-04-04T21:50:01+00:00",7.4616029262543,39,"updated stim.csv","Version39.csv","Version 39","List 39","ass",NA,1167,5.304347826,87,1168,"BOI","-","-","Please name all of the ways you could use this object. Keep in mind that one object can have many uses. Separate your responses with a comma.",NA,"y",6909,NA,NA,5712,6091,NA,NA,NA,"sit",1
"J00707594_bmp","1rvrrxii6f","Affordance Norms_South Alabama",1,18,"2023-04-04T21:50:08+00:00",7.6374020576477,39,"updated stim.csv","Version39.csv","Version 39","List 39","poncho",NA,1144,5.458333333,2028,1145,"BOI","-","-","Please name all of the ways you could use this object. Keep in mind that one object can have many uses. Separate your responses with a comma.",NA,"y",7003,NA,NA,2015,6322,NA,NA,NA,"cover",1
"J00707594_bmp","1rvrrxii6f","Affordance Norms_South Alabama",1,19,"2023-04-04T21:50:12+00:00",3.2521359920502,39,"updated stim.csv","Version39.csv","Version 39","List 39","garden",NA,1157,5.913043478,1076,1158,"BOI","-","-","Please name all of the ways you could use this object. Keep in mind that one object can have many uses. Separate your responses with a comma.",NA,"y",2966,NA,NA,1353,2167,NA,NA,NA,"plant",1
"J00707594_bmp","1rvrrxii6f","Affordance Norms_South Alabama",1,20,"2023-04-04T21:50:20+00:00",8.1501479148865,39,"updated stim.csv","Version39.csv","Version 39","List 39","ceramic",NA,1168,4.62962963,479,1169,"BOI","-","-","Please name all of the ways you could use this object. Keep in mind that one object can have many uses. Separate your responses with a comma.",NA,"y",7607,NA,NA,5386,6863,NA,NA,NA,"create",1
"J00707594_bmp","1rvrrxii6f","Affordance Norms_South Alabama",1,21,"2023-04-04T21:50:23+00:00",3.4488041400909,39,"updated stim.csv","Version39.csv","Version 39","List 39","flesh",NA,1160,4.782608696,1007,1161,"BOI","-","-","Please name all of the ways you could use this object. Keep in mind that one object can have many uses. Separate your responses with a comma.",NA,"y",3164,NA,NA,1722,2317,NA,NA,NA,"tear",1
"J00707594_bmp","1rvrrxii6f","Affordance Norms_South Alabama",1,22,"2023-04-04T21:50:30+00:00",7.0747079849243,39,"updated stim.csv","Version39.csv","Version 39","List 39","washer",NA,1145,5.518518519,2899,1146,"BOI","-","-","Please name all of the ways you could use this object. Keep in mind that one object can have many uses. Separate your responses with a comma.",NA,"y",6523,NA,NA,2053,5932,NA,NA,NA,"clean",1
"J00707594_bmp","1rvrrxii6f","Affordance Norms_South Alabama",1,23,"2023-04-04T21:50:33+00:00",2.8753209114075,39,"updated stim.csv","Version39.csv","Version 39","List 39","house",NA,1163,5.782608696,1326,1164,"BOI","-","-","Please name all of the ways you could use this object. Keep in mind that one object can have many uses. Separate your responses with a comma.",NA,"y",2577,NA,NA,1106,2131,NA,NA,NA,"build",1
"J00707594_bmp","1rvrrxii6f","Affordance Norms_South Alabama",1,24,"2023-04-04T21:50:40+00:00",6.5753970146179,39,"updated stim.csv","Version39.csv","Version 39","List 39","dandruff",NA,1150,4.72,756,1151,"BOI","-","-","Please name all of the ways you could use this object. Keep in mind that one object can have many uses. Separate your responses with a comma.",NA,"y",6023,NA,NA,4588,5509,NA,NA,NA,"flake",1
"J00707594_bmp","1rvrrxii6f","Affordance Norms_South Alabama",1,25,"2023-04-04T21:50:59+00:00",19.330140113831,39,"updated stim.csv","Version39.csv","Version 39","List 39","swamp",NA,1159,4.52173913,2602,1160,"BOI","-","-","Please name all of the ways you could use this object. Keep in mind that one object can have many uses. Separate your responses with a comma.",NA,"y",18846,NA,NA,16632,18219,NA,NA,NA,"alligators",1
"J00707594_bmp","1rvrrxii6f","Affordance Norms_South Alabama",1,26,"2023-04-04T21:51:02+00:00",2.7611048221588,39,"updated stim.csv","Version39.csv","Version 39","List 39","crisps",NA,1166,5.130434783,696,1167,"BOI","-","-","Please name all of the ways you could use this object. Keep in mind that one object can have many uses. Separate your responses with a comma.",NA,"y",2442,NA,NA,1614,1951,NA,NA,NA,"eat",1
"J00707594_bmp","1rvrrxii6f","Affordance Norms_South Alabama",1,27,"2023-04-04T21:51:05+00:00",3.180958032608,39,"updated stim.csv","Version39.csv","Version 39","List 39","genitals",NA,1152,6.130434783,1097,1153,"BOI","-","-","Please name all of the ways you could use this object. Keep in mind that one object can have many uses. Separate your responses with a comma.",NA,"y",2906,NA,NA,1987,2275,NA,NA,NA,"pee",1
"J00707594_bmp","1rvrrxii6f","Affordance Norms_South Alabama",1,28,"2023-04-04T21:51:09+00:00",3.6098690032959,39,"updated stim.csv","Version39.csv","Version 39","List 39","mailbag",NA,1161,5.041666667,1578,1162,"BOI","-","-","Please name all of the ways you could use this object. Keep in mind that one object can have many uses. Separate your responses with a comma.",NA,"y",3296,NA,NA,1871,2526,NA,NA,NA,"carry",1
"J00707594_bmp","1rvrrxii6f","Affordance Norms_South Alabama",1,29,"2023-04-04T21:51:12+00:00",2.8869879245758,39,"updated stim.csv","Version39.csv","Version 39","List 39","skateboarder",NA,1158,4.739130435,2391,1159,"BOI","-","-","Please name all of the ways you could use this object. Keep in mind that one object can have many uses. Separate your responses with a comma.",NA,"y",2622,NA,NA,1388,1979,NA,NA,NA,"skate",1
"J00707594_bmp","1rvrrxii6f","Affordance Norms_South Alabama",1,30,"2023-04-04T21:51:16+00:00",4.1314930915833,39,"updated stim.csv","Version39.csv","Version 39","List 39","traveler",NA,1147,4.714285714,2766,1148,"BOI","-","-","Please name all of the ways you could use this object. Keep in mind that one object can have many uses. Separate your responses with a comma.",NA,"y",3822,NA,NA,1083,3436,NA,NA,NA,"fly",1
"J00707594_bmp","1rvrrxii6f","Affordance Norms_South Alabama",1,31,"2023-04-04T21:51:21+00:00",4.9145760536194,39,"updated stim.csv","Version39.csv","Version 39","List 39","tower",NA,1155,4.307692308,2747,1156,"BOI","-","-","Please name all of the ways you could use this object. Keep in mind that one object can have many uses. Separate your responses with a comma.",NA,"y",4366,NA,NA,3158,4047,NA,NA,NA,"build",1
"J00707594_bmp","1rvrrxii6f","Affordance Norms_South Alabama",1,32,"2023-04-04T21:51:23+00:00",2.8792109489441,39,"updated stim.csv","Version39.csv","Version 39","List 39","comic",NA,1162,4.88,608,1163,"BOI","-","-","Please name all of the ways you could use this object. Keep in mind that one object can have many uses. Separate your responses with a comma.",NA,"y",2592,NA,NA,1531,2251,NA,NA,NA,"read",1
"J00707594_bmp","1rvrrxii6f","Affordance Norms_South Alabama",1,33,"2023-04-04T21:51:31+00:00",7.9129071235657,39,"updated stim.csv","Version39.csv","Version 39","List 39","quadriceps",NA,1164,4.5,2109,1165,"BOI","-","-","Please name all of the ways you could use this object. Keep in mind that one object can have many uses. Separate your responses with a comma.",NA,"y",7358,NA,NA,2180,7046,NA,NA,NA,"workout",1
"J00707594_bmp","1rvrrxii6f","Affordance Norms_South Alabama",1,34,"2023-04-04T21:51:34+00:00",2.7069618701935,39,"updated stim.csv","Version39.csv","Version 39","List 39","clubhouse",NA,1148,4.28,577,1149,"BOI","-","-","Please name all of the ways you could use this object. Keep in mind that one object can have many uses. Separate your responses with a comma.",NA,"y",2437,NA,NA,1312,2110,NA,NA,NA,"build",1
"J00707594_bmp","1rvrrxii6f","Affordance Norms_South Alabama",1,35,"2023-04-04T21:51:38+00:00",3.800085067749,39,"updated stim.csv","Version39.csv","Version 39","List 39","chambermaid",NA,1156,4.727272727,492,1157,"BOI","-","-","Please name all of the ways you could use this object. Keep in mind that one object can have many uses. Separate your responses with a comma.",NA,"y",3504,NA,NA,2371,3169,NA,NA,NA,"clean",1
"J00707594_bmp","1rvrrxii6f","Affordance Norms_South Alabama",1,36,"2023-04-04T21:51:42+00:00",3.7800779342651,39,"updated stim.csv","Version39.csv","Version 39","List 39","manhole",NA,1170,4.72,1589,1171,"BOI","-","-","Please name all of the ways you could use this object. Keep in mind that one object can have many uses. Separate your responses with a comma.",NA,"y",3473,NA,NA,2640,3118,NA,NA,NA,"dig",1
"J00707594_bmp","1rvrrxii6f","Affordance Norms_South Alabama",1,37,"2023-04-04T21:51:46+00:00",4.6013979911804,39,"updated stim.csv","Version39.csv","Version 39","List 39","matchstick",NA,1141,6.103448276,1622,1142,"BOI","-","-","Please name all of the ways you could use this object. Keep in mind that one object can have many uses. Separate your responses with a comma.",NA,"y",4064,NA,NA,1448,3571,NA,NA,NA,"light",1
"J00707594_bmp","1rvrrxii6f","Affordance Norms_South Alabama",1,38,"2023-04-04T21:51:49+00:00",2.4789941310883,39,"updated stim.csv","Version39.csv","Version 39","List 39","honey",NA,1154,5.434782609,1302,1155,"BOI","-","-","Please name all of the ways you could use this object. Keep in mind that one object can have many uses. Separate your responses with a comma.",NA,"y",2184,NA,NA,1224,1858,NA,NA,NA,"pour",1
"J00707594_bmp","1rvrrxii6f","Affordance Norms_South Alabama",1,39,"2023-04-04T21:51:55+00:00",6.3158597946167,39,"updated stim.csv","Version39.csv","Version 39","List 39","butter",NA,1142,6.217391304,375,1143,"BOI","-","-","Please name all of the ways you could use this object. Keep in mind that one object can have many uses. Separate your responses with a comma.",NA,"y",5776,NA,NA,3868,5349,NA,NA,NA,"spread",1
"J00707594_bmp","1rvrrxii6f","Affordance Norms_South Alabama",1,40,"2023-04-04T21:52:03+00:00",8.4000051021576,39,"updated stim.csv","Version39.csv","Version 39","List 39","ink",NA,1153,5.56,1356,1154,"BOI","-","-","Please name all of the ways you could use this object. Keep in mind that one object can have many uses. Separate your responses with a comma.",NA,"y",7851,NA,NA,6553,7479,NA,NA,NA,"spill",1
"J00708361_RMC","0w5cm1ds0p","Affordance Norms_South Alabama",1,11,"2023-04-18T18:39:06+00:00",10.787149906158,7,"updated stim.csv","Version7.csv","Version 7","List 7","eyelid",NA,196,5.52173913,936,197,"BOI","-","-","Please name all of the ways you could use this object. Keep in mind that one object can have many uses. Separate your responses with a comma.",NA,"y",10709,NA,NA,2062,8718,NA,NA,NA,"blinking, protection from sun, sleeping",1
"J00708361_RMC","0w5cm1ds0p","Affordance Norms_South Alabama",1,12,"2023-04-18T18:40:03+00:00",56.46718788147,7,"updated stim.csv","Version7.csv","Version 7","List 7","conductor",NA,203,4.75,624,204,"BOI","-","-","Please name all of the ways you could use this object. Keep in mind that one object can have many uses. Separate your responses with a comma.",NA,"y",56342,NA,NA,46077,54481,NA,NA,NA,"teaches, shows students things",1
"J00708361_RMC","0w5cm1ds0p","Affordance Norms_South Alabama",1,13,"2023-04-18T18:41:32+00:00",88.826585054398,7,"updated stim.csv","Version7.csv","Version 7","List 7","storeroom",NA,191,4.655172414,2553,192,"BOI","-","-","Please name all of the ways you could use this object. Keep in mind that one object can have many uses. Separate your responses with a comma.",NA,"y",88688,NA,NA,82975,87587,NA,NA,NA,"stores things, hides things",1
"J00708361_RMC","0w5cm1ds0p","Affordance Norms_South Alabama",1,14,"2023-04-18T18:42:22+00:00",50.70800614357,7,"updated stim.csv","Version7.csv","Version 7","List 7","mulch",NA,208,4.625,1715,209,"BOI","-","-","Please name all of the ways you could use this object. Keep in mind that one object can have many uses. Separate your responses with a comma.",NA,"y",50573,NA,NA,1978,46624,NA,NA,NA,"helps plants, helps soil ",1
"J00708361_RMC","0w5cm1ds0p","Affordance Norms_South Alabama",1,15,"2023-04-18T18:42:44+00:00",21.308216810226,7,"updated stim.csv","Version7.csv","Version 7","List 7","cushion",NA,190,5.75,733,191,"BOI","-","-","Please name all of the ways you could use this object. Keep in mind that one object can have many uses. Separate your responses with a comma.",NA,"y",21173,NA,NA,2881,19796,NA,NA,NA,"sit on, used to sleep on, bounce on if wanted ",1
"J00708361_RMC","0w5cm1ds0p","Affordance Norms_South Alabama",1,16,"2023-04-18T18:43:03+00:00",18.867019176483,7,"updated stim.csv","Version7.csv","Version 7","List 7","banquet",NA,201,4.538461538,145,202,"BOI","-","-","Please name all of the ways you could use this object. Keep in mind that one object can have many uses. Separate your responses with a comma.",NA,"y",18761,NA,NA,2942,16971,NA,NA,NA,"celebrates people",1
"J00708361_RMC","0w5cm1ds0p","Affordance Norms_South Alabama",1,17,"2023-04-18T18:43:27+00:00",23.936264038086,7,"updated stim.csv","Version7.csv","Version 7","List 7","funnel",NA,209,4.833333333,1065,210,"BOI","-","-","Please name all of the ways you could use this object. Keep in mind that one object can have many uses. Separate your responses with a comma.",NA,"y",23784,NA,NA,2687,22889,NA,NA,NA,"drink out of, refill something with it",1
"J00708361_RMC","0w5cm1ds0p","Affordance Norms_South Alabama",1,18,"2023-04-18T18:43:51+00:00",24.456473827362,7,"updated stim.csv","Version7.csv","Version 7","List 7","grandniece",NA,192,4.708333333,1150,193,"BOI","-","-","Please name all of the ways you could use this object. Keep in mind that one object can have many uses. Separate your responses with a comma.",NA,"y",24324,NA,NA,6899,10305,NA,NA,NA,"a part of the family",1
"J00708361_RMC","0w5cm1ds0p","Affordance Norms_South Alabama",1,19,"2023-04-18T18:44:03+00:00",11.638180971146,7,"updated stim.csv","Version7.csv","Version 7","List 7","suspender",NA,194,5.76,2598,195,"BOI","-","-","Please name all of the ways you could use this object. Keep in mind that one object can have many uses. Separate your responses with a comma.",NA,"y",11534,NA,NA,1776,8505,NA,NA,NA,"holds pants up, for decoration",1
"J00708361_RMC","0w5cm1ds0p","Affordance Norms_South Alabama",1,20,"2023-04-18T18:45:04+00:00",61.809340000153,7,"updated stim.csv","Version7.csv","Version 7","List 7","grapevine",NA,186,4.869565217,1158,187,"BOI","-","-","Please name all of the ways you could use this object. Keep in mind that one object can have many uses. Separate your responses with a comma.",NA,"y",61621,NA,NA,16541,53900,NA,NA,NA,"for wine, for fresh fruit, dried fruit, juice production",0.839
"J00708361_RMC","0w5cm1ds0p","Affordance Norms_South Alabama",1,21,"2023-04-18T18:45:23+00:00",18.340252161026,7,"updated stim.csv","Version7.csv","Version 7","List 7","salesman",NA,206,4.84,2222,207,"BOI","-","-","Please name all of the ways you could use this object. Keep in mind that one object can have many uses. Separate your responses with a comma.",NA,"y",18221,NA,NA,2195,16523,NA,NA,NA,"sell customers items, sell product for their company",1
"J00708361_RMC","0w5cm1ds0p","Affordance Norms_South Alabama",1,22,"2023-04-18T18:47:32+00:00",129.7054438591,7,"updated stim.csv","Version7.csv","Version 7","List 7","motorboat",NA,182,5.304347826,1695,183,"BOI","-","-","Please name all of the ways you could use this object. Keep in mind that one object can have many uses. Separate your responses with a comma.",NA,"y",129568,NA,NA,108818,128193,NA,NA,NA,"traveling on water, used for sports, fishing, water skiing",0.418
"J00708361_RMC","0w5cm1ds0p","Affordance Norms_South Alabama",1,23,"2023-04-18T18:48:03+00:00",30.530550003052,7,"updated stim.csv","Version7.csv","Version 7","List 7","radish",NA,188,5.846153846,2124,189,"BOI","-","-","Please name all of the ways you could use this object. Keep in mind that one object can have many uses. Separate your responses with a comma.",NA,"y",30357,NA,NA,14785,29112,NA,NA,NA,"food served raw, can be cooked into other things",0.82
"J00708361_RMC","0w5cm1ds0p","Affordance Norms_South Alabama",1,24,"2023-04-18T18:48:37+00:00",34.075913190842,7,"updated stim.csv","Version7.csv","Version 7","List 7","mucous",NA,184,5.04,1708,185,"BOI","-","-","Please name all of the ways you could use this object. Keep in mind that one object can have many uses. Separate your responses with a comma.",NA,"y",33920,NA,NA,17221,32572,NA,NA,NA,"lubricant to keep tissues from drying out",0.814
"J00708361_RMC","0w5cm1ds0p","Affordance Norms_South Alabama",1,25,"2023-04-18T18:49:59+00:00",82.187589883804,7,"updated stim.csv","Version7.csv","Version 7","List 7","Guitar",NA,193,6.293243243,1193,194,"BOI","-","-","Please name all of the ways you could use this object. Keep in mind that one object can have many uses. Separate your responses with a comma.",NA,"y",82051,NA,NA,1677,80906,NA,NA,NA,"plays music, helps make music, artistic outlet for some people",1
"J00708361_RMC","0w5cm1ds0p","Affordance Norms_South Alabama",1,26,"2023-04-18T18:50:34+00:00",35.032131910324,7,"updated stim.csv","Version7.csv","Version 7","List 7","medic",NA,207,5.217391304,1636,208,"BOI","-","-","Please name all of the ways you could use this object. Keep in mind that one object can have many uses. Separate your responses with a comma.",NA,"y",34897,NA,NA,11152,33458,NA,NA,NA,"provide medical care, operational and combat situations",0.919
"J00708361_RMC","0w5cm1ds0p","Affordance Norms_South Alabama",1,27,"2023-04-18T18:51:09+00:00",34.828176021576,7,"updated stim.csv","Version7.csv","Version 7","List 7","pine",NA,200,4.347826087,1970,201,"BOI","-","-","Please name all of the ways you could use this object. Keep in mind that one object can have many uses. Separate your responses with a comma.",NA,"y",34692,NA,NA,11877,33325,NA,NA,NA,"construction, paper product companies, grown on trees ",0.87
"J00708361_RMC","0w5cm1ds0p","Affordance Norms_South Alabama",1,28,"2023-04-18T18:52:36+00:00",87.283197164536,7,"updated stim.csv","Version7.csv","Version 7","List 7","eyebath",NA,199,4.368421053,931,200,"BOI","-","-","Please name all of the ways you could use this object. Keep in mind that one object can have many uses. Separate your responses with a comma.",NA,"y",87144,NA,NA,10901,82750,NA,NA,NA,"safely cleans the eyes, prevents further injury to the eye",0.633
"J00708361_RMC","0w5cm1ds0p","Affordance Norms_South Alabama",1,29,"2023-04-18T18:53:33+00:00",56.771191835403,7,"updated stim.csv","Version7.csv","Version 7","List 7","pad",NA,210,5.217391304,1840,211,"BOI","-","-","Please name all of the ways you could use this object. Keep in mind that one object can have many uses. Separate your responses with a comma.",NA,"y",56601,NA,NA,31349,43444,NA,NA,NA,"helps women during their period, cleans things up",0.856
"J00708361_RMC","0w5cm1ds0p","Affordance Norms_South Alabama",1,30,"2023-04-18T18:55:42+00:00",128.85327410698,7,"updated stim.csv","Version7.csv","Version 7","List 7","daddy",NA,183,5.24,745,184,"BOI","-","-","Please name all of the ways you could use this object. Keep in mind that one object can have many uses. Separate your responses with a comma.",NA,"y",128654,NA,NA,49684,127699,NA,NA,NA,"takes care of the house, the kids, the mother",0.989
"J00708361_RMC","0w5cm1ds0p","Affordance Norms_South Alabama",1,31,"2023-04-18T18:56:14+00:00",31.772647857666,7,"updated stim.csv","Version7.csv","Version 7","List 7","store",NA,204,5.739130435,2550,205,"BOI","-","-","Please name all of the ways you could use this object. Keep in mind that one object can have many uses. Separate your responses with a comma.",NA,"y",31594,NA,NA,1604,20987,NA,NA,NA,"sells things, put things out for customers",0.938
"J00708361_RMC","0w5cm1ds0p","Affordance Norms_South Alabama",1,32,"2023-04-18T18:56:53+00:00",39.378036022186,7,"updated stim.csv","Version7.csv","Version 7","List 7","people",NA,205,6.076923077,1920,206,"BOI","-","-","Please name all of the ways you could use this object. Keep in mind that one object can have many uses. Separate your responses with a comma.",NA,"y",39247,NA,NA,14712,17651,NA,NA,NA,"to keep the world going",1
"J00708361_RMC","0w5cm1ds0p","Affordance Norms_South Alabama",1,33,"2023-04-18T18:57:19+00:00",25.863809108734,7,"updated stim.csv","Version7.csv","Version 7","List 7","controller",NA,202,5.458333333,630,203,"BOI","-","-","Please name all of the ways you could use this object. Keep in mind that one object can have many uses. Separate your responses with a comma.",NA,"y",25688,NA,NA,12867,24702,NA,NA,NA,"manages, directs the flow of data between systems",0.86
"J00708361_RMC","0w5cm1ds0p","Affordance Norms_South Alabama",1,34,"2023-04-18T18:57:38+00:00",18.866664886475,7,"updated stim.csv","Version7.csv","Version 7","List 7","person",NA,198,6.12,1930,199,"BOI","-","-","Please name all of the ways you could use this object. Keep in mind that one object can have many uses. Separate your responses with a comma.",NA,"y",18755,NA,NA,14188,17838,NA,NA,NA,"to keep this world going",0.852
"J00708361_RMC","0w5cm1ds0p","Affordance Norms_South Alabama",1,35,"2023-04-18T18:57:45+00:00",7.2868831157684,7,"updated stim.csv","Version7.csv","Version 7","List 7","peanut",NA,185,6.192307692,1893,186,"BOI","-","-","Please name all of the ways you could use this object. Keep in mind that one object can have many uses. Separate your responses with a comma.",NA,"y",7150,NA,NA,2026,6337,NA,NA,NA,"to eat, make into other food items",1
"J00708361_RMC","0w5cm1ds0p","Affordance Norms_South Alabama",1,36,"2023-04-18T18:58:16+00:00",30.390095949173,7,"updated stim.csv","Version7.csv","Version 7","List 7","silk",NA,181,4.8,2381,182,"BOI","-","-","Please name all of the ways you could use this object. Keep in mind that one object can have many uses. Separate your responses with a comma.",NA,"y",30264,NA,NA,10544,27160,NA,NA,NA,"for clothes, for sheets",0.935
"J00708361_RMC","0w5cm1ds0p","Affordance Norms_South Alabama",1,37,"2023-04-18T18:59:21+00:00",64.932582139969,7,"updated stim.csv","Version7.csv","Version 7","List 7","goldfish",NA,197,4.739130435,1133,198,"BOI","-","-","Please name all of the ways you could use this object. Keep in mind that one object can have many uses. Separate your responses with a comma.",NA,"y",64805,NA,NA,2094,3952,NA,NA,NA,"to have as a pet",1
"J00708361_RMC","0w5cm1ds0p","Affordance Norms_South Alabama",1,38,"2023-04-18T18:59:40+00:00",19.355312824249,7,"updated stim.csv","Version7.csv","Version 7","List 7","tent",NA,189,5.5,2664,190,"BOI","-","-","Please name all of the ways you could use this object. Keep in mind that one object can have many uses. Separate your responses with a comma.",NA,"y",19255,NA,NA,1633,18380,NA,NA,NA,"to use when camping, help protect you in wild from rain and stuff",1
"J00708361_RMC","0w5cm1ds0p","Affordance Norms_South Alabama",1,39,"2023-04-18T18:59:57+00:00",17.536376953125,7,"updated stim.csv","Version7.csv","Version 7","List 7","kilt",NA,195,5.04,1418,196,"BOI","-","-","Please name all of the ways you could use this object. Keep in mind that one object can have many uses. Separate your responses with a comma.",NA,"y",17415,NA,NA,1859,15392,NA,NA,NA,"to where, can be made in different colors and sizes",1
"J00708361_RMC","0w5cm1ds0p","Affordance Norms_South Alabama",1,40,"2023-04-18T19:00:06+00:00",8.123214006424,7,"updated stim.csv","Version7.csv","Version 7","List 7","cheese",NA,187,6.391304348,506,188,"BOI","-","-","Please name all of the ways you could use this object. Keep in mind that one object can have many uses. Separate your responses with a comma.",NA,"y",8014,NA,NA,1258,6685,NA,NA,NA,"to be eaten, cooked into other foods",1
"J00708576_cag","r639rkdg0b","Affordance Norms_South Alabama",1,11,"2023-04-01T03:24:01+00:00",33.541110038757,30,"updated stim.csv","Version30.csv","Version 30","List 30","locksmith",NA,874,4.8,1538,875,"BOI","-","-","Please name all of the ways you could use this object. Keep in mind that one object can have many uses. Separate your responses with a comma.",NA,"y",33368,NA,NA,4904,31094,NA,NA,NA,"open lock, break lock, fix lock ",1
"J00708576_cag","r639rkdg0b","Affordance Norms_South Alabama",1,12,"2023-04-01T03:24:40+00:00",38.728949069977,30,"updated stim.csv","Version30.csv","Version 30","List 30","lipstick",NA,878,5.928571429,1522,879,"BOI","-","-","Please name all of the ways you could use this object. Keep in mind that one object can have many uses. Separate your responses with a comma.",NA,"y",38566,NA,NA,2266,37178,NA,NA,NA,"wear, smother, write, share, express",1
"J00708576_cag","r639rkdg0b","Affordance Norms_South Alabama",1,13,"2023-04-01T03:25:17+00:00",37.123656988144,30,"updated stim.csv","Version30.csv","Version 30","List 30","birdseed",NA,880,5.739130435,222,881,"BOI","-","-","Please name all of the ways you could use this object. Keep in mind that one object can have many uses. Separate your responses with a comma.",NA,"y",36957,NA,NA,4828,21265,NA,NA,NA,"pour for birds, feed pets",1
"J00708576_cag","r639rkdg0b","Affordance Norms_South Alabama",1,14,"2023-04-01T03:25:57+00:00",39.804672002792,30,"updated stim.csv","Version30.csv","Version 30","List 30","buffalo",NA,893,4.692307692,345,894,"BOI","-","-","Please name all of the ways you could use this object. Keep in mind that one object can have many uses. Separate your responses with a comma.",NA,"y",39638,NA,NA,4001,34045,NA,NA,NA,"eat, ride, study, dissect, observe",1
"J00708576_cag","r639rkdg0b","Affordance Norms_South Alabama",1,15,"2023-04-01T03:26:47+00:00",50.634808063507,30,"updated stim.csv","Version30.csv","Version 30","List 30","woodblock",NA,881,5.4,2957,882,"BOI","-","-","Please name all of the ways you could use this object. Keep in mind that one object can have many uses. Separate your responses with a comma.",NA,"y",50443,NA,NA,9732,37662,NA,NA,NA,"door stopper, children's play toy, crafts, widdling, ",1
"J00708576_cag","r639rkdg0b","Affordance Norms_South Alabama",1,16,"2023-04-01T03:27:16+00:00",28.623845815659,30,"updated stim.csv","Version30.csv","Version 30","List 30","sign",NA,876,4.666666667,2379,877,"BOI","-","-","Please name all of the ways you could use this object. Keep in mind that one object can have many uses. Separate your responses with a comma.",NA,"y",28448,NA,NA,3870,26829,NA,NA,NA,"read, write, gain attention, send a message, advertise",1
"J00708576_cag","r639rkdg0b","Affordance Norms_South Alabama",1,17,"2023-04-01T03:28:22+00:00",65.519088983536,30,"updated stim.csv","Version30.csv","Version 30","List 30","compost",NA,891,5.041666667,614,892,"BOI","-","-","Please name all of the ways you could use this object. Keep in mind that one object can have many uses. Separate your responses with a comma.",NA,"y",65321,NA,NA,8862,63477,NA,NA,NA,"gardening, help soil, ecofriendly substitute for trashing biodegradable items",1
"J00708576_cag","r639rkdg0b","Affordance Norms_South Alabama",1,18,"2023-04-01T03:28:58+00:00",36.80516910553,30,"updated stim.csv","Version30.csv","Version 30","List 30","proofreader",NA,884,4.36,2073,885,"BOI","-","-","Please name all of the ways you could use this object. Keep in mind that one object can have many uses. Separate your responses with a comma.",NA,"y",36625,NA,NA,3260,29665,NA,NA,NA,"spell check, grammar check, content check, plagarism check",1
"J00708576_cag","r639rkdg0b","Affordance Norms_South Alabama",1,19,"2023-04-01T03:29:47+00:00",48.577611923218,30,"updated stim.csv","Version30.csv","Version 30","List 30","brother",NA,873,5.043478261,335,874,"BOI","-","-","Please name all of the ways you could use this object. Keep in mind that one object can have many uses. Separate your responses with a comma.",NA,"y",48398,NA,NA,3526,46101,NA,NA,NA,"hug, support them, help them, finish chores, drive places",1
"J00708576_cag","r639rkdg0b","Affordance Norms_South Alabama",1,20,"2023-04-01T03:30:24+00:00",36.780173063278,30,"updated stim.csv","Version30.csv","Version 30","List 30","cockatoo",NA,877,4.666666667,587,878,"BOI","-","-","Please name all of the ways you could use this object. Keep in mind that one object can have many uses. Separate your responses with a comma.",NA,"y",36592,NA,NA,12029,35042,NA,NA,NA,"eggs, pet friend, emotional support",1
"J00708576_cag","r639rkdg0b","Affordance Norms_South Alabama",1,21,"2023-04-01T03:31:41+00:00",77.545861959457,30,"updated stim.csv","Version30.csv","Version 30","List 30","peashooter",NA,886,4.84,1897,887,"BOI","-","-","Please name all of the ways you could use this object. Keep in mind that one object can have many uses. Separate your responses with a comma.",NA,"y",77364,NA,NA,9746,74067,NA,NA,NA,"eat, create new recipes, cook",1
"J00708576_cag","r639rkdg0b","Affordance Norms_South Alabama",1,22,"2023-04-01T03:33:18+00:00",96.440318107605,30,"updated stim.csv","Version30.csv","Version 30","List 30","shore",NA,894,4.333333333,2355,895,"BOI","-","-","Please name all of the ways you could use this object. Keep in mind that one object can have many uses. Separate your responses with a comma.",NA,"y",96251,NA,NA,3354,94732,NA,NA,NA,"build sandcastles, nest ocean and marine wildlife, sunbathing, walking, running, separate land from water, collect shells",1
"J00708576_cag","r639rkdg0b","Affordance Norms_South Alabama",1,23,"2023-04-01T03:33:49+00:00",30.814785003662,30,"updated stim.csv","Version30.csv","Version 30","List 30","album",NA,895,5.791666667,23,896,"BOI","-","-","Please name all of the ways you could use this object. Keep in mind that one object can have many uses. Separate your responses with a comma.",NA,"y",30621,NA,NA,6537,29287,NA,NA,NA,"listen, learn, observe",1
"J00708576_cag","r639rkdg0b","Affordance Norms_South Alabama",1,24,"2023-04-01T03:34:28+00:00",39.385339975357,30,"updated stim.csv","Version30.csv","Version 30","List 30","tiller",NA,875,4.541666667,2698,876,"BOI","-","-","Please name all of the ways you could use this object. Keep in mind that one object can have many uses. Separate your responses with a comma.",NA,"y",39205,NA,NA,28695,36548,NA,NA,NA,"control vehicles",1
"J00708576_cag","r639rkdg0b","Affordance Norms_South Alabama",1,25,"2023-04-01T03:35:10+00:00",42.358416080475,30,"updated stim.csv","Version30.csv","Version 30","List 30","schoolboy",NA,885,4.92,2270,886,"BOI","-","-","Please name all of the ways you could use this object. Keep in mind that one object can have many uses. Separate your responses with a comma.",NA,"y",42190,NA,NA,10107,30497,NA,NA,NA,"teach, support",1
"J00708576_cag","r639rkdg0b","Affordance Norms_South Alabama",1,26,"2023-04-01T03:35:44+00:00",33.838074922562,30,"updated stim.csv","Version30.csv","Version 30","List 30","singer",NA,896,4.821428571,2384,897,"BOI","-","-","Please name all of the ways you could use this object. Keep in mind that one object can have many uses. Separate your responses with a comma.",NA,"y",33667,NA,NA,4064,32471,NA,NA,NA,"listen to, perform concerts, ",1
"J00708576_cag","r639rkdg0b","Affordance Norms_South Alabama",1,27,"2023-04-01T03:36:09+00:00",24.45441699028,30,"updated stim.csv","Version30.csv","Version 30","List 30","underwear",NA,887,6.52173913,2825,888,"BOI","-","-","Please name all of the ways you could use this object. Keep in mind that one object can have many uses. Separate your responses with a comma.",NA,"y",24284,NA,NA,1954,22450,NA,NA,NA,"wear, hold pads, protect reproductive organs",1
"J00708576_cag","r639rkdg0b","Affordance Norms_South Alabama",1,28,"2023-04-01T03:36:18+00:00",9.4124228954315,30,"updated stim.csv","Version30.csv","Version 30","List 30","bolt",NA,888,4.925925926,263,889,"BOI","-","-","Please name all of the ways you could use this object. Keep in mind that one object can have many uses. Separate your responses with a comma.",NA,"y",9239,NA,NA,2797,7665,NA,NA,NA,"hold things together",1
"J00708576_cag","r639rkdg0b","Affordance Norms_South Alabama",1,29,"2023-04-01T03:37:21+00:00",62.707395076752,30,"updated stim.csv","Version30.csv","Version 30","List 30","sarong",NA,890,5.357142857,2243,891,"BOI","-","-","Please name all of the ways you could use this object. Keep in mind that one object can have many uses. Separate your responses with a comma.",NA,"y",62542,NA,NA,11614,61085,NA,NA,NA,"swimsuit coverup, clothing, shield skin from sun",1
"J00708576_cag","r639rkdg0b","Affordance Norms_South Alabama",1,30,"2023-04-01T03:37:30+00:00",9.7423450946808,30,"updated stim.csv","Version30.csv","Version 30","List 30","letter",NA,889,5.259259259,1495,890,"BOI","-","-","Please name all of the ways you could use this object. Keep in mind that one object can have many uses. Separate your responses with a comma.",NA,"y",9565,NA,NA,2604,5804,NA,NA,NA,"communication",1
"J00708576_cag","r639rkdg0b","Affordance Norms_South Alabama",1,31,"2023-04-01T03:38:23+00:00",52.155018806458,30,"updated stim.csv","Version30.csv","Version 30","List 30","copier",NA,892,5.136363636,636,893,"BOI","-","-","Please name all of the ways you could use this object. Keep in mind that one object can have many uses. Separate your responses with a comma.",NA,"y",51981,NA,NA,2675,49844,NA,NA,NA,"make reproductions of identical papers",1
"J00708576_cag","r639rkdg0b","Affordance Norms_South Alabama",1,32,"2023-04-01T03:38:37+00:00",14.536322116852,30,"updated stim.csv","Version30.csv","Version 30","List 30","syrup",NA,898,5.16,2614,899,"BOI","-","-","Please name all of the ways you could use this object. Keep in mind that one object can have many uses. Separate your responses with a comma.",NA,"y",14355,NA,NA,2779,13718,NA,NA,NA,"eat, cook, bake, topping",1
"J00708576_cag","r639rkdg0b","Affordance Norms_South Alabama",1,33,"2023-04-01T03:38:48+00:00",10.612653970718,30,"updated stim.csv","Version30.csv","Version 30","List 30","trumpet",NA,900,6.291666667,2787,901,"BOI","-","-","Please name all of the ways you could use this object. Keep in mind that one object can have many uses. Separate your responses with a comma.",NA,"y",10428,NA,NA,3948,8166,NA,NA,NA,"play, listen",1
"J00708576_cag","r639rkdg0b","Affordance Norms_South Alabama",1,34,"2023-04-01T03:39:38+00:00",49.983485937119,30,"updated stim.csv","Version30.csv","Version 30","List 30","factory",NA,879,4.44,941,880,"BOI","-","-","Please name all of the ways you could use this object. Keep in mind that one object can have many uses. Separate your responses with a comma.",NA,"y",49806,NA,NA,29335,47942,NA,NA,NA,"production, workplace, efficiency",1
"J00708576_cag","r639rkdg0b","Affordance Norms_South Alabama",1,35,"2023-04-01T03:39:50+00:00",12.252205133438,30,"updated stim.csv","Version30.csv","Version 30","List 30","checkbook",NA,871,5.666666667,499,872,"BOI","-","-","Please name all of the ways you could use this object. Keep in mind that one object can have many uses. Separate your responses with a comma.",NA,"y",12084,NA,NA,3182,10351,NA,NA,NA,"money transfers",1
"J00708576_cag","r639rkdg0b","Affordance Norms_South Alabama",1,36,"2023-04-01T03:40:18+00:00",28.050171852112,30,"updated stim.csv","Version30.csv","Version 30","List 30","collie",NA,897,5.730769231,603,898,"BOI","-","-","Please name all of the ways you could use this object. Keep in mind that one object can have many uses. Separate your responses with a comma.",NA,"y",27861,NA,NA,23005,26277,NA,NA,NA,"herding, pet",1
"J00708576_cag","r639rkdg0b","Affordance Norms_South Alabama",1,37,"2023-04-01T03:40:38+00:00",19.973527193069,30,"updated stim.csv","Version30.csv","Version 30","List 30","gum",NA,899,6.36,1195,900,"BOI","-","-","Please name all of the ways you could use this object. Keep in mind that one object can have many uses. Separate your responses with a comma.",NA,"y",19790,NA,NA,2094,17201,NA,NA,NA,"chewing, sugar intake, tasty",1
"J00708576_cag","r639rkdg0b","Affordance Norms_South Alabama",1,38,"2023-04-01T03:41:14+00:00",36.451452970505,30,"updated stim.csv","Version30.csv","Version 30","List 30","fairground",NA,882,4.608695652,943,883,"BOI","-","-","Please name all of the ways you could use this object. Keep in mind that one object can have many uses. Separate your responses with a comma.",NA,"y",36279,NA,NA,19198,34898,NA,NA,NA,"can hold circuses or events like fairs",1
"J00708576_cag","r639rkdg0b","Affordance Norms_South Alabama",1,39,"2023-04-01T03:41:54+00:00",39.247253894806,30,"updated stim.csv","Version30.csv","Version 30","List 30","chart",NA,883,4.428571429,497,884,"BOI","-","-","Please name all of the ways you could use this object. Keep in mind that one object can have many uses. Separate your responses with a comma.",NA,"y",39083,NA,NA,3631,37376,NA,NA,NA,"read, fill out, write, track processes",1
"J00708576_cag","r639rkdg0b","Affordance Norms_South Alabama",1,40,"2023-04-01T03:42:19+00:00",25.615662097931,30,"updated stim.csv","Version30.csv","Version 30","List 30","blade",NA,872,5.833333333,231,873,"BOI","-","-","Please name all of the ways you could use this object. Keep in mind that one object can have many uses. Separate your responses with a comma.",NA,"y",25431,NA,NA,2212,21621,NA,NA,NA,"cut, defense, offense",1
"J00708583","62k5if7w94","Affordance Norms_South Alabama",1,11,"2023-04-09T17:29:44+00:00",19.248509883881,63,"updated stim.csv","Version63.csv","Version 63","List 63","flag",NA,1886,5.851851852,995,1887,"BOI","-","-","Please name all of the ways you could use this object. Keep in mind that one object can have many uses. Separate your responses with a comma.",NA,"y",18987,NA,NA,2806,17907,NA,NA,NA,"wave, fly, put up",1
"J00708583","62k5if7w94","Affordance Norms_South Alabama",1,12,"2023-04-09T17:29:54+00:00",9.3526220321655,63,"updated stim.csv","Version63.csv","Version 63","List 63","headlight",NA,1868,4.538461538,1267,1869,"BOI","-","-","Please name all of the ways you could use this object. Keep in mind that one object can have many uses. Separate your responses with a comma.",NA,"y",9082,NA,NA,3474,6371,NA,NA,NA,"shine, use, ",1
"J00708583","62k5if7w94","Affordance Norms_South Alabama",1,13,"2023-04-09T17:30:04+00:00",10.428836107254,63,"updated stim.csv","Version63.csv","Version 63","List 63","grandnephew",NA,1875,5.08,1149,1876,"BOI","-","-","Please name all of the ways you could use this object. Keep in mind that one object can have many uses. Separate your responses with a comma.",NA,"y",10157,NA,NA,2529,9087,NA,NA,NA,"pet, gift, love",1
"J00708583","62k5if7w94","Affordance Norms_South Alabama",1,14,"2023-04-09T17:30:10+00:00",5.5999629497528,63,"updated stim.csv","Version63.csv","Version 63","List 63","margarine",NA,1880,5.56,1604,1881,"BOI","-","-","Please name all of the ways you could use this object. Keep in mind that one object can have many uses. Separate your responses with a comma.",NA,"y",5329,NA,NA,2191,4468,NA,NA,NA,"bake, eat",1
"J00708583","62k5if7w94","Affordance Norms_South Alabama",1,15,"2023-04-09T17:30:18+00:00",7.6977689266205,63,"updated stim.csv","Version63.csv","Version 63","List 63","wineglass",NA,1890,6.416666667,2948,1891,"BOI","-","-","Please name all of the ways you could use this object. Keep in mind that one object can have many uses. Separate your responses with a comma.",NA,"y",7432,NA,NA,1900,6546,NA,NA,NA,"drink out of, decorate",1
"J00708583","62k5if7w94","Affordance Norms_South Alabama",1,16,"2023-04-09T17:30:25+00:00",7.6465229988098,63,"updated stim.csv","Version63.csv","Version 63","List 63","wench",NA,1871,4.956521739,2919,1872,"BOI","-","-","Please name all of the ways you could use this object. Keep in mind that one object can have many uses. Separate your responses with a comma.",NA,"y",7383,NA,NA,3338,6664,NA,NA,NA,"use tool",1
"J00708583","62k5if7w94","Affordance Norms_South Alabama",1,17,"2023-04-09T17:30:32+00:00",7.2737951278687,63,"updated stim.csv","Version63.csv","Version 63","List 63","cauliflower",NA,1863,5.269230769,466,1864,"BOI","-","-","Please name all of the ways you could use this object. Keep in mind that one object can have many uses. Separate your responses with a comma.",NA,"y",7001,NA,NA,1292,5620,NA,NA,NA,"eat, cook, bake",1
"J00708583","62k5if7w94","Affordance Norms_South Alabama",1,18,"2023-04-09T17:30:40+00:00",7.8451659679413,63,"updated stim.csv","Version63.csv","Version 63","List 63","vomit",NA,1867,4.666666667,2874,1868,"BOI","-","-","Please name all of the ways you could use this object. Keep in mind that one object can have many uses. Separate your responses with a comma.",NA,"y",7583,NA,NA,5412,6635,NA,NA,NA,"no use",1
"J00708583","62k5if7w94","Affordance Norms_South Alabama",1,19,"2023-04-09T17:30:47+00:00",6.6173560619354,63,"updated stim.csv","Version63.csv","Version 63","List 63","fiancee",NA,1872,5.652173913,969,1873,"BOI","-","-","Please name all of the ways you could use this object. Keep in mind that one object can have many uses. Separate your responses with a comma.",NA,"y",6341,NA,NA,2939,5223,NA,NA,NA,"love, marry",1
"J00708583","62k5if7w94","Affordance Norms_South Alabama",1,20,"2023-04-09T17:30:54+00:00",6.9685759544373,63,"updated stim.csv","Version63.csv","Version 63","List 63","parent",NA,1870,5.04,1875,1871,"BOI","-","-","Please name all of the ways you could use this object. Keep in mind that one object can have many uses. Separate your responses with a comma.",NA,"y",6699,NA,NA,1758,5817,NA,NA,NA,"respect, obey, love",1
"J00708583","62k5if7w94","Affordance Norms_South Alabama",1,21,"2023-04-09T17:31:03+00:00",9.1186380386353,63,"updated stim.csv","Version63.csv","Version 63","List 63","calculator",NA,1878,6.24,400,1879,"BOI","-","-","Please name all of the ways you could use this object. Keep in mind that one object can have many uses. Separate your responses with a comma.",NA,"y",8848,NA,NA,2464,7802,NA,NA,NA,"do math, calculate,",1
"J00708583","62k5if7w94","Affordance Norms_South Alabama",1,22,"2023-04-09T17:31:09+00:00",5.8318989276886,63,"updated stim.csv","Version63.csv","Version 63","List 63","headpiece",NA,1877,5.347826087,1270,1878,"BOI","-","-","Please name all of the ways you could use this object. Keep in mind that one object can have many uses. Separate your responses with a comma.",NA,"y",5554,NA,NA,4179,4692,NA,NA,NA,"wear",1
"J00708583","62k5if7w94","Affordance Norms_South Alabama",1,23,"2023-04-09T17:31:12+00:00",3.1375930309296,63,"updated stim.csv","Version63.csv","Version 63","List 63","underclothes",NA,1862,6,2819,1863,"BOI","-","-","Please name all of the ways you could use this object. Keep in mind that one object can have many uses. Separate your responses with a comma.",NA,"y",2980,NA,NA,1514,2095,NA,NA,NA,"wear",1
"J00708583","62k5if7w94","Affordance Norms_South Alabama",1,24,"2023-04-09T17:31:19+00:00",6.7248568534851,63,"updated stim.csv","Version63.csv","Version 63","List 63","firearm",NA,1861,5.814814815,983,1862,"BOI","-","-","Please name all of the ways you could use this object. Keep in mind that one object can have many uses. Separate your responses with a comma.",NA,"y",6454,NA,NA,1577,4976,NA,NA,NA,"shoot, carry",1
"J00708583","62k5if7w94","Affordance Norms_South Alabama",1,25,"2023-04-09T17:31:26+00:00",7.6728751659393,63,"updated stim.csv","Version63.csv","Version 63","List 63","scarecrow",NA,1864,5,2267,1865,"BOI","-","-","Please name all of the ways you could use this object. Keep in mind that one object can have many uses. Separate your responses with a comma.",NA,"y",7392,NA,NA,2172,6647,NA,NA,NA,"put up, scares",1
"J00708583","62k5if7w94","Affordance Norms_South Alabama",1,26,"2023-04-09T17:31:39+00:00",12.33457493782,63,"updated stim.csv","Version63.csv","Version 63","List 63","hamper",NA,1869,4.4,1225,1870,"BOI","-","-","Please name all of the ways you could use this object. Keep in mind that one object can have many uses. Separate your responses with a comma.",NA,"y",12019,NA,NA,6956,10863,NA,NA,NA,"I dont know what a hamper is",1
"J00708583","62k5if7w94","Affordance Norms_South Alabama",1,27,"2023-04-09T17:31:48+00:00",9.5492649078369,63,"updated stim.csv","Version63.csv","Version 63","List 63","noodle",NA,1874,6.24,1776,1875,"BOI","-","-","Please name all of the ways you could use this object. Keep in mind that one object can have many uses. Separate your responses with a comma.",NA,"y",9258,NA,NA,7230,7531,NA,NA,NA,"eat",1
"J00708583","62k5if7w94","Affordance Norms_South Alabama",1,28,"2023-04-09T17:31:52+00:00",3.2956299781799,63,"updated stim.csv","Version63.csv","Version 63","List 63","chevy",NA,1889,4.956521739,515,1890,"BOI","-","-","Please name all of the ways you could use this object. Keep in mind that one object can have many uses. Separate your responses with a comma.",NA,"y",3133,NA,NA,1387,1986,NA,NA,NA,"drive",1
"J00708583","62k5if7w94","Affordance Norms_South Alabama",1,29,"2023-04-09T17:31:55+00:00",3.8033590316772,63,"updated stim.csv","Version63.csv","Version 63","List 63","sheepdog",NA,1865,5.375,2329,1866,"BOI","-","-","Please name all of the ways you could use this object. Keep in mind that one object can have many uses. Separate your responses with a comma.",NA,"y",3655,NA,NA,2176,2483,NA,NA,NA,"what",1
"J00708583","62k5if7w94","Affordance Norms_South Alabama",1,30,"2023-04-09T17:31:58+00:00",2.9493901729584,63,"updated stim.csv","Version63.csv","Version 63","List 63","storybook",NA,1884,5.703703704,2554,1885,"BOI","-","-","Please name all of the ways you could use this object. Keep in mind that one object can have many uses. Separate your responses with a comma.",NA,"y",2791,NA,NA,1169,1777,NA,NA,NA,"read",1
"J00708583","62k5if7w94","Affordance Norms_South Alabama",1,31,"2023-04-09T17:32:02+00:00",4.0760378837585,63,"updated stim.csv","Version63.csv","Version 63","List 63","dandelion",NA,1873,5.826086957,755,1874,"BOI","-","-","Please name all of the ways you could use this object. Keep in mind that one object can have many uses. Separate your responses with a comma.",NA,"y",3936,NA,NA,1371,2898,NA,NA,NA,"smell",1
"J00708583","62k5if7w94","Affordance Norms_South Alabama",1,32,"2023-04-09T17:32:11+00:00",8.3718059062958,63,"updated stim.csv","Version63.csv","Version 63","List 63","pepperoni",NA,1882,5.875,1924,1883,"BOI","-","-","Please name all of the ways you could use this object. Keep in mind that one object can have many uses. Separate your responses with a comma.",NA,"y",8126,NA,NA,3939,7208,NA,NA,NA,"eat, on pizza",1
"J00708583","62k5if7w94","Affordance Norms_South Alabama",1,33,"2023-04-09T17:32:17+00:00",6.0047521591187,63,"updated stim.csv","Version63.csv","Version 63","List 63","hardwood",NA,1876,5.076923077,1250,1877,"BOI","-","-","Please name all of the ways you could use this object. Keep in mind that one object can have many uses. Separate your responses with a comma.",NA,"y",5731,NA,NA,3127,4698,NA,NA,NA,"sit things on",1
"J00708583","62k5if7w94","Affordance Norms_South Alabama",1,34,"2023-04-09T17:32:27+00:00",10.036031007767,63,"updated stim.csv","Version63.csv","Version 63","List 63","sledgehammer",NA,1881,5.916666667,2408,1882,"BOI","-","-","Please name all of the ways you could use this object. Keep in mind that one object can have many uses. Separate your responses with a comma.",NA,"y",9769,NA,NA,2573,8580,NA,NA,NA,"break things, help anger issues",1
"J00708583","62k5if7w94","Affordance Norms_South Alabama",1,35,"2023-04-09T17:32:30+00:00",3.5172209739685,63,"updated stim.csv","Version63.csv","Version 63","List 63","page",NA,1885,4.96,1844,1886,"BOI","-","-","Please name all of the ways you could use this object. Keep in mind that one object can have many uses. Separate your responses with a comma.",NA,"y",3351,NA,NA,1956,3142,NA,NA,NA,"turn it ",1
"J00708583","62k5if7w94","Affordance Norms_South Alabama",1,36,"2023-04-09T17:32:33+00:00",2.737067937851,63,"updated stim.csv","Version63.csv","Version 63","List 63","him",NA,1879,4.47826087,1289,1880,"BOI","-","-","Please name all of the ways you could use this object. Keep in mind that one object can have many uses. Separate your responses with a comma.",NA,"y",2597,NA,NA,1731,2361,NA,NA,NA,"person",1
"J00708583","62k5if7w94","Affordance Norms_South Alabama",1,37,"2023-04-09T17:32:36+00:00",2.4687349796295,63,"updated stim.csv","Version63.csv","Version 63","List 63","pebble",NA,1866,5.47826087,1898,1867,"BOI","-","-","Please name all of the ways you could use this object. Keep in mind that one object can have many uses. Separate your responses with a comma.",NA,"y",2331,NA,NA,1396,2054,NA,NA,NA,"rock",1
"J00708583","62k5if7w94","Affordance Norms_South Alabama",1,38,"2023-04-09T17:32:42+00:00",6.7718811035156,63,"updated stim.csv","Version63.csv","Version 63","List 63","pilot",NA,1888,4.52173913,1964,1889,"BOI","-","-","Please name all of the ways you could use this object. Keep in mind that one object can have many uses. Separate your responses with a comma.",NA,"y",6506,NA,NA,2911,6376,NA,NA,NA,"fly airplane",1
"J00708583","62k5if7w94","Affordance Norms_South Alabama",1,39,"2023-04-09T17:32:47+00:00",5.0428938865662,63,"updated stim.csv","Version63.csv","Version 63","List 63","trainee",NA,1883,4.72,2757,1884,"BOI","-","-","Please name all of the ways you could use this object. Keep in mind that one object can have many uses. Separate your responses with a comma.",NA,"y",4778,NA,NA,2937,4549,NA,NA,NA,"learner",1
"J00708583","62k5if7w94","Affordance Norms_South Alabama",1,40,"2023-04-09T17:32:50+00:00",2.729583978653,63,"updated stim.csv","Version63.csv","Version 63","List 63","dough",NA,1887,6.086956522,833,1888,"BOI","-","-","Please name all of the ways you could use this object. Keep in mind that one object can have many uses. Separate your responses with a comma.",NA,"y",2573,NA,NA,1760,2215,NA,NA,NA,"yum",1
"J00709111","yz6jdpania","Affordance Norms_South Alabama",1,11,"2023-04-13T03:12:46+00:00",21.049965858459,82,"updated stim.csv","Version82.csv","Version 82","List 82","corduroy",NA,2446,5.041666667,641,2447,"BOI","-","-","Please name all of the ways you could use this object. Keep in mind that one object can have many uses. Separate your responses with a comma.",NA,"y",20546,NA,NA,3223,13408,NA,NA,NA,"torn, painted, thrown away",1
"J00709111","yz6jdpania","Affordance Norms_South Alabama",1,12,"2023-04-13T03:12:57+00:00",11.113656044006,82,"updated stim.csv","Version82.csv","Version 82","List 82","teakwood",NA,2436,5.136363636,2647,2437,"BOI","-","-","Please name all of the ways you could use this object. Keep in mind that one object can have many uses. Separate your responses with a comma.",NA,"y",10823,NA,NA,2370,10304,NA,NA,NA,"bent, broken, used",1
"J00709111","yz6jdpania","Affordance Norms_South Alabama",1,13,"2023-04-13T03:13:07+00:00",10.073087930679,82,"updated stim.csv","Version82.csv","Version 82","List 82","dumpling",NA,2449,4.826086957,867,2450,"BOI","-","-","Please name all of the ways you could use this object. Keep in mind that one object can have many uses. Separate your responses with a comma.",NA,"y",9716,NA,NA,1644,9232,NA,NA,NA,"eaten, thrown, stepped on",1
"J00709111","yz6jdpania","Affordance Norms_South Alabama",1,14,"2023-04-13T03:13:17+00:00",9.4795250892639,82,"updated stim.csv","Version82.csv","Version 82","List 82","cartridge",NA,2444,5.12,444,2445,"BOI","-","-","Please name all of the ways you could use this object. Keep in mind that one object can have many uses. Separate your responses with a comma.",NA,"y",9147,NA,NA,7382,8437,NA,NA,NA,"kicked",1
"J00709111","yz6jdpania","Affordance Norms_South Alabama",1,15,"2023-04-13T03:13:25+00:00",8.4103620052338,82,"updated stim.csv","Version82.csv","Version 82","List 82","saxophone",NA,2456,6.222222222,2257,2457,"BOI","-","-","Please name all of the ways you could use this object. Keep in mind that one object can have many uses. Separate your responses with a comma.",NA,"y",8138,NA,NA,1425,7684,NA,NA,NA,"played, tooted, broken",1
"J00709111","yz6jdpania","Affordance Norms_South Alabama",1,16,"2023-04-13T03:13:38+00:00",13.175704956055,82,"updated stim.csv","Version82.csv","Version 82","List 82","shrine",NA,2443,4.555555556,2367,2444,"BOI","-","-","Please name all of the ways you could use this object. Keep in mind that one object can have many uses. Separate your responses with a comma.",NA,"y",12909,NA,NA,2065,12508,NA,NA,NA,"prayed to, created, destroyed",1
"J00709111","yz6jdpania","Affordance Norms_South Alabama",1,17,"2023-04-13T03:13:48+00:00",9.500645160675,82,"updated stim.csv","Version82.csv","Version 82","List 82","blender",NA,2442,5.739130435,236,2443,"BOI","-","-","Please name all of the ways you could use this object. Keep in mind that one object can have many uses. Separate your responses with a comma.",NA,"y",9244,NA,NA,1716,8765,NA,NA,NA,"used, turned on, broken",1
"J00709111","yz6jdpania","Affordance Norms_South Alabama",1,18,"2023-04-13T03:14:04+00:00",16.453395843506,82,"updated stim.csv","Version82.csv","Version 82","List 82","candlestick",NA,2441,6,411,2442,"BOI","-","-","Please name all of the ways you could use this object. Keep in mind that one object can have many uses. Separate your responses with a comma.",NA,"y",16083,NA,NA,6418,15736,NA,NA,NA,"ended, burned, broken, melted",1
"J00709111","yz6jdpania","Affordance Norms_South Alabama",1,19,"2023-04-13T03:14:26+00:00",21.805032968521,82,"updated stim.csv","Version82.csv","Version 82","List 82","tablet",NA,2448,6.517241379,2619,2449,"BOI","-","-","Please name all of the ways you could use this object. Keep in mind that one object can have many uses. Separate your responses with a comma.",NA,"y",21387,NA,NA,3689,21054,NA,NA,NA,"written on, carved into, tapped, thrown, broken, swipe",1
"J00709111","yz6jdpania","Affordance Norms_South Alabama",1,20,"2023-04-13T03:14:50+00:00",24.124690055847,82,"updated stim.csv","Version82.csv","Version 82","List 82","buck",NA,2440,4.291666667,340,2441,"BOI","-","-","Please name all of the ways you could use this object. Keep in mind that one object can have many uses. Separate your responses with a comma.",NA,"y",23549,NA,NA,2787,22735,NA,NA,NA,"shot, ripped in half, pay",1
"J00709111","yz6jdpania","Affordance Norms_South Alabama",1,21,"2023-04-13T03:15:12+00:00",21.789880037308,82,"updated stim.csv","Version82.csv","Version 82","List 82","net",NA,2459,5.208333333,1751,2460,"BOI","-","-","Please name all of the ways you could use this object. Keep in mind that one object can have many uses. Separate your responses with a comma.",NA,"y",21169,NA,NA,4171,20577,NA,NA,NA,"catch, pull up things out of water",1
"J00709111","yz6jdpania","Affordance Norms_South Alabama",1,22,"2023-04-13T03:15:29+00:00",16.827836036682,82,"updated stim.csv","Version82.csv","Version 82","List 82","peppermint",NA,2452,5.391304348,1923,2453,"BOI","-","-","Please name all of the ways you could use this object. Keep in mind that one object can have many uses. Separate your responses with a comma.",NA,"y",16405,NA,NA,4226,15278,NA,NA,NA,"tasted, flavor",1
"J00709111","yz6jdpania","Affordance Norms_South Alabama",1,23,"2023-04-13T03:15:42+00:00",13.378990888596,82,"updated stim.csv","Version82.csv","Version 82","List 82","arrowhead",NA,2457,4.44,77,2458,"BOI","-","-","Please name all of the ways you could use this object. Keep in mind that one object can have many uses. Separate your responses with a comma.",NA,"y",13012,NA,NA,2332,8337,NA,NA,NA,"hit, shot",1
"J00709111","yz6jdpania","Affordance Norms_South Alabama",1,24,"2023-04-13T03:15:52+00:00",10.020987987518,82,"updated stim.csv","Version82.csv","Version 82","List 82","Crab",NA,2432,4.889189189,674,2433,"BOI","-","-","Please name all of the ways you could use this object. Keep in mind that one object can have many uses. Separate your responses with a comma.",NA,"y",9778,NA,NA,1977,8804,NA,NA,NA,"snap, eaten, pinch",1
"J00709111","yz6jdpania","Affordance Norms_South Alabama",1,25,"2023-04-13T03:16:06+00:00",14.298832178116,82,"updated stim.csv","Version82.csv","Version 82","List 82","buffet",NA,2451,5.409090909,346,2452,"BOI","-","-","Please name all of the ways you could use this object. Keep in mind that one object can have many uses. Separate your responses with a comma.",NA,"y",13944,NA,NA,2663,13157,NA,NA,NA,"eat, food fight",1
"J00709111","yz6jdpania","Affordance Norms_South Alabama",1,26,"2023-04-13T03:16:33+00:00",26.862784862518,82,"updated stim.csv","Version82.csv","Version 82","List 82","mattress",NA,2453,6.72,1626,2454,"BOI","-","-","Please name all of the ways you could use this object. Keep in mind that one object can have many uses. Separate your responses with a comma.",NA,"y",26438,NA,NA,2271,24383,NA,NA,NA,"have sex on, sleep on, throw away, bend in half, put on bed",1
"J00709111","yz6jdpania","Affordance Norms_South Alabama",1,27,"2023-04-13T03:16:44+00:00",11.018957138062,82,"updated stim.csv","Version82.csv","Version 82","List 82","soda",NA,2450,6.47826087,2442,2451,"BOI","-","-","Please name all of the ways you could use this object. Keep in mind that one object can have many uses. Separate your responses with a comma.",NA,"y",10600,NA,NA,2779,9584,NA,NA,NA,"drink, bust, blow up",1
"J00709111","yz6jdpania","Affordance Norms_South Alabama",1,28,"2023-04-13T03:16:49+00:00",4.747909784317,82,"updated stim.csv","Version82.csv","Version 82","List 82","announcer",NA,2439,4.296296296,44,2440,"BOI","-","-","Please name all of the ways you could use this object. Keep in mind that one object can have many uses. Separate your responses with a comma.",NA,"y",4478,NA,NA,2399,3675,NA,NA,NA,"listen to",1
"J00709111","yz6jdpania","Affordance Norms_South Alabama",1,29,"2023-04-13T03:16:57+00:00",7.6103520393372,82,"updated stim.csv","Version82.csv","Version 82","List 82","eclair",NA,2435,6.166666667,886,2436,"BOI","-","-","Please name all of the ways you could use this object. Keep in mind that one object can have many uses. Separate your responses with a comma.",NA,"y",7279,NA,NA,1514,6568,NA,NA,NA,"eat, feed",1
"J00709111","yz6jdpania","Affordance Norms_South Alabama",1,30,"2023-04-13T03:17:02+00:00",5.3152701854706,82,"updated stim.csv","Version82.csv","Version 82","List 82","punter",NA,2454,4.464285714,2100,2455,"BOI","-","-","Please name all of the ways you could use this object. Keep in mind that one object can have many uses. Separate your responses with a comma.",NA,"y",5079,NA,NA,3883,4452,NA,NA,NA,"kick",1
"J00709111","yz6jdpania","Affordance Norms_South Alabama",1,31,"2023-04-13T03:17:13+00:00",11.297851800919,82,"updated stim.csv","Version82.csv","Version 82","List 82","slingshot",NA,2433,5.4,2414,2434,"BOI","-","-","Please name all of the ways you could use this object. Keep in mind that one object can have many uses. Separate your responses with a comma.",NA,"y",11045,NA,NA,1616,9231,NA,NA,NA,"shoot, fly ",1
"J00709111","yz6jdpania","Affordance Norms_South Alabama",1,32,"2023-04-13T03:17:25+00:00",11.493894100189,82,"updated stim.csv","Version82.csv","Version 82","List 82","sidecar",NA,2434,4.347826087,2376,2435,"BOI","-","-","Please name all of the ways you could use this object. Keep in mind that one object can have many uses. Separate your responses with a comma.",NA,"y",11148,NA,NA,4145,10393,NA,NA,NA,"dog riding beside",1
"J00709111","yz6jdpania","Affordance Norms_South Alabama",1,33,"2023-04-13T03:17:32+00:00",7.6575360298157,82,"updated stim.csv","Version82.csv","Version 82","List 82","oven",NA,2445,5.923076923,1831,2446,"BOI","-","-","Please name all of the ways you could use this object. Keep in mind that one object can have many uses. Separate your responses with a comma.",NA,"y",7401,NA,NA,1940,6809,NA,NA,NA,"cook, burn, bake",1
"J00709111","yz6jdpania","Affordance Norms_South Alabama",1,34,"2023-04-13T03:17:40+00:00",7.1857500076294,82,"updated stim.csv","Version82.csv","Version 82","List 82","petroleum",NA,2438,4.333333333,1934,2439,"BOI","-","-","Please name all of the ways you could use this object. Keep in mind that one object can have many uses. Separate your responses with a comma.",NA,"y",6914,NA,NA,5146,6031,NA,NA,NA,"clean",1
"J00709111","yz6jdpania","Affordance Norms_South Alabama",1,35,"2023-04-13T03:17:58+00:00",18.656916856766,82,"updated stim.csv","Version82.csv","Version 82","List 82","socket",NA,2458,5.24,2440,2459,"BOI","-","-","Please name all of the ways you could use this object. Keep in mind that one object can have many uses. Separate your responses with a comma.",NA,"y",18409,NA,NA,2430,18022,NA,NA,NA,"plug up, use as tool",1
"J00709111","yz6jdpania","Affordance Norms_South Alabama",1,36,"2023-04-13T03:18:05+00:00",6.6424181461334,82,"updated stim.csv","Version82.csv","Version 82","List 82","burglar",NA,2447,4.260869565,366,2448,"BOI","-","-","Please name all of the ways you could use this object. Keep in mind that one object can have many uses. Separate your responses with a comma.",NA,"y",6302,NA,NA,2704,5664,NA,NA,NA,"steal",1
"J00709111","yz6jdpania","Affordance Norms_South Alabama",1,37,"2023-04-13T03:18:21+00:00",16.451838970184,82,"updated stim.csv","Version82.csv","Version 82","List 82","card",NA,2437,5.56,430,2438,"BOI","-","-","Please name all of the ways you could use this object. Keep in mind that one object can have many uses. Separate your responses with a comma.",NA,"y",16099,NA,NA,3437,7766,NA,NA,NA,"swipe, tap,",1
"J00709111","yz6jdpania","Affordance Norms_South Alabama",1,38,"2023-04-13T03:18:45+00:00",23.383820056915,82,"updated stim.csv","Version82.csv","Version 82","List 82","doorframe",NA,2455,5.086956522,823,2456,"BOI","-","-","Please name all of the ways you could use this object. Keep in mind that one object can have many uses. Separate your responses with a comma.",NA,"y",22991,NA,NA,3586,17356,NA,NA,NA,"slam toe on, grab",1
"J00709111","yz6jdpania","Affordance Norms_South Alabama",1,39,"2023-04-13T03:18:54+00:00",9.350662946701,82,"updated stim.csv","Version82.csv","Version 82","List 82","backboard",NA,2431,4.565217391,112,2432,"BOI","-","-","Please name all of the ways you could use this object. Keep in mind that one object can have many uses. Separate your responses with a comma.",NA,"y",8917,NA,NA,2800,7701,NA,NA,NA,"hit with basketball",1
"J00709111","yz6jdpania","Affordance Norms_South Alabama",1,40,"2023-04-13T03:19:13+00:00",18.961988925934,82,"updated stim.csv","Version82.csv","Version 82","List 82","classmate",NA,2460,5.363636364,549,2461,"BOI","-","-","Please name all of the ways you could use this object. Keep in mind that one object can have many uses. Separate your responses with a comma.",NA,"y",18715,NA,NA,4382,18140,NA,NA,NA,"kiss, hit, push, feed, ignore",1
"J00709222_rab","tzczz5er2g","Affordance Norms_South Alabama",1,11,"2023-01-30T15:22:30+00:00",10.56759095192,38,"updated stim.csv","Version38.csv","Version 38","List 38","cathedral",NA,1132,4.5,460,1133,"BOI","-","-","Please name all of the ways you could use this object. Keep in mind that one object can have many uses. Separate your responses with a comma.",NA,"y",10457,NA,NA,7998,9413,NA,NA,NA,"pray",1
"J00709222_rab","tzczz5er2g","Affordance Norms_South Alabama",1,12,"2023-01-30T15:22:59+00:00",28.884261131287,38,"updated stim.csv","Version38.csv","Version 38","List 38","entomologist",NA,1127,4.583333333,911,1128,"BOI","-","-","Please name all of the ways you could use this object. Keep in mind that one object can have many uses. Separate your responses with a comma.",NA,"y",28709,NA,NA,24926,28494,NA,NA,NA,"career, study",1
"J00709222_rab","tzczz5er2g","Affordance Norms_South Alabama",1,13,"2023-01-30T15:23:07+00:00",8.1045999526978,38,"updated stim.csv","Version38.csv","Version 38","List 38","rhinestone",NA,1116,5.291666667,2162,1117,"BOI","-","-","Please name all of the ways you could use this object. Keep in mind that one object can have many uses. Separate your responses with a comma.",NA,"y",7546,NA,NA,1986,7414,NA,NA,NA,"look, hold, take picture",1
"J00709222_rab","tzczz5er2g","Affordance Norms_South Alabama",1,14,"2023-01-30T15:23:23+00:00",15.958517074585,38,"updated stim.csv","Version38.csv","Version 38","List 38","trucks",NA,1129,6.2,2786,1130,"BOI","-","-","Please name all of the ways you could use this object. Keep in mind that one object can have many uses. Separate your responses with a comma.",NA,"y",15841,NA,NA,1910,15607,NA,NA,NA,"drive, look at, sit, sleeo",1
"J00709222_rab","tzczz5er2g","Affordance Norms_South Alabama",1,15,"2023-01-30T15:23:31+00:00",8.3710448741913,38,"updated stim.csv","Version38.csv","Version 38","List 38","shuttle",NA,1126,4.695652174,2372,1127,"BOI","-","-","Please name all of the ways you could use this object. Keep in mind that one object can have many uses. Separate your responses with a comma.",NA,"y",7918,NA,NA,2175,5199,NA,NA,NA,"ride, sit",1
"J00709222_rab","tzczz5er2g","Affordance Norms_South Alabama",1,16,"2023-01-30T15:23:36+00:00",5.0062789916992,38,"updated stim.csv","Version38.csv","Version 38","List 38","wheelhouse",NA,1112,4.434782609,2924,1113,"BOI","-","-","Please name all of the ways you could use this object. Keep in mind that one object can have many uses. Separate your responses with a comma.",NA,"y",4664,NA,NA,2670,3930,NA,NA,NA,"sit",1
"J00709222_rab","tzczz5er2g","Affordance Norms_South Alabama",1,17,"2023-01-30T15:23:44+00:00",8.1544480323792,38,"updated stim.csv","Version38.csv","Version 38","List 38","crucifix",NA,1134,5.68,712,1135,"BOI","-","-","Please name all of the ways you could use this object. Keep in mind that one object can have many uses. Separate your responses with a comma.",NA,"y",8040,NA,NA,3570,7650,NA,NA,NA,"look, pray, hold",1
"J00709222_rab","tzczz5er2g","Affordance Norms_South Alabama",1,18,"2023-01-30T15:23:50+00:00",5.5502541065216,38,"updated stim.csv","Version38.csv","Version 38","List 38","steamboat",NA,1117,4.541666667,2516,1118,"BOI","-","-","Please name all of the ways you could use this object. Keep in mind that one object can have many uses. Separate your responses with a comma.",NA,"y",5440,NA,NA,3376,5140,NA,NA,NA,"ride, sit",1
"J00709222_rab","tzczz5er2g","Affordance Norms_South Alabama",1,19,"2023-01-30T15:23:57+00:00",7.4672138690948,38,"updated stim.csv","Version38.csv","Version 38","List 38","algae",NA,1140,4.458333333,27,1141,"BOI","-","-","Please name all of the ways you could use this object. Keep in mind that one object can have many uses. Separate your responses with a comma.",NA,"y",7360,NA,NA,3305,7158,NA,NA,NA,"eat, hold, cook",1
"J00709222_rab","tzczz5er2g","Affordance Norms_South Alabama",1,20,"2023-01-30T15:24:03+00:00",6.1828951835632,38,"updated stim.csv","Version38.csv","Version 38","List 38","stamp",NA,1130,5.304347826,2506,1131,"BOI","-","-","Please name all of the ways you could use this object. Keep in mind that one object can have many uses. Separate your responses with a comma.",NA,"y",6076,NA,NA,2343,3367,NA,NA,NA,"wear",1
"J00709222_rab","tzczz5er2g","Affordance Norms_South Alabama",1,21,"2023-01-30T15:24:12+00:00",8.4840548038483,38,"updated stim.csv","Version38.csv","Version 38","List 38","birthmark",NA,1123,4.333333333,223,1124,"BOI","-","-","Please name all of the ways you could use this object. Keep in mind that one object can have many uses. Separate your responses with a comma.",NA,"y",8366,NA,NA,2280,7171,NA,NA,NA,"wear, look",1
"J00709222_rab","tzczz5er2g","Affordance Norms_South Alabama",1,22,"2023-01-30T15:24:21+00:00",9.3498041629791,38,"updated stim.csv","Version38.csv","Version 38","List 38","cock",NA,1135,5.04,586,1136,"BOI","-","-","Please name all of the ways you could use this object. Keep in mind that one object can have many uses. Separate your responses with a comma.",NA,"y",9240,NA,NA,4077,9020,NA,NA,NA,"eat, see",1
"J00709222_rab","tzczz5er2g","Affordance Norms_South Alabama",1,23,"2023-01-30T15:24:29+00:00",7.3665118217468,38,"updated stim.csv","Version38.csv","Version 38","List 38","playground",NA,1111,4.695652174,2000,1112,"BOI","-","-","Please name all of the ways you could use this object. Keep in mind that one object can have many uses. Separate your responses with a comma.",NA,"y",7250,NA,NA,1222,7055,NA,NA,NA,"play, run, sit, ride",1
"J00709222_rab","tzczz5er2g","Affordance Norms_South Alabama",1,24,"2023-01-30T15:24:51+00:00",22.87114906311,38,"updated stim.csv","Version38.csv","Version 38","List 38","lapdog",NA,1124,4.739130435,1465,1125,"BOI","-","-","Please name all of the ways you could use this object. Keep in mind that one object can have many uses. Separate your responses with a comma.",NA,"y",22702,NA,NA,21752,22077,NA,NA,NA,"ride",1
"J00709222_rab","tzczz5er2g","Affordance Norms_South Alabama",1,25,"2023-01-30T15:25:24+00:00",32.826238155365,38,"updated stim.csv","Version38.csv","Version 38","List 38","amphibian",NA,1128,4.357142857,37,1129,"BOI","-","-","Please name all of the ways you could use this object. Keep in mind that one object can have many uses. Separate your responses with a comma.",NA,"y",32309,NA,NA,25895,32100,NA,NA,NA,"look, feel",1
"J00709222_rab","tzczz5er2g","Affordance Norms_South Alabama",1,26,"2023-01-30T15:25:40+00:00",16.054861783981,38,"updated stim.csv","Version38.csv","Version 38","List 38","mosquito",NA,1136,4.4,1687,1137,"BOI","-","-","Please name all of the ways you could use this object. Keep in mind that one object can have many uses. Separate your responses with a comma.",NA,"y",15936,NA,NA,1872,15616,NA,NA,NA,"look, touch, hold, step on",1
"J00709222_rab","tzczz5er2g","Affordance Norms_South Alabama",1,27,"2023-01-30T15:25:50+00:00",9.7947092056274,38,"updated stim.csv","Version38.csv","Version 38","List 38","clarinet",NA,1122,5.923076923,548,1123,"BOI","-","-","Please name all of the ways you could use this object. Keep in mind that one object can have many uses. Separate your responses with a comma.",NA,"y",9670,NA,NA,7226,9053,NA,NA,NA,"use, hold",1
"J00709222_rab","tzczz5er2g","Affordance Norms_South Alabama",1,28,"2023-01-30T15:26:04+00:00",13.729619979858,38,"updated stim.csv","Version38.csv","Version 38","List 38","masseuse",NA,1113,5.086956522,1616,1114,"BOI","-","-","Please name all of the ways you could use this object. Keep in mind that one object can have many uses. Separate your responses with a comma.",NA,"y",13603,NA,NA,9781,12640,NA,NA,NA,"talk, massage",1
"J00709222_rab","tzczz5er2g","Affordance Norms_South Alabama",1,29,"2023-01-30T15:26:25+00:00",21.004290819168,38,"updated stim.csv","Version38.csv","Version 38","List 38","shrub",NA,1137,5.259259259,2368,1138,"BOI","-","-","Please name all of the ways you could use this object. Keep in mind that one object can have many uses. Separate your responses with a comma.",NA,"y",20816,NA,NA,15932,20071,NA,NA,NA,"smell, touch, see ",1
"J00709222_rab","tzczz5er2g","Affordance Norms_South Alabama",1,30,"2023-01-30T15:26:35+00:00",9.8443892002106,38,"updated stim.csv","Version38.csv","Version 38","List 38","yacht",NA,1115,4.88,2987,1116,"BOI","-","-","Please name all of the ways you could use this object. Keep in mind that one object can have many uses. Separate your responses with a comma.",NA,"y",9736,NA,NA,1482,8136,NA,NA,NA,"ride, sit, sleep, walk",1
"J00709222_rab","tzczz5er2g","Affordance Norms_South Alabama",1,31,"2023-01-30T15:26:44+00:00",9.641165971756,38,"updated stim.csv","Version38.csv","Version 38","List 38","horn",NA,1114,5.291666667,1311,1115,"BOI","-","-","Please name all of the ways you could use this object. Keep in mind that one object can have many uses. Separate your responses with a comma.",NA,"y",9530,NA,NA,1450,9413,NA,NA,NA,"play, touch, hold",1
