Username,ID,ExperimentName,Session,Trial,Date,TimeDif,"Condition Number","Stimuli File","Order File","Condition Description","Condition Notes",Stimuli*Cue,Stimuli*Answer,Stimuli*Shuffle,"Stimuli*Stimuli Notes",Stimuli*Value,Stimuli*Rand,Procedure*Item,"Procedure*Trial Type","Procedure*Max Time","Procedure*Min Time",Procedure*Text,"Procedure*Procedure Notes",Procedure*Shuffle,Response*RT,Response*Response,Response*Accuracy,Response*RTfirst,Response*RTlast,Response*strictAcc,Response*lenientAcc,Response*focus,Response*JOL,Response*Focus
M20329083_LMM,4n1a6bei30,"Affordance Norms_MSU_TEX",1,1,2023-02-21T15:49:13+00:00,13.922446012497,86,"updated stim.csv",Version86.csv,"Version 86","List 86",,,,,,,0,Instruct,-,10,"In this section, you will be presented with a series of objects. Please name as many possible uses for this object as you can think of by typing them in the box below each object.",,Instruct1,13783,,,-1,-1,,,,,1
M20329083_LMM,4n1a6bei30,"Affordance Norms_MSU_TEX",1,2,2023-02-21T15:49:25+00:00,11.694921016693,86,"updated stim.csv",Version86.csv,"Version 86","List 86",,,,,,,0,Instruct,-,10,"Please keep in mind that a single object will have more than one use. For example, a ball can be thrown or can be bounced or even stepped on. When listing multiple uses for one object, please separate each use with a comma (i.e., thrown, bounced, stepped on)",,Instruct2,11478,,,-1,-1,,,,,1
M20329083_LMM,4n1a6bei30,"Affordance Norms_MSU_TEX",1,3,2023-02-21T15:49:28+00:00,3.6160969734192,86,"updated stim.csv",Version86.csv,"Version 86","List 86",,,,,,,0,Instruct,-,-,"Before starting the experiment, you will complete a short practice sesstion. Press ENTER when you are ready to begin.",,Instruct3,3443,,,-1,-1,,,,,1
M20329083_LMM,4n1a6bei30,"Affordance Norms_MSU_TEX",1,4,2023-02-21T15:49:56+00:00,27.395467996597,86,"updated stim.csv",Version86.csv,"Version 86","List 86",spaghetti,,3003,6,2461,0.090379998,3004,BOI,-,-,"Please name all of the ways you could use this object. Keep in mind that one object can have many uses. Separate your responses with a comma.",,n,27215,,,7944,22822,,,,"eat, chew, spit, throw",1
M20329083_LMM,4n1a6bei30,"Affordance Norms_MSU_TEX",1,5,2023-02-21T15:51:11+00:00,75.423213005066,86,"updated stim.csv",Version86.csv,"Version 86","List 86",saucer,,3005,5.777777778,2249,0.304808074,3006,BOI,-,-,"Please name all of the ways you could use this object. Keep in mind that one object can have many uses. Separate your responses with a comma.",,n,74934,,,42140,73048,,,,"plate, break, throw, catch",1
M20329083_LMM,4n1a6bei30,"Affordance Norms_MSU_TEX",1,6,2023-02-21T15:53:19+00:00,128.13035202026,86,"updated stim.csv",Version86.csv,"Version 86","List 86",shortening,,3002,4.92,2358,0.604328482,3003,BOI,-,-,"Please name all of the ways you could use this object. Keep in mind that one object can have many uses. Separate your responses with a comma.",,n,127809,,,102531,125815,,,,"baking, squish",1
M20329083_LMM,4n1a6bei30,"Affordance Norms_MSU_TEX",1,7,2023-02-21T15:53:36+00:00,17.118274927139,86,"updated stim.csv",Version86.csv,"Version 86","List 86",paperwork,,3001,5.625,1866,0.124284162,3002,BOI,-,-,"Please name all of the ways you could use this object. Keep in mind that one object can have many uses. Separate your responses with a comma.",,n,16492,,,2594,14953,,,,"hold, cut, rip, throw",1
M20329083_LMM,4n1a6bei30,"Affordance Norms_MSU_TEX",1,8,2023-02-21T15:53:50+00:00,14.098202943802,86,"updated stim.csv",Version86.csv,"Version 86","List 86",grain,,3004,5.217391304,1143,0.226863762,3005,BOI,-,-,"Please name all of the ways you could use this object. Keep in mind that one object can have many uses. Separate your responses with a comma.",,n,13759,,,4774,11779,,,,"hold, toss, look at",1
M20329083_LMM,4n1a6bei30,"Affordance Norms_MSU_TEX",1,9,2023-02-21T15:53:52+00:00,1.8366131782532,86,"updated stim.csv",Version86.csv,"Version 86","List 86",,,,,,,0,Instruct,-,-,"You have completed this section. Press ENTER to continue",,"Instruct 5",1659,,,-1,-1,,,,,1
M20329083_LMM,4n1a6bei30,"Affordance Norms_MSU_TEX",1,10,2023-02-21T15:53:55+00:00,2.4980340003967,86,"updated stim.csv",Version86.csv,"Version 86","List 86",,,,,,,0,Instruct,-,-,"You will now start the full experiment. Press ENTER when you are ready to begin.",,,2215,,,-1,-1,,,,,1
M20329083_LMM,4n1a6bei30,"Affordance Norms_MSU_TEX",1,11,2023-02-21T15:54:11+00:00,15.848692893982,86,"updated stim.csv",Version86.csv,"Version 86","List 86",football,,2559,6.12,1030,0.080825833,2560,BOI,-,-,"Please name all of the ways you could use this object. Keep in mind that one object can have many uses. Separate your responses with a comma.",,y,15659,,,1333,13725,,,,"throw, catch, bounce, hit",1
M20329083_LMM,4n1a6bei30,"Affordance Norms_MSU_TEX",1,12,2023-02-21T15:54:45+00:00,34.187833070755,86,"updated stim.csv",Version86.csv,"Version 86","List 86",soldier,,2558,4.56,2446,0.86588521,2559,BOI,-,-,"Please name all of the ways you could use this object. Keep in mind that one object can have many uses. Separate your responses with a comma.",,y,33936,,,8112,28714,,,,"talk to, hug, hit, squeeze",1
M20329083_LMM,4n1a6bei30,"Affordance Norms_MSU_TEX",1,13,2023-02-21T15:55:13+00:00,28.432485818863,86,"updated stim.csv",Version86.csv,"Version 86","List 86",pug,,2572,5.965517241,2090,0.401662633,2573,BOI,-,-,"Please name all of the ways you could use this object. Keep in mind that one object can have many uses. Separate your responses with a comma.",,y,28234,,,3483,24715,,,,"pet, hold, cuddle, walk, treat, play",1
M20329083_LMM,4n1a6bei30,"Affordance Norms_MSU_TEX",1,14,2023-02-21T15:55:59+00:00,45.73882317543,86,"updated stim.csv",Version86.csv,"Version 86","List 86",cryptographer,,2575,4.583333333,719,0.320828154,2576,BOI,-,-,"Please name all of the ways you could use this object. Keep in mind that one object can have many uses. Separate your responses with a comma.",,y,45545,,,32348,44516,,,,"code, talk to, learn from",1
M20329083_LMM,4n1a6bei30,"Affordance Norms_MSU_TEX",1,15,2023-02-21T15:56:38+00:00,39.326953887939,86,"updated stim.csv",Version86.csv,"Version 86","List 86",snowman,,2553,4.916666667,2435,0.482927272,2554,BOI,-,-,"Please name all of the ways you could use this object. Keep in mind that one object can have many uses. Separate your responses with a comma.",,y,39023,,,2013,37941,,,,"build, pat, decorate, break, tackle",1
M20329083_LMM,4n1a6bei30,"Affordance Norms_MSU_TEX",1,16,2023-02-21T15:57:16+00:00,38.019526004791,86,"updated stim.csv",Version86.csv,"Version 86","List 86",navel,,2570,5,1737,0.204591402,2571,BOI,-,-,"Please name all of the ways you could use this object. Keep in mind that one object can have many uses. Separate your responses with a comma.",,y,37824,,,25010,36826,,,,"location, direction, set point",1
M20329083_LMM,4n1a6bei30,"Affordance Norms_MSU_TEX",1,17,2023-02-21T15:58:03+00:00,46.501037120819,86,"updated stim.csv",Version86.csv,"Version 86","List 86",periscope,,2557,4.653846154,1927,0.675369734,2558,BOI,-,-,"Please name all of the ways you could use this object. Keep in mind that one object can have many uses. Separate your responses with a comma.",,y,46307,,,27054,45301,,,,"see through, study",1
M20329083_LMM,4n1a6bei30,"Affordance Norms_MSU_TEX",1,18,2023-02-21T15:58:35+00:00,31.847323894501,86,"updated stim.csv",Version86.csv,"Version 86","List 86",plaything,,2560,4.92,2004,0.817850605,2561,BOI,-,-,"Please name all of the ways you could use this object. Keep in mind that one object can have many uses. Separate your responses with a comma.",,y,31645,,,18045,30471,,,,"play with child, throw, drop, bounce",1
M20329083_LMM,4n1a6bei30,"Affordance Norms_MSU_TEX",1,19,2023-02-21T15:59:17+00:00,41.861108064651,86,"updated stim.csv",Version86.csv,"Version 86","List 86",wrench,,2565,6.181818182,2980,0.24871765,2566,BOI,-,-,"Please name all of the ways you could use this object. Keep in mind that one object can have many uses. Separate your responses with a comma.",,y,41674,,,24467,40713,,,,"throw, hit, break, bounce, use as tool",1
M20329083_LMM,4n1a6bei30,"Affordance Norms_MSU_TEX",1,20,2023-02-21T16:00:23+00:00,66.739413022995,86,"updated stim.csv",Version86.csv,"Version 86","List 86",riverboat,,2574,5.52,2174,0.65255078,2575,BOI,-,-,"Please name all of the ways you could use this object. Keep in mind that one object can have many uses. Separate your responses with a comma.",,y,66416,,,9237,65368,,,,"float, travel, transportation",1
M20329083_LMM,4n1a6bei30,"Affordance Norms_MSU_TEX",1,21,2023-02-21T16:00:39+00:00,15.75014090538,86,"updated stim.csv",Version86.csv,"Version 86","List 86",alcohol,,2568,5.833333333,24,0.898153716,2569,BOI,-,-,"Please name all of the ways you could use this object. Keep in mind that one object can have many uses. Separate your responses with a comma.",,y,15553,,,2525,12782,,,,"ingest, sip, throw up, spit",1
M20329083_LMM,4n1a6bei30,"Affordance Norms_MSU_TEX",1,22,2023-02-21T16:00:47+00:00,8.2439589500427,86,"updated stim.csv",Version86.csv,"Version 86","List 86",boutique,,2566,4.692307692,291,0.165579657,2567,BOI,-,-,"Please name all of the ways you could use this object. Keep in mind that one object can have many uses. Separate your responses with a comma.",,y,8059,,,1665,6768,,,,"hold, shake, throw, catch",1
M20329083_LMM,4n1a6bei30,"Affordance Norms_MSU_TEX",1,23,2023-02-21T16:00:57+00:00,9.9473621845245,86,"updated stim.csv",Version86.csv,"Version 86","List 86",taxpayer,,2571,4.583333333,2640,0.602654368,2572,BOI,-,-,"Please name all of the ways you could use this object. Keep in mind that one object can have many uses. Separate your responses with a comma.",,y,9764,,,2630,8620,,,,"talk to, pay, use for work",1
M20329083_LMM,4n1a6bei30,"Affordance Norms_MSU_TEX",1,24,2023-02-21T16:01:17+00:00,19.697036981583,86,"updated stim.csv",Version86.csv,"Version 86","List 86",forearm,,2576,5.782608696,1043,0.774176609,2577,BOI,-,-,"Please name all of the ways you could use this object. Keep in mind that one object can have many uses. Separate your responses with a comma.",,y,19354,,,4509,18168,,,,"rub, scratch, squeeze, flex",1
M20329083_LMM,4n1a6bei30,"Affordance Norms_MSU_TEX",1,25,2023-02-21T16:01:42+00:00,25.512136936188,86,"updated stim.csv",Version86.csv,"Version 86","List 86",barn,,2569,5.173913043,151,0.640296551,2570,BOI,-,-,"Please name all of the ways you could use this object. Keep in mind that one object can have many uses. Separate your responses with a comma.",,y,25317,,,5670,21559,,,,"live in, store tools, store cattle, store hay",1
M20329083_LMM,4n1a6bei30,"Affordance Norms_MSU_TEX",1,26,2023-02-21T16:01:55+00:00,12.683517932892,86,"updated stim.csv",Version86.csv,"Version 86","List 86",sapling,,2555,4.304347826,2240,0.250725874,2556,BOI,-,-,"Please name all of the ways you could use this object. Keep in mind that one object can have many uses. Separate your responses with a comma.",,y,12490,,,4974,11118,,,,"hold, squeeze, throw, break",1
M20329083_LMM,4n1a6bei30,"Affordance Norms_MSU_TEX",1,27,2023-02-21T16:02:23+00:00,27.492341995239,86,"updated stim.csv",Version86.csv,"Version 86","List 86",tapioca,,2552,4.454545455,2634,0.115954063,2553,BOI,-,-,"Please name all of the ways you could use this object. Keep in mind that one object can have many uses. Separate your responses with a comma.",,y,27294,,,14265,26057,,,,"eat, chew, ingest, throw, spit, break",1
M20329083_LMM,4n1a6bei30,"Affordance Norms_MSU_TEX",1,28,2023-02-21T16:02:39+00:00,16.332612037659,86,"updated stim.csv",Version86.csv,"Version 86","List 86",glitter,,2578,4.434782609,1115,0.911056253,2579,BOI,-,-,"Please name all of the ways you could use this object. Keep in mind that one object can have many uses. Separate your responses with a comma.",,y,16131,,,2538,14938,,,,"ingest, blow, shake, spill",1
M20329083_LMM,4n1a6bei30,"Affordance Norms_MSU_TEX",1,29,2023-02-21T16:02:55+00:00,15.69348192215,86,"updated stim.csv",Version86.csv,"Version 86","List 86",gumbo,,2556,4.619047619,1196,0.729479921,2557,BOI,-,-,"Please name all of the ways you could use this object. Keep in mind that one object can have many uses. Separate your responses with a comma.",,y,15489,,,1620,14205,,,,"eat, chew, swallow, spit, throw",1
M20329083_LMM,4n1a6bei30,"Affordance Norms_MSU_TEX",1,30,2023-02-21T16:03:17+00:00,22.530466079712,86,"updated stim.csv",Version86.csv,"Version 86","List 86",gravestone,,2564,4.875,1165,0.794571203,2565,BOI,-,-,"Please name all of the ways you could use this object. Keep in mind that one object can have many uses. Separate your responses with a comma.",,y,22332,,,3633,20616,,,,"engrave, decorate, identify person",1
M20329083_LMM,4n1a6bei30,"Affordance Norms_MSU_TEX",1,31,2023-02-21T16:03:39+00:00,21.703386068344,86,"updated stim.csv",Version86.csv,"Version 86","List 86",tumbler,,2551,5.136363636,2795,0.141279903,2552,BOI,-,-,"Please name all of the ways you could use this object. Keep in mind that one object can have many uses. Separate your responses with a comma.",,y,21489,,,6379,19675,,,,"look at, hobby",1
M20329083_LMM,4n1a6bei30,"Affordance Norms_MSU_TEX",1,32,2023-02-21T16:04:29+00:00,49.88793182373,86,"updated stim.csv",Version86.csv,"Version 86","List 86",dove,,2580,4.333333333,835,0.599815512,2581,BOI,-,-,"Please name all of the ways you could use this object. Keep in mind that one object can have many uses. Separate your responses with a comma.",,y,49699,,,7642,48695,,,,"hold, throw, catch",1
M20329083_LMM,4n1a6bei30,"Affordance Norms_MSU_TEX",1,33,2023-02-21T16:04:42+00:00,13.587792158127,86,"updated stim.csv",Version86.csv,"Version 86","List 86",fillet,,2554,4.32,975,0.568599469,2555,BOI,-,-,"Please name all of the ways you could use this object. Keep in mind that one object can have many uses. Separate your responses with a comma.",,y,13123,,,1438,12035,,,,"eat, cut, swallow, spit, throw, tear",1
M20329083_LMM,4n1a6bei30,"Affordance Norms_MSU_TEX",1,34,2023-02-21T16:04:53+00:00,11.142371892929,86,"updated stim.csv",Version86.csv,"Version 86","List 86",rainfall,,2577,4.88,2132,0.072471926,2578,BOI,-,-,"Please name all of the ways you could use this object. Keep in mind that one object can have many uses. Separate your responses with a comma.",,y,10945,,,1630,9594,,,,"catch, swallow, splash",1
M20329083_LMM,4n1a6bei30,"Affordance Norms_MSU_TEX",1,35,2023-02-21T16:05:14+00:00,20.31450009346,86,"updated stim.csv",Version86.csv,"Version 86","List 86",crate,,2567,5.304347826,684,0.563224365,2568,BOI,-,-,"Please name all of the ways you could use this object. Keep in mind that one object can have many uses. Separate your responses with a comma.",,y,20057,,,2742,19251,,,,"carry, lock, move",1
M20329083_LMM,4n1a6bei30,"Affordance Norms_MSU_TEX",1,36,2023-02-21T16:05:28+00:00,14.296735048294,86,"updated stim.csv",Version86.csv,"Version 86","List 86",chip,,2563,5.181818182,529,0.412239971,2564,BOI,-,-,"Please name all of the ways you could use this object. Keep in mind that one object can have many uses. Separate your responses with a comma.",,y,14104,,,1735,13140,,,,"ingest, chew, eat, swallow, spit, throw, break",1
M20329083_LMM,4n1a6bei30,"Affordance Norms_MSU_TEX",1,37,2023-02-21T16:05:48+00:00,19.636348009109,86,"updated stim.csv",Version86.csv,"Version 86","List 86",wax,,2573,5.291666667,2912,0.507985351,2574,BOI,-,-,"Please name all of the ways you could use this object. Keep in mind that one object can have many uses. Separate your responses with a comma.",,y,19443,,,4442,18410,,,,"melt, spill, decorate",1
M20329083_LMM,4n1a6bei30,"Affordance Norms_MSU_TEX",1,38,2023-02-21T16:06:31+00:00,42.929689884186,86,"updated stim.csv",Version86.csv,"Version 86","List 86",toastmaster,,2561,4.652173913,2711,0.107891275,2562,BOI,-,-,"Please name all of the ways you could use this object. Keep in mind that one object can have many uses. Separate your responses with a comma.",,y,42731,,,9226,41791,,,,"cook, plug in, thermal",1
M20329083_LMM,4n1a6bei30,"Affordance Norms_MSU_TEX",1,39,2023-02-21T16:07:03+00:00,32.81294298172,86,"updated stim.csv",Version86.csv,"Version 86","List 86",assassin,,2579,4.32,88,0.497401619,2580,BOI,-,-,"Please name all of the ways you could use this object. Keep in mind that one object can have many uses. Separate your responses with a comma.",,y,32623,,,7772,31005,,,,"train, learn from, pay, attack, hit, throw",1
M20329083_LMM,4n1a6bei30,"Affordance Norms_MSU_TEX",1,40,2023-02-21T16:07:30+00:00,26.840979099274,86,"updated stim.csv",Version86.csv,"Version 86","List 86",searchlight,,2562,4.391304348,2298,0.037391814,2563,BOI,-,-,"Please name all of the ways you could use this object. Keep in mind that one object can have many uses. Separate your responses with a comma.",,y,26643,,,2753,25450,,,,"hold, use for light, throw, smash, catch",1
M20329083_LMM,4n1a6bei30,"Affordance Norms_MSU_TEX",1,41,2023-02-21T16:07:33+00:00,2.4796478748322,86,"updated stim.csv",Version86.csv,"Version 86","List 86",,,,,,,0,Instruct,,,"You will now be asked a few questions about your experience today.",,"Instruct 4",2306,,,-1,-1,,,,,1
