Username,ID,ExperimentName,Session,Trial,Date,TimeDif,"Condition Number","Stimuli File","Order File","Condition Description","Condition Notes",Stimuli*Cue,Stimuli*Answer,Stimuli*Shuffle,"Stimuli*Stimuli Notes",Stimuli*Value,Stimuli*Rand,Procedure*Item,"Procedure*Trial Type","Procedure*Max Time","Procedure*Min Time",Procedure*Text,"Procedure*Procedure Notes",Procedure*Shuffle,Response*RT,Response*Response,Response*Accuracy,Response*RTfirst,Response*RTlast,Response*strictAcc,Response*lenientAcc,Response*focus,Response*JOL,Response*Focus
M20278829AES,m7vllk56nx,"Affordance Norms_MSU_TEX",1,1,2023-01-21T18:32:24+00:00,14.253406047821,56,"updated stim.csv",Version56.csv,"Version 56","List 56",,,,,,,0,Instruct,-,10,"In this section, you will be presented with a series of objects. Please name as many possible uses for this object as you can think of by typing them in the box below each object.",,Instruct1,14089,,,-1,-1,,,,,1
M20278829AES,m7vllk56nx,"Affordance Norms_MSU_TEX",1,2,2023-01-21T18:32:45+00:00,21.294739961624,56,"updated stim.csv",Version56.csv,"Version 56","List 56",,,,,,,0,Instruct,-,10,"Please keep in mind that a single object will have more than one use. For example, a ball can be thrown or can be bounced or even stepped on. When listing multiple uses for one object, please separate each use with a comma (i.e., thrown, bounced, stepped on)",,Instruct2,21101,,,-1,-1,,,,,1
M20278829AES,m7vllk56nx,"Affordance Norms_MSU_TEX",1,3,2023-01-21T18:32:52+00:00,6.7792670726776,56,"updated stim.csv",Version56.csv,"Version 56","List 56",,,,,,,0,Instruct,-,-,"Before starting the experiment, you will complete a short practice sesstion. Press ENTER when you are ready to begin.",,Instruct3,6587,,,-1,-1,,,,,1
M20278829AES,m7vllk56nx,"Affordance Norms_MSU_TEX",1,4,2023-01-21T18:33:40+00:00,47.917215824127,56,"updated stim.csv",Version56.csv,"Version 56","List 56",spaghetti,,3003,6,2461,0.090379998,3004,BOI,-,-,"Please name all of the ways you could use this object. Keep in mind that one object can have many uses. Separate your responses with a comma.",,n,47729,,,19226,42339,,,,"cook it, eat it, throw it away",1
M20278829AES,m7vllk56nx,"Affordance Norms_MSU_TEX",1,5,2023-01-21T18:34:16+00:00,36.377360105515,56,"updated stim.csv",Version56.csv,"Version 56","List 56",saucer,,3005,5.777777778,2249,0.304808074,3006,BOI,-,-,"Please name all of the ways you could use this object. Keep in mind that one object can have many uses. Separate your responses with a comma.",,n,35987,,,27666,34892,,,,"hold cup, bread, other food",1
M20278829AES,m7vllk56nx,"Affordance Norms_MSU_TEX",1,6,2023-01-21T18:34:32+00:00,16.012476921082,56,"updated stim.csv",Version56.csv,"Version 56","List 56",shortening,,3002,4.92,2358,0.604328482,3003,BOI,-,-,"Please name all of the ways you could use this object. Keep in mind that one object can have many uses. Separate your responses with a comma.",,n,15798,,,12244,14690,,,,N/A,1
M20278829AES,m7vllk56nx,"Affordance Norms_MSU_TEX",1,7,2023-01-21T18:34:41+00:00,9.3126029968262,56,"updated stim.csv",Version56.csv,"Version 56","List 56",grain,,3004,5.217391304,1143,0.226863762,3005,BOI,-,-,"Please name all of the ways you could use this object. Keep in mind that one object can have many uses. Separate your responses with a comma.",,n,9113,,,4229,7099,,,,"baking, bread",1
M20278829AES,m7vllk56nx,"Affordance Norms_MSU_TEX",1,8,2023-01-21T18:35:13+00:00,31.586482048035,56,"updated stim.csv",Version56.csv,"Version 56","List 56",paperwork,,3001,5.625,1866,0.124284162,3002,BOI,-,-,"Please name all of the ways you could use this object. Keep in mind that one object can have many uses. Separate your responses with a comma.",,n,31380,,,2242,29243,,,,"organizing, education, employment, taxes",1
M20278829AES,m7vllk56nx,"Affordance Norms_MSU_TEX",1,9,2023-01-21T18:35:15+00:00,2.1051399707794,56,"updated stim.csv",Version56.csv,"Version 56","List 56",,,,,,,0,Instruct,-,-,"You have completed this section. Press ENTER to continue",,"Instruct 5",1919,,,-1,-1,,,,,1
M20278829AES,m7vllk56nx,"Affordance Norms_MSU_TEX",1,10,2023-01-21T18:35:17+00:00,1.9438869953156,56,"updated stim.csv",Version56.csv,"Version 56","List 56",,,,,,,0,Instruct,-,-,"You will now start the full experiment. Press ENTER when you are ready to begin.",,,1774,,,-1,-1,,,,,1
M20278829AES,m7vllk56nx,"Affordance Norms_MSU_TEX",1,11,2023-01-21T18:35:50+00:00,32.955706119537,56,"updated stim.csv",Version56.csv,"Version 56","List 56",kettle,,1673,5.44,1409,0.732708881,1674,BOI,-,-,"Please name all of the ways you could use this object. Keep in mind that one object can have many uses. Separate your responses with a comma.",,y,32746,,,2920,31101,,,,"tea, coffee, boiling water",1
M20278829AES,m7vllk56nx,"Affordance Norms_MSU_TEX",1,12,2023-01-21T18:36:14+00:00,24.420685052872,56,"updated stim.csv",Version56.csv,"Version 56","List 56",waistband,,1678,5.833333333,2881,0.015176289,1679,BOI,-,-,"Please name all of the ways you could use this object. Keep in mind that one object can have many uses. Separate your responses with a comma.",,y,24209,,,6380,17477,,,,"hold clothing up, tighten clothing",1
M20278829AES,m7vllk56nx,"Affordance Norms_MSU_TEX",1,13,2023-01-21T18:36:47+00:00,32.682402849197,56,"updated stim.csv",Version56.csv,"Version 56","List 56",surveyor,,1669,4.47826087,2596,0.652692001,1670,BOI,-,-,"Please name all of the ways you could use this object. Keep in mind that one object can have many uses. Separate your responses with a comma.",,y,32465,,,3889,31121,,,,"Construction, Survey monkey",1
M20278829AES,m7vllk56nx,"Affordance Norms_MSU_TEX",1,14,2023-01-21T18:38:14+00:00,87.046076059341,56,"updated stim.csv",Version56.csv,"Version 56","List 56",dog,,1662,6.4,811,0.650790749,1663,BOI,-,-,"Please name all of the ways you could use this object. Keep in mind that one object can have many uses. Separate your responses with a comma.",,y,87017,,,4715,85199,,,,"guardian, protector, companion, Comfort therapist, Service dog,",1
M20278829AES,m7vllk56nx,"Affordance Norms_MSU_TEX",1,15,2023-01-21T18:39:37+00:00,82.621454954147,56,"updated stim.csv",Version56.csv,"Version 56","List 56",privates,,1652,4.681818182,2068,0.300924862,1653,BOI,-,-,"Please name all of the ways you could use this object. Keep in mind that one object can have many uses. Separate your responses with a comma.",,y,82055,,,34046,74669,,,,"sex, birth, and body parts",1
M20278829AES,m7vllk56nx,"Affordance Norms_MSU_TEX",1,16,2023-01-21T18:40:16+00:00,39.327315092087,56,"updated stim.csv",Version56.csv,"Version 56","List 56",lemonade,,1672,5.409090909,1490,0.878080533,1673,BOI,-,-,"Please name all of the ways you could use this object. Keep in mind that one object can have many uses. Separate your responses with a comma.",,y,39098,,,3536,17013,,,,"drinking, cooking, ",1
M20278829AES,m7vllk56nx,"Affordance Norms_MSU_TEX",1,17,2023-01-21T18:41:41+00:00,84.776048898697,56,"updated stim.csv",Version56.csv,"Version 56","List 56",passenger,,1667,5.08,1880,0.578418709,1668,BOI,-,-,"Please name all of the ways you could use this object. Keep in mind that one object can have many uses. Separate your responses with a comma.",,y,84468,,,4786,82786,,,,"airplane, vehicle, Carnival rider, participant",1
M20278829AES,m7vllk56nx,"Affordance Norms_MSU_TEX",1,18,2023-01-21T18:42:54+00:00,73.103081941605,56,"updated stim.csv",Version56.csv,"Version 56","List 56",ale,,1666,4.962962963,25,0.184411258,1667,BOI,-,-,"Please name all of the ways you could use this object. Keep in mind that one object can have many uses. Separate your responses with a comma.",,y,72834,,,45705,70541,,,,"drinking, celebration, casual, cold, drafted",1
M20278829AES,m7vllk56nx,"Affordance Norms_MSU_TEX",1,19,2023-01-21T18:43:15+00:00,21.250553131104,56,"updated stim.csv",Version56.csv,"Version 56","List 56",apple,,1677,6.272727273,61,0.853470163,1678,BOI,-,-,"Please name all of the ways you could use this object. Keep in mind that one object can have many uses. Separate your responses with a comma.",,y,21043,,,2188,20058,,,,"grown, picked, peeled, bitten, baked, sauced",1
M20278829AES,m7vllk56nx,"Affordance Norms_MSU_TEX",1,20,2023-01-21T18:43:25+00:00,9.9198658466339,56,"updated stim.csv",Version56.csv,"Version 56","List 56",beetle,,1657,5.166666667,194,0.449191658,1658,BOI,-,-,"Please name all of the ways you could use this object. Keep in mind that one object can have many uses. Separate your responses with a comma.",,y,9707,,,4895,7963,,,,"bug, squashed",1
M20278829AES,m7vllk56nx,"Affordance Norms_MSU_TEX",1,21,2023-01-21T18:43:30+00:00,4.6444540023804,56,"updated stim.csv",Version56.csv,"Version 56","List 56",spectroscope,,1661,4.9,2467,0.753909143,1662,BOI,-,-,"Please name all of the ways you could use this object. Keep in mind that one object can have many uses. Separate your responses with a comma.",,y,4458,,,2832,3733,,,,looking,1
M20278829AES,m7vllk56nx,"Affordance Norms_MSU_TEX",1,22,2023-01-21T18:43:46+00:00,16.005143165588,56,"updated stim.csv",Version56.csv,"Version 56","List 56",pendant,,1674,5.791666667,1914,0.664870126,1675,BOI,-,-,"Please name all of the ways you could use this object. Keep in mind that one object can have many uses. Separate your responses with a comma.",,y,15807,,,2973,14540,,,,"necklace, close to heart, sentimental",1
M20278829AES,m7vllk56nx,"Affordance Norms_MSU_TEX",1,23,2023-01-21T18:44:11+00:00,25.266330003738,56,"updated stim.csv",Version56.csv,"Version 56","List 56",matchbox,,1656,5.875,1621,0.348925136,1657,BOI,-,-,"Please name all of the ways you could use this object. Keep in mind that one object can have many uses. Separate your responses with a comma.",,y,25038,,,10197,21426,,,,"holds matches, can cause fire",1
M20278829AES,m7vllk56nx,"Affordance Norms_MSU_TEX",1,24,2023-01-21T18:44:41+00:00,30.115265846252,56,"updated stim.csv",Version56.csv,"Version 56","List 56",ointment,,1658,5.869565217,1804,0.822485525,1659,BOI,-,-,"Please name all of the ways you could use this object. Keep in mind that one object can have many uses. Separate your responses with a comma.",,y,29886,,,4114,28790,,,,"dry skin, soothing aches, soothing itch, medicated ",1
M20278829AES,m7vllk56nx,"Affordance Norms_MSU_TEX",1,25,2023-01-21T18:45:02+00:00,20.576774120331,56,"updated stim.csv",Version56.csv,"Version 56","List 56",escalator,,1668,5.52,920,0.992430852,1669,BOI,-,-,"Please name all of the ways you could use this object. Keep in mind that one object can have many uses. Separate your responses with a comma.",,y,20281,,,6373,19281,,,,"upstairs, downstairs, no steps",1
M20278829AES,m7vllk56nx,"Affordance Norms_MSU_TEX",1,26,2023-01-21T18:46:14+00:00,72.179915904999,56,"updated stim.csv",Version56.csv,"Version 56","List 56",woods,,1653,4.409090909,2963,0.490218442,1654,BOI,-,-,"Please name all of the ways you could use this object. Keep in mind that one object can have many uses. Separate your responses with a comma.",,y,71784,,,2702,69358,,,,"trees, Greenbriar's, hunting, furniture, walls, cabinets, pencils, paper",1
M20278829AES,m7vllk56nx,"Affordance Norms_MSU_TEX",1,27,2023-01-21T18:47:18+00:00,63.838639974594,56,"updated stim.csv",Version56.csv,"Version 56","List 56",husky,,1659,4.892857143,1340,0.948119147,1660,BOI,-,-,"Please name all of the ways you could use this object. Keep in mind that one object can have many uses. Separate your responses with a comma.",,y,63549,,,8516,60873,,,,"Alaska, Canada, Snow, Sledding, transport",1
M20278829AES,m7vllk56nx,"Affordance Norms_MSU_TEX",1,28,2023-01-21T18:47:57+00:00,38.813505172729,56,"updated stim.csv",Version56.csv,"Version 56","List 56",carp,,1660,4.52173913,435,0.027686914,1661,BOI,-,-,"Please name all of the ways you could use this object. Keep in mind that one object can have many uses. Separate your responses with a comma.",,y,38588,,,3086,9781,,,," food, bait",1
M20278829AES,m7vllk56nx,"Affordance Norms_MSU_TEX",1,29,2023-01-21T18:48:07+00:00,9.9434928894043,56,"updated stim.csv",Version56.csv,"Version 56","List 56",minnow,,1655,4.416666667,1665,0.837441305,1656,BOI,-,-,"Please name all of the ways you could use this object. Keep in mind that one object can have many uses. Separate your responses with a comma.",,y,9716,,,3854,8869,,,,"bait for fishing",1
M20278829AES,m7vllk56nx,"Affordance Norms_MSU_TEX",1,30,2023-01-21T18:48:42+00:00,35.65988612175,56,"updated stim.csv",Version56.csv,"Version 56","List 56",sirloin,,1665,5.32,2386,0.561610657,1666,BOI,-,-,"Please name all of the ways you could use this object. Keep in mind that one object can have many uses. Separate your responses with a comma.",,y,35430,,,8707,34549,,,,"Grilled, baked, cow, ",1
M20278829AES,m7vllk56nx,"Affordance Norms_MSU_TEX",1,31,2023-01-21T18:49:33+00:00,50.905610799789,56,"updated stim.csv",Version56.csv,"Version 56","List 56",hanger,,1651,5.291666667,1245,0.935113828,1652,BOI,-,-,"Please name all of the ways you could use this object. Keep in mind that one object can have many uses. Separate your responses with a comma.",,y,50677,,,1918,15092,,,,clothes,1
M20278829AES,m7vllk56nx,"Affordance Norms_MSU_TEX",1,32,2023-01-21T18:50:11+00:00,38.280783176422,56,"updated stim.csv",Version56.csv,"Version 56","List 56",fauna,,1676,5,953,0.47610094,1677,BOI,-,-,"Please name all of the ways you could use this object. Keep in mind that one object can have many uses. Separate your responses with a comma.",,y,38065,,,31099,36976,,,,"animals, bacteria, studies",1
M20278829AES,m7vllk56nx,"Affordance Norms_MSU_TEX",1,33,2023-01-21T18:50:29+00:00,17.32656788826,56,"updated stim.csv",Version56.csv,"Version 56","List 56",dust,,1664,4.827586207,868,0.814335177,1665,BOI,-,-,"Please name all of the ways you could use this object. Keep in mind that one object can have many uses. Separate your responses with a comma.",,y,17126,,,2736,13859,,,,allergies,1
M20278829AES,m7vllk56nx,"Affordance Norms_MSU_TEX",1,34,2023-01-21T18:50:35+00:00,6.0596570968628,56,"updated stim.csv",Version56.csv,"Version 56","List 56",deliveryman,,1671,4.44,770,0.204483253,1672,BOI,-,-,"Please name all of the ways you could use this object. Keep in mind that one object can have many uses. Separate your responses with a comma.",,y,5846,,,3389,5125,,,,transport,1
M20278829AES,m7vllk56nx,"Affordance Norms_MSU_TEX",1,35,2023-01-21T18:50:54+00:00,18.86823797226,56,"updated stim.csv",Version56.csv,"Version 56","List 56",tranquilizer,,1670,4.56,2760,0.94224517,1671,BOI,-,-,"Please name all of the ways you could use this object. Keep in mind that one object can have many uses. Separate your responses with a comma.",,y,18642,,,2663,17740,,,,"putting something to sleep or killing",1
M20278829AES,m7vllk56nx,"Affordance Norms_MSU_TEX",1,36,2023-01-21T18:51:27+00:00,33.532116889954,56,"updated stim.csv",Version56.csv,"Version 56","List 56",jewel,,1663,5.44,1384,0.915429444,1664,BOI,-,-,"Please name all of the ways you could use this object. Keep in mind that one object can have many uses. Separate your responses with a comma.",,y,33313,,,4962,32741,,,,"hard rock like stone used in necklaces, bracelets, earrings, rings, clothing",1
M20278829AES,m7vllk56nx,"Affordance Norms_MSU_TEX",1,37,2023-01-21T18:52:44+00:00,77.067203044891,56,"updated stim.csv",Version56.csv,"Version 56","List 56",buttocks,,1679,6.434782609,380,0.112196707,1680,BOI,-,-,"Please name all of the ways you could use this object. Keep in mind that one object can have many uses. Separate your responses with a comma.",,y,76723,,,22943,65145,,,,"dispose of feces, and gas, sitting",1
M20278829AES,m7vllk56nx,"Affordance Norms_MSU_TEX",1,38,2023-01-21T18:53:02+00:00,17.502169132233,56,"updated stim.csv",Version56.csv,"Version 56","List 56",cousin,,1675,5.375,669,0.902543183,1676,BOI,-,-,"Please name all of the ways you could use this object. Keep in mind that one object can have many uses. Separate your responses with a comma.",,y,17229,,,3013,16310,,,,"friend, playmate, family ",1
M20278829AES,m7vllk56nx,"Affordance Norms_MSU_TEX",1,39,2023-01-21T18:53:42+00:00,40.56251502037,56,"updated stim.csv",Version56.csv,"Version 56","List 56",pocketbook,,1680,5.884615385,2014,0.033598567,1681,BOI,-,-,"Please name all of the ways you could use this object. Keep in mind that one object can have many uses. Separate your responses with a comma.",,y,40283,,,2821,34887,,,,"holds money, information, receipts, drivers ID ",1
M20278829AES,m7vllk56nx,"Affordance Norms_MSU_TEX",1,40,2023-01-21T18:53:55+00:00,12.692545890808,56,"updated stim.csv",Version56.csv,"Version 56","List 56",bookcase,,1654,5.56,272,0.257722759,1655,BOI,-,-,"Please name all of the ways you could use this object. Keep in mind that one object can have many uses. Separate your responses with a comma.",,y,12489,,,2063,10029,,,,"Holds books, photo albums",1
M20278829AES,m7vllk56nx,"Affordance Norms_MSU_TEX",1,41,2023-01-21T18:53:57+00:00,2.462944984436,56,"updated stim.csv",Version56.csv,"Version 56","List 56",,,,,,,0,Instruct,,,"You will now be asked a few questions about your experience today.",,"Instruct 4",2272,,,-1,-1,,,,,1
