Username,ID,ExperimentName,Session,Trial,Date,TimeDif,"Condition Number","Stimuli File","Order File","Condition Description","Condition Notes",Stimuli*Cue,Stimuli*Answer,Stimuli*Shuffle,"Stimuli*Stimuli Notes",Stimuli*Value,Stimuli*Rand,Procedure*Item,"Procedure*Trial Type","Procedure*Max Time","Procedure*Min Time",Procedure*Text,"Procedure*Procedure Notes",Procedure*Shuffle,Response*RT,Response*Response,Response*Accuracy,Response*RTfirst,Response*RTlast,Response*strictAcc,Response*lenientAcc,Response*focus,Response*JOL,Response*Focus
M20268581_mns,qr3nesq91j,"Affordance Norms_MSU_TEX",1,1,2023-02-21T20:22:54+00:00,12.836981058121,88,"updated stim.csv",Version88.csv,"Version 88","List 88",,,,,,,0,Instruct,-,10,"In this section, you will be presented with a series of objects. Please name as many possible uses for this object as you can think of by typing them in the box below each object.",,Instruct1,12561,,,-1,-1,,,,,1
M20268581_mns,qr3nesq91j,"Affordance Norms_MSU_TEX",1,2,2023-02-21T20:23:06+00:00,12.39615893364,88,"updated stim.csv",Version88.csv,"Version 88","List 88",,,,,,,0,Instruct,-,10,"Please keep in mind that a single object will have more than one use. For example, a ball can be thrown or can be bounced or even stepped on. When listing multiple uses for one object, please separate each use with a comma (i.e., thrown, bounced, stepped on)",,Instruct2,11850,,,-1,-1,,,,,1
M20268581_mns,qr3nesq91j,"Affordance Norms_MSU_TEX",1,3,2023-02-21T20:23:12+00:00,5.6878931522369,88,"updated stim.csv",Version88.csv,"Version 88","List 88",,,,,,,0,Instruct,-,-,"Before starting the experiment, you will complete a short practice sesstion. Press ENTER when you are ready to begin.",,Instruct3,4918,,,-1,-1,,,,,1
M20268581_mns,qr3nesq91j,"Affordance Norms_MSU_TEX",1,4,2023-02-21T20:23:20+00:00,8.1594278812408,88,"updated stim.csv",Version88.csv,"Version 88","List 88",saucer,,3005,5.777777778,2249,0.304808074,3006,BOI,-,-,"Please name all of the ways you could use this object. Keep in mind that one object can have many uses. Separate your responses with a comma.",,n,6334,,,4237,4964,,,,thrown,1
M20268581_mns,qr3nesq91j,"Affordance Norms_MSU_TEX",1,5,2023-02-21T20:23:31+00:00,10.958805084229,88,"updated stim.csv",Version88.csv,"Version 88","List 88",grain,,3004,5.217391304,1143,0.226863762,3005,BOI,-,-,"Please name all of the ways you could use this object. Keep in mind that one object can have many uses. Separate your responses with a comma.",,n,10279,,,8876,9234,,,,eat,1
M20268581_mns,qr3nesq91j,"Affordance Norms_MSU_TEX",1,6,2023-02-21T20:23:47+00:00,16.29145693779,88,"updated stim.csv",Version88.csv,"Version 88","List 88",spaghetti,,3003,6,2461,0.090379998,3004,BOI,-,-,"Please name all of the ways you could use this object. Keep in mind that one object can have many uses. Separate your responses with a comma.",,n,15687,,,1895,14805,,,,"eat, cook, serve",1
M20268581_mns,qr3nesq91j,"Affordance Norms_MSU_TEX",1,7,2023-02-21T20:24:02+00:00,15.153103113174,88,"updated stim.csv",Version88.csv,"Version 88","List 88",paperwork,,3001,5.625,1866,0.124284162,3002,BOI,-,-,"Please name all of the ways you could use this object. Keep in mind that one object can have many uses. Separate your responses with a comma.",,n,14360,,,2359,13530,,,,"handout, work, make, submit",1
M20268581_mns,qr3nesq91j,"Affordance Norms_MSU_TEX",1,8,2023-02-21T20:24:16+00:00,13.920311927795,88,"updated stim.csv",Version88.csv,"Version 88","List 88",shortening,,3002,4.92,2358,0.604328482,3003,BOI,-,-,"Please name all of the ways you could use this object. Keep in mind that one object can have many uses. Separate your responses with a comma.",,n,13294,,,-1,-1,,,,,1
M20268581_mns,qr3nesq91j,"Affordance Norms_MSU_TEX",1,9,2023-02-21T20:24:19+00:00,2.6818690299988,88,"updated stim.csv",Version88.csv,"Version 88","List 88",,,,,,,0,Instruct,-,-,"You have completed this section. Press ENTER to continue",,"Instruct 5",2105,,,-1,-1,,,,,1
M20268581_mns,qr3nesq91j,"Affordance Norms_MSU_TEX",1,10,2023-02-21T20:24:22+00:00,2.8402740955353,88,"updated stim.csv",Version88.csv,"Version 88","List 88",,,,,,,0,Instruct,-,-,"You will now start the full experiment. Press ENTER when you are ready to begin.",,,2210,,,-1,-1,,,,,1
M20268581_mns,qr3nesq91j,"Affordance Norms_MSU_TEX",1,11,2023-02-21T20:25:06+00:00,43.721111774445,88,"updated stim.csv",Version88.csv,"Version 88","List 88",me,,2627,5.708333333,1630,0.946275802,2628,BOI,-,-,"Please name all of the ways you could use this object. Keep in mind that one object can have many uses. Separate your responses with a comma.",,y,35749,,,34235,34710,,,,work,1
M20268581_mns,qr3nesq91j,"Affordance Norms_MSU_TEX",1,12,2023-02-21T20:25:58+00:00,52.331980228424,88,"updated stim.csv",Version88.csv,"Version 88","List 88",cornmeal,,2619,5.913043478,649,0.10529369,2620,BOI,-,-,"Please name all of the ways you could use this object. Keep in mind that one object can have many uses. Separate your responses with a comma.",,y,11219,,,4730,9211,,,,"eat, make, serve",1
M20268581_mns,qr3nesq91j,"Affordance Norms_MSU_TEX",1,13,2023-02-21T20:27:05+00:00,66.725718975067,88,"updated stim.csv",Version88.csv,"Version 88","List 88",grandfather,,2611,5.833333333,1147,0.072981745,2612,BOI,-,-,"Please name all of the ways you could use this object. Keep in mind that one object can have many uses. Separate your responses with a comma.",,y,19452,,,12839,18651,,,,"help, work, family",1
M20268581_mns,qr3nesq91j,"Affordance Norms_MSU_TEX",1,14,2023-02-21T20:27:28+00:00,22.892554998398,88,"updated stim.csv",Version88.csv,"Version 88","List 88",Sailboat,,2626,5.266216216,2216,0.378978462,2627,BOI,-,-,"Please name all of the ways you could use this object. Keep in mind that one object can have many uses. Separate your responses with a comma.",,y,11916,,,3485,5096,,,,sail,1
M20268581_mns,qr3nesq91j,"Affordance Norms_MSU_TEX",1,15,2023-02-21T20:27:39+00:00,11.188421010971,88,"updated stim.csv",Version88.csv,"Version 88","List 88",spout,,2623,5,2485,0.577206203,2624,BOI,-,-,"Please name all of the ways you could use this object. Keep in mind that one object can have many uses. Separate your responses with a comma.",,y,9417,,,4787,8414,,,,"water, rinse ",1
M20268581_mns,qr3nesq91j,"Affordance Norms_MSU_TEX",1,16,2023-02-21T20:28:08+00:00,29.631628990173,88,"updated stim.csv",Version88.csv,"Version 88","List 88",balloonist,,2639,4.275862069,131,0.761714768,2640,BOI,-,-,"Please name all of the ways you could use this object. Keep in mind that one object can have many uses. Separate your responses with a comma.",,y,28355,,,3585,27279,,,,"party, blow, entertain",1
M20268581_mns,qr3nesq91j,"Affordance Norms_MSU_TEX",1,17,2023-02-21T20:28:30+00:00,21.4197909832,88,"updated stim.csv",Version88.csv,"Version 88","List 88",bus,,2613,5.192307692,368,0.37966991,2614,BOI,-,-,"Please name all of the ways you could use this object. Keep in mind that one object can have many uses. Separate your responses with a comma.",,y,20119,,,1916,16100,,,,"ride, travel, transfer",1
M20268581_mns,qr3nesq91j,"Affordance Norms_MSU_TEX",1,18,2023-02-21T20:28:38+00:00,7.8004670143127,88,"updated stim.csv",Version88.csv,"Version 88","List 88",skirt,,2638,6.041666667,2400,0.253802164,2639,BOI,-,-,"Please name all of the ways you could use this object. Keep in mind that one object can have many uses. Separate your responses with a comma.",,y,7141,,,2057,6690,,,,"wear, use",1
M20268581_mns,qr3nesq91j,"Affordance Norms_MSU_TEX",1,19,2023-02-21T20:28:46+00:00,8.6991419792175,88,"updated stim.csv",Version88.csv,"Version 88","List 88",treat,,2634,4.791666667,2771,0.682839002,2635,BOI,-,-,"Please name all of the ways you could use this object. Keep in mind that one object can have many uses. Separate your responses with a comma.",,y,7951,,,1378,6922,,,,"eat, give, make",1
M20268581_mns,qr3nesq91j,"Affordance Norms_MSU_TEX",1,20,2023-02-21T20:29:03+00:00,16.926851034164,88,"updated stim.csv",Version88.csv,"Version 88","List 88",donkey,,2635,4.826086957,820,0.853493036,2636,BOI,-,-,"Please name all of the ways you could use this object. Keep in mind that one object can have many uses. Separate your responses with a comma.",,y,16015,,,3192,14712,,,,"eat, ride, kill, pet",1
M20268581_mns,qr3nesq91j,"Affordance Norms_MSU_TEX",1,21,2023-02-21T20:29:14+00:00,11.01561498642,88,"updated stim.csv",Version88.csv,"Version 88","List 88",paintbrush,,2630,5.56,1849,0.345509359,2631,BOI,-,-,"Please name all of the ways you could use this object. Keep in mind that one object can have many uses. Separate your responses with a comma.",,y,9391,,,2060,8038,,,,"paint, use, buy, sell",1
M20268581_mns,qr3nesq91j,"Affordance Norms_MSU_TEX",1,22,2023-02-21T20:29:38+00:00,24.052369832993,88,"updated stim.csv",Version88.csv,"Version 88","List 88",scooter,,2637,5.913043478,2278,0.01333775,2638,BOI,-,-,"Please name all of the ways you could use this object. Keep in mind that one object can have many uses. Separate your responses with a comma.",,y,17234,,,1846,16102,,,,"ride, buy, sell, make, push",1
M20268581_mns,qr3nesq91j,"Affordance Norms_MSU_TEX",1,23,2023-02-21T20:31:14+00:00,95.479305028915,88,"updated stim.csv",Version88.csv,"Version 88","List 88",supermarket,,2612,4.869565217,2590,0.052789154,2613,BOI,-,-,"Please name all of the ways you could use this object. Keep in mind that one object can have many uses. Separate your responses with a comma.",,y,34141,,,17916,32172,,,,"shop, buy, go",1
M20268581_mns,qr3nesq91j,"Affordance Norms_MSU_TEX",1,24,2023-02-21T20:31:21+00:00,7.4947280883789,88,"updated stim.csv",Version88.csv,"Version 88","List 88",stenographer,,2625,4.625,2521,0.505996283,2626,BOI,-,-,"Please name all of the ways you could use this object. Keep in mind that one object can have many uses. Separate your responses with a comma.",,y,6355,,,4771,5519,,,,write,1
M20268581_mns,qr3nesq91j,"Affordance Norms_MSU_TEX",1,25,2023-02-21T20:31:35+00:00,13.591040849686,88,"updated stim.csv",Version88.csv,"Version 88","List 88",crib,,2631,5.56,694,0.322740091,2632,BOI,-,-,"Please name all of the ways you could use this object. Keep in mind that one object can have many uses. Separate your responses with a comma.",,y,11783,,,3865,10625,,,,"rock, make, sleep",1
M20268581_mns,qr3nesq91j,"Affordance Norms_MSU_TEX",1,26,2023-02-21T20:31:56+00:00,20.618005037308,88,"updated stim.csv",Version88.csv,"Version 88","List 88",kumquat,,2618,5.619047619,1441,0.215163503,2619,BOI,-,-,"Please name all of the ways you could use this object. Keep in mind that one object can have many uses. Separate your responses with a comma.",,y,7892,,,-1,-1,,,,,1
M20268581_mns,qr3nesq91j,"Affordance Norms_MSU_TEX",1,27,2023-02-21T20:32:09+00:00,13.766420125961,88,"updated stim.csv",Version88.csv,"Version 88","List 88",bedclothes,,2617,5.708333333,185,0.51555088,2618,BOI,-,-,"Please name all of the ways you could use this object. Keep in mind that one object can have many uses. Separate your responses with a comma.",,y,10943,,,2039,9883,,,,"wear, wash, clean, give",1
M20268581_mns,qr3nesq91j,"Affordance Norms_MSU_TEX",1,28,2023-02-21T20:32:19+00:00,9.5726690292358,88,"updated stim.csv",Version88.csv,"Version 88","List 88",fertilizer,,2615,5.217391304,967,0.884941942,2616,BOI,-,-,"Please name all of the ways you could use this object. Keep in mind that one object can have many uses. Separate your responses with a comma.",,y,7211,,,2249,5883,,,,fertilize,1
M20268581_mns,qr3nesq91j,"Affordance Norms_MSU_TEX",1,29,2023-02-21T20:32:36+00:00,16.801039934158,88,"updated stim.csv",Version88.csv,"Version 88","List 88",attendant,,2629,5.083333333,94,0.096814429,2630,BOI,-,-,"Please name all of the ways you could use this object. Keep in mind that one object can have many uses. Separate your responses with a comma.",,y,16103,,,6242,14799,,,,"support, ask, advice, help",1
M20268581_mns,qr3nesq91j,"Affordance Norms_MSU_TEX",1,30,2023-02-21T20:32:52+00:00,16.726175069809,88,"updated stim.csv",Version88.csv,"Version 88","List 88",protractor,,2614,5.434782609,2082,0.074911109,2615,BOI,-,-,"Please name all of the ways you could use this object. Keep in mind that one object can have many uses. Separate your responses with a comma.",,y,15911,,,9050,14976,,,,"work, school, write",1
M20268581_mns,qr3nesq91j,"Affordance Norms_MSU_TEX",1,31,2023-02-21T20:33:03+00:00,10.209097862244,88,"updated stim.csv",Version88.csv,"Version 88","List 88",scanner,,2636,5.444444444,2264,0.460591208,2637,BOI,-,-,"Please name all of the ways you could use this object. Keep in mind that one object can have many uses. Separate your responses with a comma.",,y,9335,,,1613,8166,,,,"scan, check, use",1
M20268581_mns,qr3nesq91j,"Affordance Norms_MSU_TEX",1,32,2023-02-21T20:33:18+00:00,14.983066082001,88,"updated stim.csv",Version88.csv,"Version 88","List 88",wiper,,2622,5.125,2951,0.03276562,2623,BOI,-,-,"Please name all of the ways you could use this object. Keep in mind that one object can have many uses. Separate your responses with a comma.",,y,12256,,,3733,8742,,,,"wipe, clean",1
M20268581_mns,qr3nesq91j,"Affordance Norms_MSU_TEX",1,33,2023-02-21T20:33:44+00:00,26.04808807373,88,"updated stim.csv",Version88.csv,"Version 88","List 88",bran,,2640,4.407407407,302,0.51057485,2641,BOI,-,-,"Please name all of the ways you could use this object. Keep in mind that one object can have many uses. Separate your responses with a comma.",,y,4755,,,-1,-1,,,,,1
M20268581_mns,qr3nesq91j,"Affordance Norms_MSU_TEX",1,34,2023-02-21T20:33:58+00:00,14.674471855164,88,"updated stim.csv",Version88.csv,"Version 88","List 88",committeewoman,,2633,4.857142857,609,0.736817874,2634,BOI,-,-,"Please name all of the ways you could use this object. Keep in mind that one object can have many uses. Separate your responses with a comma.",,y,13594,,,5822,9565,,,,"learn, teach",1
M20268581_mns,qr3nesq91j,"Affordance Norms_MSU_TEX",1,35,2023-02-21T20:34:15+00:00,16.240205049515,88,"updated stim.csv",Version88.csv,"Version 88","List 88",breakfast,,2624,6.173913043,311,0.358706903,2625,BOI,-,-,"Please name all of the ways you could use this object. Keep in mind that one object can have many uses. Separate your responses with a comma.",,y,14306,,,3149,12570,,,,"eat, serve, give, cook",1
M20268581_mns,qr3nesq91j,"Affordance Norms_MSU_TEX",1,36,2023-02-21T20:34:28+00:00,13.018328905106,88,"updated stim.csv",Version88.csv,"Version 88","List 88",uniform,,2620,5.666666667,2826,0.141324145,2621,BOI,-,-,"Please name all of the ways you could use this object. Keep in mind that one object can have many uses. Separate your responses with a comma.",,y,12084,,,1678,9037,,,,"wear, clean, wash",1
M20268581_mns,qr3nesq91j,"Affordance Norms_MSU_TEX",1,37,2023-02-21T20:34:44+00:00,16.323671102524,88,"updated stim.csv",Version88.csv,"Version 88","List 88",crossbar,,2616,5.043478261,704,0.121929154,2617,BOI,-,-,"Please name all of the ways you could use this object. Keep in mind that one object can have many uses. Separate your responses with a comma.",,y,15297,,,6705,14351,,,,watch,1
M20268581_mns,qr3nesq91j,"Affordance Norms_MSU_TEX",1,38,2023-02-21T20:34:52+00:00,8.2215070724487,88,"updated stim.csv",Version88.csv,"Version 88","List 88",ukulele,,2628,5.782608696,2815,0.608619173,2629,BOI,-,-,"Please name all of the ways you could use this object. Keep in mind that one object can have many uses. Separate your responses with a comma.",,y,7148,,,1793,5814,,,,"play, make, listen",1
M20268581_mns,qr3nesq91j,"Affordance Norms_MSU_TEX",1,39,2023-02-21T20:35:03+00:00,10.775173902512,88,"updated stim.csv",Version88.csv,"Version 88","List 88",garment,,2632,5.826086957,1081,0.76823873,2633,BOI,-,-,"Please name all of the ways you could use this object. Keep in mind that one object can have many uses. Separate your responses with a comma.",,y,8510,,,3054,6086,,,,wear,1
M20268581_mns,qr3nesq91j,"Affordance Norms_MSU_TEX",1,40,2023-02-21T20:35:08+00:00,4.8268449306488,88,"updated stim.csv",Version88.csv,"Version 88","List 88",youngster,,2621,5,2997,0.833914502,2622,BOI,-,-,"Please name all of the ways you could use this object. Keep in mind that one object can have many uses. Separate your responses with a comma.",,y,4227,,,-1,-1,,,,,1
M20268581_mns,qr3nesq91j,"Affordance Norms_MSU_TEX",1,41,2023-02-21T20:35:15+00:00,7.4789509773254,88,"updated stim.csv",Version88.csv,"Version 88","List 88",,,,,,,0,Instruct,,,"You will now be asked a few questions about your experience today.",,"Instruct 4",3625,,,-1,-1,,,,,1
