Username,ID,ExperimentName,Session,Trial,Date,TimeDif,"Condition Number","Stimuli File","Order File","Condition Description","Condition Notes",Stimuli*Cue,Stimuli*Answer,Stimuli*Shuffle,"Stimuli*Stimuli Notes",Stimuli*Value,Procedure*Item,"Procedure*Trial Type","Procedure*Max Time","Procedure*Min Time",Procedure*Text,"Procedure*Procedure Notes",Procedure*Shuffle,Response*RT,Response*Response,Response*Accuracy,Response*RTfirst,Response*RTlast,Response*strictAcc,Response*lenientAcc,Response*focus,Response*JOL,Response*Focus
lillian.dennis@hope.edu,58ayunma20,Affordances_Hope,1,1,2022-09-28T15:12:09+00:00,10.443444013596,19,"updated stim.csv",Version44.csv,"Version 44","List 44",,,,,,0,Instruct,-,10,"In this section, you will be presented with a series of objects. Please name as many possible uses for this object as you can think of by typing them in the box below each object.",,Instruct1,10206,,,-1,-1,,,,,1
lillian.dennis@hope.edu,58ayunma20,Affordances_Hope,1,2,2022-09-28T15:12:23+00:00,13.618119001389,19,"updated stim.csv",Version44.csv,"Version 44","List 44",,,,,,0,Instruct,-,10,"Please keep in mind that a single object will have more than one use. For example, a ball can be thrown or can be bounced or even stepped on. When listing multiple uses for one object, please separate each use with a comma (i.e., thrown, bounced, stepped on)",,Instruct2,13300,,,-1,-1,,,,,1
lillian.dennis@hope.edu,58ayunma20,Affordances_Hope,1,3,2022-09-28T15:12:29+00:00,6.1469638347626,19,"updated stim.csv",Version44.csv,"Version 44","List 44",,,,,,0,Instruct,-,-,"Before starting the experiment, you will complete a short practice sesstion. Press ENTER when you are ready to begin.",,Instruct3,5832,,,-1,-1,,,,,1
lillian.dennis@hope.edu,58ayunma20,Affordances_Hope,1,4,2022-09-28T15:12:52+00:00,22.639748096466,19,"updated stim.csv",Version44.csv,"Version 44","List 44",spaghetti,,3003,6,2461,3004,BOI,-,-,"Please name all of the ways you could use this object. Keep in mind that one object can have many uses. Separate your responses with a comma.",,n,22329,,,1943,20293,,,,"eat, spin, slurp, pick up, cook, boil",1
lillian.dennis@hope.edu,58ayunma20,Affordances_Hope,1,5,2022-09-28T15:13:16+00:00,24.550393104553,19,"updated stim.csv",Version44.csv,"Version 44","List 44",grain,,3004,5.217391304,1143,3005,BOI,-,-,"Please name all of the ways you could use this object. Keep in mind that one object can have many uses. Separate your responses with a comma.",,n,24220,,,2252,21883,,,,"grow, harvest",1
lillian.dennis@hope.edu,58ayunma20,Affordances_Hope,1,6,2022-09-28T15:13:37+00:00,20.449193000793,19,"updated stim.csv",Version44.csv,"Version 44","List 44",paperwork,,3001,5.625,1866,3002,BOI,-,-,"Please name all of the ways you could use this object. Keep in mind that one object can have many uses. Separate your responses with a comma.",,n,20168,,,1874,18053,,,,"turn in, shred, finish, fill out, type, answer",1
lillian.dennis@hope.edu,58ayunma20,Affordances_Hope,1,7,2022-09-28T15:13:57+00:00,20.065232992172,19,"updated stim.csv",Version44.csv,"Version 44","List 44",saucer,,3005,5.777777778,2249,3006,BOI,-,-,"Please name all of the ways you could use this object. Keep in mind that one object can have many uses. Separate your responses with a comma.",,n,19780,,,3513,18264,,,,"fill, use, place",1
lillian.dennis@hope.edu,58ayunma20,Affordances_Hope,1,8,2022-09-28T15:14:11+00:00,14.103374004364,19,"updated stim.csv",Version44.csv,"Version 44","List 44",shortening,,3002,4.92,2358,3003,BOI,-,-,"Please name all of the ways you could use this object. Keep in mind that one object can have many uses. Separate your responses with a comma.",,n,13531,,,6630,9327,,,,baking,1
lillian.dennis@hope.edu,58ayunma20,Affordances_Hope,1,9,2022-09-28T15:14:13+00:00,2.4935908317566,19,"updated stim.csv",Version44.csv,"Version 44","List 44",,,,,,0,Instruct,-,-,"You have completed this section. Press ENTER to continue",,"Instruct 5",2231,,,-1,-1,,,,,1
lillian.dennis@hope.edu,58ayunma20,Affordances_Hope,1,10,2022-09-28T15:14:17+00:00,3.5062999725342,19,"updated stim.csv",Version44.csv,"Version 44","List 44",,,,,,0,Instruct,-,-,"You will now start the full experiment. Press ENTER when you are ready to begin.",,,3369,,,-1,-1,,,,,1
lillian.dennis@hope.edu,58ayunma20,Affordances_Hope,1,11,2022-09-28T15:14:34+00:00,17.495187997818,19,"updated stim.csv",Version44.csv,"Version 44","List 44",pillar,,1299,5.041666667,1961,1300,BOI,-,-,"Please name all of the ways you could use this object. Keep in mind that one object can have many uses. Separate your responses with a comma.",,y,17231,,,3471,15094,,,,"support, build",1
lillian.dennis@hope.edu,58ayunma20,Affordances_Hope,1,12,2022-09-28T15:15:12+00:00,37.619152069092,19,"updated stim.csv",Version44.csv,"Version 44","List 44",cow,,1320,5.434782609,671,1321,BOI,-,-,"Please name all of the ways you could use this object. Keep in mind that one object can have many uses. Separate your responses with a comma.",,y,37351,,,2493,33032,,,,"butcher, milk",1
lillian.dennis@hope.edu,58ayunma20,Affordances_Hope,1,13,2022-09-28T15:15:28+00:00,16.119477987289,19,"updated stim.csv",Version44.csv,"Version 44","List 44",pepper,,1298,5.875,1921,1299,BOI,-,-,"Please name all of the ways you could use this object. Keep in mind that one object can have many uses. Separate your responses with a comma.",,y,15821,,,2106,12127,,,,"season, shake, sprinkle",1
lillian.dennis@hope.edu,58ayunma20,Affordances_Hope,1,14,2022-09-28T15:15:55+00:00,26.764456987381,19,"updated stim.csv",Version44.csv,"Version 44","List 44",carpeting,,1297,5.115384615,438,1298,BOI,-,-,"Please name all of the ways you could use this object. Keep in mind that one object can have many uses. Separate your responses with a comma.",,y,26484,,,8870,11212,,,,flooring,1
lillian.dennis@hope.edu,58ayunma20,Affordances_Hope,1,15,2022-09-28T15:16:20+00:00,25.089188098907,19,"updated stim.csv",Version44.csv,"Version 44","List 44",yearbook,,1294,5.56,2992,1295,BOI,-,-,"Please name all of the ways you could use this object. Keep in mind that one object can have many uses. Separate your responses with a comma.",,y,24780,,,4579,21806,,,,"capture memories, reminisce, look back at",1
lillian.dennis@hope.edu,58ayunma20,Affordances_Hope,1,16,2022-09-28T15:16:48+00:00,28.446868896484,19,"updated stim.csv",Version44.csv,"Version 44","List 44",porch,,1313,4.44,2036,1314,BOI,-,-,"Please name all of the ways you could use this object. Keep in mind that one object can have many uses. Separate your responses with a comma.",,y,28176,,,2215,25917,,,,"sit, hang out, have a meal, relax",1
lillian.dennis@hope.edu,58ayunma20,Affordances_Hope,1,17,2022-09-28T15:17:10+00:00,21.689941167831,19,"updated stim.csv",Version44.csv,"Version 44","List 44",residence,,1304,4.333333333,2157,1305,BOI,-,-,"Please name all of the ways you could use this object. Keep in mind that one object can have many uses. Separate your responses with a comma.",,y,21419,,,2615,17043,,,,"live in, sleep in, reside in",1
lillian.dennis@hope.edu,58ayunma20,Affordances_Hope,1,18,2022-09-28T15:17:21+00:00,11.250121831894,19,"updated stim.csv",Version44.csv,"Version 44","List 44",vodka,,1312,5.56,2872,1313,BOI,-,-,"Please name all of the ways you could use this object. Keep in mind that one object can have many uses. Separate your responses with a comma.",,y,10981,,,2081,6716,,,,"drink, shoot, mix",1
lillian.dennis@hope.edu,58ayunma20,Affordances_Hope,1,19,2022-09-28T15:17:38+00:00,17.096812009811,19,"updated stim.csv",Version44.csv,"Version 44","List 44",racehorse,,1292,5.208333333,2118,1293,BOI,-,-,"Please name all of the ways you could use this object. Keep in mind that one object can have many uses. Separate your responses with a comma.",,y,16826,,,1817,15187,,,,"ride, race, win, lose, train",1
lillian.dennis@hope.edu,58ayunma20,Affordances_Hope,1,20,2022-09-28T15:18:14+00:00,35.860663175583,19,"updated stim.csv",Version44.csv,"Version 44","List 44",braid,,1318,5.64,301,1319,BOI,-,-,"Please name all of the ways you could use this object. Keep in mind that one object can have many uses. Separate your responses with a comma.",,y,35583,,,14585,31244,,,,"twist, organize, hold together",1
lillian.dennis@hope.edu,58ayunma20,Affordances_Hope,1,21,2022-09-28T15:18:29+00:00,15.061224937439,19,"updated stim.csv",Version44.csv,"Version 44","List 44",caviar,,1307,4.818181818,468,1308,BOI,-,-,"Please name all of the ways you could use this object. Keep in mind that one object can have many uses. Separate your responses with a comma.",,y,14789,,,5129,13327,,,,"eat, serve, prepare",1
lillian.dennis@hope.edu,58ayunma20,Affordances_Hope,1,22,2022-09-28T15:18:36+00:00,7.0225179195404,19,"updated stim.csv",Version44.csv,"Version 44","List 44",lyre,,1317,4.45,1561,1318,BOI,-,-,"Please name all of the ways you could use this object. Keep in mind that one object can have many uses. Separate your responses with a comma.",,y,6756,,,-1,-1,,,,,1
lillian.dennis@hope.edu,58ayunma20,Affordances_Hope,1,23,2022-09-28T15:18:49+00:00,13.058875083923,19,"updated stim.csv",Version44.csv,"Version 44","List 44",barricade,,1319,4.28,155,1320,BOI,-,-,"Please name all of the ways you could use this object. Keep in mind that one object can have many uses. Separate your responses with a comma.",,y,12790,,,2015,9215,,,,"block, stop, surround",1
lillian.dennis@hope.edu,58ayunma20,Affordances_Hope,1,24,2022-09-28T15:19:06+00:00,17.032937049866,19,"updated stim.csv",Version44.csv,"Version 44","List 44",handbag,,1293,6,1229,1294,BOI,-,-,"Please name all of the ways you could use this object. Keep in mind that one object can have many uses. Separate your responses with a comma.",,y,16752,,,2000,7147,,,,"carry, swing, hold",1
lillian.dennis@hope.edu,58ayunma20,Affordances_Hope,1,25,2022-09-28T15:19:27+00:00,20.504458904266,19,"updated stim.csv",Version44.csv,"Version 44","List 44",newsman,,1310,4.285714286,1759,1311,BOI,-,-,"Please name all of the ways you could use this object. Keep in mind that one object can have many uses. Separate your responses with a comma.",,y,20222,,,11790,17035,,,,"for information",1
lillian.dennis@hope.edu,58ayunma20,Affordances_Hope,1,26,2022-09-28T15:19:43+00:00,16.030143022537,19,"updated stim.csv",Version44.csv,"Version 44","List 44",sauna,,1295,5.363636364,2251,1296,BOI,-,-,"Please name all of the ways you could use this object. Keep in mind that one object can have many uses. Separate your responses with a comma.",,y,15758,,,3010,14531,,,,"relax, open pores, overheat",1
lillian.dennis@hope.edu,58ayunma20,Affordances_Hope,1,27,2022-09-28T15:20:23+00:00,39.868002891541,19,"updated stim.csv",Version44.csv,"Version 44","List 44",cradle,,1306,5.652173913,678,1307,BOI,-,-,"Please name all of the ways you could use this object. Keep in mind that one object can have many uses. Separate your responses with a comma.",,y,39578,,,16304,37585,,,,"to soothe, relax, rock",1
lillian.dennis@hope.edu,58ayunma20,Affordances_Hope,1,28,2022-09-28T15:20:45+00:00,21.87117600441,19,"updated stim.csv",Version44.csv,"Version 44","List 44",beer,,1309,5.791666667,192,1310,BOI,-,-,"Please name all of the ways you could use this object. Keep in mind that one object can have many uses. Separate your responses with a comma.",,y,21591,,,1918,16335,,,,"drink, open",1
lillian.dennis@hope.edu,58ayunma20,Affordances_Hope,1,29,2022-09-28T15:21:10+00:00,25.536545991898,19,"updated stim.csv",Version44.csv,"Version 44","List 44",glassware,,1303,5.964285714,1113,1304,BOI,-,-,"Please name all of the ways you could use this object. Keep in mind that one object can have many uses. Separate your responses with a comma.",,y,25253,,,8339,22706,,,,"as a cup, as a vase, break, smash",1
lillian.dennis@hope.edu,58ayunma20,Affordances_Hope,1,30,2022-09-28T15:21:32+00:00,21.778414011002,19,"updated stim.csv",Version44.csv,"Version 44","List 44",cabin,,1316,4.56,388,1317,BOI,-,-,"Please name all of the ways you could use this object. Keep in mind that one object can have many uses. Separate your responses with a comma.",,y,21507,,,5284,20083,,,,"vacation, retreat",1
lillian.dennis@hope.edu,58ayunma20,Affordances_Hope,1,31,2022-09-28T15:22:11+00:00,38.910380125046,19,"updated stim.csv",Version44.csv,"Version 44","List 44",shortbread,,1314,5.416666667,2356,1315,BOI,-,-,"Please name all of the ways you could use this object. Keep in mind that one object can have many uses. Separate your responses with a comma.",,y,38642,,,8832,32814,,,,"dessert, strawberry shortcake",1
lillian.dennis@hope.edu,58ayunma20,Affordances_Hope,1,32,2022-09-28T15:22:33+00:00,22.220597982407,19,"updated stim.csv",Version44.csv,"Version 44","List 44",footstool,,1311,6.304347826,1039,1312,BOI,-,-,"Please name all of the ways you could use this object. Keep in mind that one object can have many uses. Separate your responses with a comma.",,y,21952,,,2710,18268,,,,"stand on, step on, elevate",1
lillian.dennis@hope.edu,58ayunma20,Affordances_Hope,1,33,2022-09-28T15:23:07+00:00,33.832337856293,19,"updated stim.csv",Version44.csv,"Version 44","List 44",compass,,1308,5.538461538,612,1309,BOI,-,-,"Please name all of the ways you could use this object. Keep in mind that one object can have many uses. Separate your responses with a comma.",,y,33560,,,4744,32338,,,,"get directions, orient oneself",1
lillian.dennis@hope.edu,58ayunma20,Affordances_Hope,1,34,2022-09-28T15:23:22+00:00,14.5264980793,19,"updated stim.csv",Version44.csv,"Version 44","List 44",oregano,,1302,5.64,1819,1303,BOI,-,-,"Please name all of the ways you could use this object. Keep in mind that one object can have many uses. Separate your responses with a comma.",,y,14256,,,2004,4601,,,,season,1
lillian.dennis@hope.edu,58ayunma20,Affordances_Hope,1,35,2022-09-28T15:23:48+00:00,26.401202917099,19,"updated stim.csv",Version44.csv,"Version 44","List 44",pliers,,1300,6.086956522,2007,1301,BOI,-,-,"Please name all of the ways you could use this object. Keep in mind that one object can have many uses. Separate your responses with a comma.",,y,26139,,,2870,23566,,,,"tweeze, pick, prod, pull, twist",1
lillian.dennis@hope.edu,58ayunma20,Affordances_Hope,1,36,2022-09-28T15:24:10+00:00,21.617962121964,19,"updated stim.csv",Version44.csv,"Version 44","List 44",headdress,,1305,5.541666667,1265,1306,BOI,-,-,"Please name all of the ways you could use this object. Keep in mind that one object can have many uses. Separate your responses with a comma.",,y,21149,,,2881,20150,,,,"decorate, contain hair",1
lillian.dennis@hope.edu,58ayunma20,Affordances_Hope,1,37,2022-09-28T15:24:17+00:00,7.4972190856934,19,"updated stim.csv",Version44.csv,"Version 44","List 44",cellophane,,1315,4.703703704,475,1316,BOI,-,-,"Please name all of the ways you could use this object. Keep in mind that one object can have many uses. Separate your responses with a comma.",,y,7012,,,-1,-1,,,,,1
lillian.dennis@hope.edu,58ayunma20,Affordances_Hope,1,38,2022-09-28T15:24:30+00:00,13.011505842209,19,"updated stim.csv",Version44.csv,"Version 44","List 44",extinguisher,,1296,5.043478261,928,1297,BOI,-,-,"Please name all of the ways you could use this object. Keep in mind that one object can have many uses. Separate your responses with a comma.",,y,12734,,,1962,6260,,,,"extinguish a fire",1
lillian.dennis@hope.edu,58ayunma20,Affordances_Hope,1,39,2022-09-28T15:25:03+00:00,33.181787967682,19,"updated stim.csv",Version44.csv,"Version 44","List 44",divorcee,,1301,4.5,807,1302,BOI,-,-,"Please name all of the ways you could use this object. Keep in mind that one object can have many uses. Separate your responses with a comma.",,y,32906,,,-1,-1,,,,,1
lillian.dennis@hope.edu,58ayunma20,Affordances_Hope,1,40,2022-09-28T15:25:20+00:00,16.286207199097,19,"updated stim.csv",Version44.csv,"Version 44","List 44",watermelon,,1291,5.869565217,2911,1292,BOI,-,-,"Please name all of the ways you could use this object. Keep in mind that one object can have many uses. Separate your responses with a comma.",,y,16004,,,1425,8338,,,,"eat, cut, grow, harvest",1
lillian.dennis@hope.edu,58ayunma20,Affordances_Hope,1,41,2022-09-28T15:25:22+00:00,2.8253569602966,19,"updated stim.csv",Version44.csv,"Version 44","List 44",,,,,,0,Instruct,,,"You will now be asked a few questions about your experience today.",,"Instruct 4",2656,,,-1,-1,,,,,1
