Username,ID,ExperimentName,Session,Trial,Date,TimeDif,"Condition Number","Stimuli File","Order File","Condition Description","Condition Notes",Stimuli*Cue,Stimuli*Answer,Stimuli*Shuffle,"Stimuli*Stimuli Notes",Stimuli*Value,Procedure*Item,"Procedure*Trial Type","Procedure*Max Time","Procedure*Min Time",Procedure*Text,"Procedure*Procedure Notes",Procedure*Shuffle,Response*RT,Response*Response,Response*Accuracy,Response*RTfirst,Response*RTlast,Response*strictAcc,Response*lenientAcc,Response*focus,Response*JOL,Response*Focus
kylie.billeter@hope.edu,y4ntszn7yh,Affordances_Hope,1,1,2022-09-29T15:56:45+00:00,13.976166009903,24,"updated stim.csv",Version49.csv,"Version 49","List 49",,,,,,0,Instruct,-,10,"In this section, you will be presented with a series of objects. Please name as many possible uses for this object as you can think of by typing them in the box below each object.",,Instruct1,11924,,,-1,-1,,,,,1
kylie.billeter@hope.edu,y4ntszn7yh,Affordances_Hope,1,2,2022-09-29T15:56:57+00:00,12.040750980377,24,"updated stim.csv",Version49.csv,"Version 49","List 49",,,,,,0,Instruct,-,10,"Please keep in mind that a single object will have more than one use. For example, a ball can be thrown or can be bounced or even stepped on. When listing multiple uses for one object, please separate each use with a comma (i.e., thrown, bounced, stepped on)",,Instruct2,11888,,,-1,-1,,,,,1
kylie.billeter@hope.edu,y4ntszn7yh,Affordances_Hope,1,3,2022-09-29T15:57:03+00:00,6.1648461818695,24,"updated stim.csv",Version49.csv,"Version 49","List 49",,,,,,0,Instruct,-,-,"Before starting the experiment, you will complete a short practice sesstion. Press ENTER when you are ready to begin.",,Instruct3,6019,,,-1,-1,,,,,1
kylie.billeter@hope.edu,y4ntszn7yh,Affordances_Hope,1,4,2022-09-29T15:57:18+00:00,14.780073881149,24,"updated stim.csv",Version49.csv,"Version 49","List 49",spaghetti,,3003,6,2461,3004,BOI,-,-,"Please name all of the ways you could use this object. Keep in mind that one object can have many uses. Separate your responses with a comma.",,n,14644,,,4683,13546,,,,"eaten, cooked, boiled",1
kylie.billeter@hope.edu,y4ntszn7yh,Affordances_Hope,1,5,2022-09-29T15:57:29+00:00,11.480550050735,24,"updated stim.csv",Version49.csv,"Version 49","List 49",paperwork,,3001,5.625,1866,3002,BOI,-,-,"Please name all of the ways you could use this object. Keep in mind that one object can have many uses. Separate your responses with a comma.",,n,11334,,,1984,11132,,,,"filed, shredded, stapled",1
kylie.billeter@hope.edu,y4ntszn7yh,Affordances_Hope,1,6,2022-09-29T15:57:46+00:00,16.752291917801,24,"updated stim.csv",Version49.csv,"Version 49","List 49",shortening,,3002,4.92,2358,3003,BOI,-,-,"Please name all of the ways you could use this object. Keep in mind that one object can have many uses. Separate your responses with a comma.",,n,16604,,,5698,16200,,,,"baking, cooking",1
kylie.billeter@hope.edu,y4ntszn7yh,Affordances_Hope,1,7,2022-09-29T15:58:03+00:00,16.853176116943,24,"updated stim.csv",Version49.csv,"Version 49","List 49",grain,,3004,5.217391304,1143,3005,BOI,-,-,"Please name all of the ways you could use this object. Keep in mind that one object can have many uses. Separate your responses with a comma.",,n,16690,,,1659,15934,,,,"milled, planted, feed",1
kylie.billeter@hope.edu,y4ntszn7yh,Affordances_Hope,1,8,2022-09-29T15:58:32+00:00,28.725800991058,24,"updated stim.csv",Version49.csv,"Version 49","List 49",saucer,,3005,5.777777778,2249,3006,BOI,-,-,"Please name all of the ways you could use this object. Keep in mind that one object can have many uses. Separate your responses with a comma.",,n,28482,,,13241,28204,,,,"hold tea cups, bread",1
kylie.billeter@hope.edu,y4ntszn7yh,Affordances_Hope,1,9,2022-09-29T15:58:33+00:00,1.3246350288391,24,"updated stim.csv",Version49.csv,"Version 49","List 49",,,,,,0,Instruct,-,-,"You have completed this section. Press ENTER to continue",,"Instruct 5",1174,,,-1,-1,,,,,1
kylie.billeter@hope.edu,y4ntszn7yh,Affordances_Hope,1,10,2022-09-29T15:58:36+00:00,2.7349078655243,24,"updated stim.csv",Version49.csv,"Version 49","List 49",,,,,,0,Instruct,-,-,"You will now start the full experiment. Press ENTER when you are ready to begin.",,,2602,,,-1,-1,,,,,1
kylie.billeter@hope.edu,y4ntszn7yh,Affordances_Hope,1,11,2022-09-29T15:59:16+00:00,40.079723119736,24,"updated stim.csv",Version49.csv,"Version 49","List 49",Food,,1459,6.470350404,1027,1460,BOI,-,-,"Please name all of the ways you could use this object. Keep in mind that one object can have many uses. Separate your responses with a comma.",,y,39844,,,1664,35274,,,,"eaten, stored, shared",1
kylie.billeter@hope.edu,y4ntszn7yh,Affordances_Hope,1,12,2022-09-29T16:00:13+00:00,56.899320840836,24,"updated stim.csv",Version49.csv,"Version 49","List 49",abdomen,,1456,5.434782609,2,1457,BOI,-,-,"Please name all of the ways you could use this object. Keep in mind that one object can have many uses. Separate your responses with a comma.",,y,56651,,,8536,14417,,,,"contains organs, ",1
kylie.billeter@hope.edu,y4ntszn7yh,Affordances_Hope,1,13,2022-09-29T16:00:34+00:00,21.549733161926,24,"updated stim.csv",Version49.csv,"Version 49","List 49",eyedrop,,1442,5.48,932,1443,BOI,-,-,"Please name all of the ways you could use this object. Keep in mind that one object can have many uses. Separate your responses with a comma.",,y,21311,,,5937,20813,,,,"lubricate eyes, treat infections",1
kylie.billeter@hope.edu,y4ntszn7yh,Affordances_Hope,1,14,2022-09-29T16:00:56+00:00,21.404098033905,24,"updated stim.csv",Version49.csv,"Version 49","List 49",gavel,,1463,4.545454545,1089,1464,BOI,-,-,"Please name all of the ways you could use this object. Keep in mind that one object can have many uses. Separate your responses with a comma.",,y,21163,,,3327,20090,,,,"pave roads, line driveways, fill in potholes",1
kylie.billeter@hope.edu,y4ntszn7yh,Affordances_Hope,1,15,2022-09-29T16:01:33+00:00,37.43204498291,24,"updated stim.csv",Version49.csv,"Version 49","List 49",opium,,1441,4.269230769,1812,1442,BOI,-,-,"Please name all of the ways you could use this object. Keep in mind that one object can have many uses. Separate your responses with a comma.",,y,37188,,,5109,29045,,,,"medication, illicit drug",1
kylie.billeter@hope.edu,y4ntszn7yh,Affordances_Hope,1,16,2022-09-29T16:02:05+00:00,32.058357954025,24,"updated stim.csv",Version49.csv,"Version 49","List 49",icing,,1460,4.76,1348,1461,BOI,-,-,"Please name all of the ways you could use this object. Keep in mind that one object can have many uses. Separate your responses with a comma.",,y,30928,,,2529,30588,,,,"frost cakes, decorate cakes, treat low blood sugar symptoms",1
kylie.billeter@hope.edu,y4ntszn7yh,Affordances_Hope,1,17,2022-09-29T16:02:34+00:00,28.899734020233,24,"updated stim.csv",Version49.csv,"Version 49","List 49",pillowcase,,1453,5.92,1963,1454,BOI,-,-,"Please name all of the ways you could use this object. Keep in mind that one object can have many uses. Separate your responses with a comma.",,y,28594,,,4483,23071,,,,"hold Halloween candy, protect pillows",1
kylie.billeter@hope.edu,y4ntszn7yh,Affordances_Hope,1,18,2022-09-29T16:03:10+00:00,36.329082965851,24,"updated stim.csv",Version49.csv,"Version 49","List 49",pushcart,,1470,5.272727273,2106,1471,BOI,-,-,"Please name all of the ways you could use this object. Keep in mind that one object can have many uses. Separate your responses with a comma.",,y,36050,,,3698,9663,,,,"hold groceries, ",1
kylie.billeter@hope.edu,y4ntszn7yh,Affordances_Hope,1,19,2022-09-29T16:03:50+00:00,39.410430908203,24,"updated stim.csv",Version49.csv,"Version 49","List 49",boathouse,,1469,4.52173913,256,1470,BOI,-,-,"Please name all of the ways you could use this object. Keep in mind that one object can have many uses. Separate your responses with a comma.",,y,39145,,,4313,19351,,,,"vacation, ",1
kylie.billeter@hope.edu,y4ntszn7yh,Affordances_Hope,1,20,2022-09-29T16:04:48+00:00,58.489567041397,24,"updated stim.csv",Version49.csv,"Version 49","List 49",washstand,,1446,4.652173913,2902,1447,BOI,-,-,"Please name all of the ways you could use this object. Keep in mind that one object can have many uses. Separate your responses with a comma.",,y,58221,,,4311,7003,,,,"washing things, ",1
kylie.billeter@hope.edu,y4ntszn7yh,Affordances_Hope,1,21,2022-09-29T16:05:24+00:00,35.346050977707,24,"updated stim.csv",Version49.csv,"Version 49","List 49",sneaker,,1443,6.48,2427,1444,BOI,-,-,"Please name all of the ways you could use this object. Keep in mind that one object can have many uses. Separate your responses with a comma.",,y,35072,,,2803,30605,,,,"protect feet, style symbol, decorations ",1
kylie.billeter@hope.edu,y4ntszn7yh,Affordances_Hope,1,22,2022-09-29T16:06:04+00:00,40.316926002502,24,"updated stim.csv",Version49.csv,"Version 49","List 49",thumb,,1465,6.357142857,2687,1466,BOI,-,-,"Please name all of the ways you could use this object. Keep in mind that one object can have many uses. Separate your responses with a comma.",,y,40055,,,3053,39741,,,,"texting, holding objects, typing on a computer",1
kylie.billeter@hope.edu,y4ntszn7yh,Affordances_Hope,1,23,2022-09-29T16:06:13+00:00,8.749125957489,24,"updated stim.csv",Version49.csv,"Version 49","List 49",absinthe,,1468,4.590909091,3,1469,BOI,-,-,"Please name all of the ways you could use this object. Keep in mind that one object can have many uses. Separate your responses with a comma.",,y,8579,,,-1,-1,,,,,1
kylie.billeter@hope.edu,y4ntszn7yh,Affordances_Hope,1,24,2022-09-29T16:06:33+00:00,20.071415185928,24,"updated stim.csv",Version49.csv,"Version 49","List 49",tugboat,,1457,4.555555556,2793,1458,BOI,-,-,"Please name all of the ways you could use this object. Keep in mind that one object can have many uses. Separate your responses with a comma.",,y,19909,,,3027,18210,,,,"towing in larger boats, storybook",1
kylie.billeter@hope.edu,y4ntszn7yh,Affordances_Hope,1,25,2022-09-29T16:07:13+00:00,39.94969201088,24,"updated stim.csv",Version49.csv,"Version 49","List 49",sweetener,,1449,5.2,2606,1450,BOI,-,-,"Please name all of the ways you could use this object. Keep in mind that one object can have many uses. Separate your responses with a comma.",,y,39691,,,5857,37206,,,,"sweeten coffee or tea, Ariana Grande album",1
kylie.billeter@hope.edu,y4ntszn7yh,Affordances_Hope,1,26,2022-09-29T16:08:13+00:00,60.433460950851,24,"updated stim.csv",Version49.csv,"Version 49","List 49",finger,,1461,6,977,1462,BOI,-,-,"Please name all of the ways you could use this object. Keep in mind that one object can have many uses. Separate your responses with a comma.",,y,59276,,,4587,59051,,,,"typing, holding things, writing",1
kylie.billeter@hope.edu,y4ntszn7yh,Affordances_Hope,1,27,2022-09-29T16:08:53+00:00,40.127389907837,24,"updated stim.csv",Version49.csv,"Version 49","List 49",Leaf,,1450,5.584345479,1477,1451,BOI,-,-,"Please name all of the ways you could use this object. Keep in mind that one object can have many uses. Separate your responses with a comma.",,y,39855,,,1886,31750,,,,"provide shade, help trees breathe, change colors in the fall",1
kylie.billeter@hope.edu,y4ntszn7yh,Affordances_Hope,1,28,2022-09-29T16:09:44+00:00,50.331120967865,24,"updated stim.csv",Version49.csv,"Version 49","List 49",latrine,,1458,6.333333333,1471,1459,BOI,-,-,"Please name all of the ways you could use this object. Keep in mind that one object can have many uses. Separate your responses with a comma.",,y,50052,,,35958,41329,,,,"bathroom, ",1
kylie.billeter@hope.edu,y4ntszn7yh,Affordances_Hope,1,29,2022-09-29T16:11:15+00:00,91.775752067566,24,"updated stim.csv",Version49.csv,"Version 49","List 49",lady,,1448,5.32,1449,1449,BOI,-,-,"Please name all of the ways you could use this object. Keep in mind that one object can have many uses. Separate your responses with a comma.",,y,91505,,,52880,68411,,,,"nurturers, leaders, ",1
kylie.billeter@hope.edu,y4ntszn7yh,Affordances_Hope,1,30,2022-09-29T16:12:50+00:00,94.320947885513,24,"updated stim.csv",Version49.csv,"Version 49","List 49",maple,,1455,4.32,1601,1456,BOI,-,-,"Please name all of the ways you could use this object. Keep in mind that one object can have many uses. Separate your responses with a comma.",,y,94051,,,1804,93575,,,,"syrup, trees, leaves, clean the air",1
kylie.billeter@hope.edu,y4ntszn7yh,Affordances_Hope,1,31,2022-09-29T16:13:07+00:00,17.063125133514,24,"updated stim.csv",Version49.csv,"Version 49","List 49",neckwear,,1466,5.652173913,1743,1467,BOI,-,-,"Please name all of the ways you could use this object. Keep in mind that one object can have many uses. Separate your responses with a comma.",,y,15245,,,5429,14381,,,,decorationg(jewlery,1
kylie.billeter@hope.edu,y4ntszn7yh,Affordances_Hope,1,32,2022-09-29T16:13:18+00:00,11.722650051117,24,"updated stim.csv",Version49.csv,"Version 49","List 49",scissor,,1467,6.173913043,2275,1468,BOI,-,-,"Please name all of the ways you could use this object. Keep in mind that one object can have many uses. Separate your responses with a comma.",,y,11551,,,4726,6257,,,,"cutting, ",1
kylie.billeter@hope.edu,y4ntszn7yh,Affordances_Hope,1,33,2022-09-29T16:13:36+00:00,17.167519807816,24,"updated stim.csv",Version49.csv,"Version 49","List 49",fixture,,1451,5,994,1452,BOI,-,-,"Please name all of the ways you could use this object. Keep in mind that one object can have many uses. Separate your responses with a comma.",,y,16992,,,3182,12109,,,,"lighting, lamps, ",1
kylie.billeter@hope.edu,y4ntszn7yh,Affordances_Hope,1,34,2022-09-29T16:16:22+00:00,165.9879732132,24,"updated stim.csv",Version49.csv,"Version 49","List 49",wounds,,1464,4.391304348,2977,1465,BOI,-,-,"Please name all of the ways you could use this object. Keep in mind that one object can have many uses. Separate your responses with a comma.",,y,165712,,,34364,164683,,,,"healing, prevent infection, improve immunity",1
kylie.billeter@hope.edu,y4ntszn7yh,Affordances_Hope,1,35,2022-09-29T16:17:02+00:00,40.520445823669,24,"updated stim.csv",Version49.csv,"Version 49","List 49",stomp,,1444,4.321428571,2544,1445,BOI,-,-,"Please name all of the ways you could use this object. Keep in mind that one object can have many uses. Separate your responses with a comma.",,y,40252,,,6045,39105,,,,"diffuse anger, body language perception",1
kylie.billeter@hope.edu,y4ntszn7yh,Affordances_Hope,1,36,2022-09-29T16:18:29+00:00,86.781319141388,24,"updated stim.csv",Version49.csv,"Version 49","List 49",staff,,1454,4.928571429,2496,1455,BOI,-,-,"Please name all of the ways you could use this object. Keep in mind that one object can have many uses. Separate your responses with a comma.",,y,86514,,,3007,60093,,,,"help run certain places, provide specific services, ",1
kylie.billeter@hope.edu,y4ntszn7yh,Affordances_Hope,1,37,2022-09-29T16:19:01+00:00,32.540643930435,24,"updated stim.csv",Version49.csv,"Version 49","List 49",doghouse,,1445,5.076923077,813,1446,BOI,-,-,"Please name all of the ways you could use this object. Keep in mind that one object can have many uses. Separate your responses with a comma.",,y,31379,,,6328,24830,,,,"protect dogs, give pets their own space",1
kylie.billeter@hope.edu,y4ntszn7yh,Affordances_Hope,1,38,2022-09-29T16:19:24+00:00,22.801115036011,24,"updated stim.csv",Version49.csv,"Version 49","List 49",lawyer,,1452,4.625,1475,1453,BOI,-,-,"Please name all of the ways you could use this object. Keep in mind that one object can have many uses. Separate your responses with a comma.",,y,22533,,,4017,22226,,,,"defend their clients, help people get settlements they deserve",1
kylie.billeter@hope.edu,y4ntszn7yh,Affordances_Hope,1,39,2022-09-29T16:21:01+00:00,97.143869876862,24,"updated stim.csv",Version49.csv,"Version 49","List 49",lobe,,1447,4.47826087,1533,1448,BOI,-,-,"Please name all of the ways you could use this object. Keep in mind that one object can have many uses. Separate your responses with a comma.",,y,96875,,,52044,91901,,,,"lobes of the brain, extra part on the external ear, ",1
kylie.billeter@hope.edu,y4ntszn7yh,Affordances_Hope,1,40,2022-09-29T16:21:43+00:00,41.74788403511,24,"updated stim.csv",Version49.csv,"Version 49","List 49",soles,,1462,4.913043478,2447,1463,BOI,-,-,"Please name all of the ways you could use this object. Keep in mind that one object can have many uses. Separate your responses with a comma.",,y,41441,,,29591,39691,,,,"make shoes comfortable, ",1
kylie.billeter@hope.edu,y4ntszn7yh,Affordances_Hope,1,41,2022-09-29T16:21:46+00:00,2.6471071243286,24,"updated stim.csv",Version49.csv,"Version 49","List 49",,,,,,0,Instruct,,,"You will now be asked a few questions about your experience today.",,"Instruct 4",2467,,,-1,-1,,,,,1
