Username,ID,Trial,Question,Type,RT,Response
j00670955,acfj4mex3w,1,"Did the experiment go smoothly or were there problems? (Note: Your compensation will not depend on your answer below, so please be honest.)!!!",Radio,2364,Smooth
j00670955,acfj4mex3w,2,"Have you participated in this experiment (or another experiment using the same learning materials) before?",Radio,4176,Naive
j00670955,acfj4mex3w,3,"How much fun was this experiment? <p>1 being very fun -- 7 being the MOST FUN EVER</p>",Likert,3054,7
j00670955,acfj4mex3w,4,"Were you doing anything else while this experiment was going on? You will get credit no matter how you respond here.",Text,6704,no
j00670955,acfj4mex3w,5,"Which of the following problems did you have?",Checkbox,6867,none
J00721876_ago,nd32o4rgm8,1,"Did the experiment go smoothly or were there problems? (Note: Your compensation will not depend on your answer below, so please be honest.)!!!",Radio,3975,Smooth
J00721876_ago,nd32o4rgm8,2,"Have you participated in this experiment (or another experiment using the same learning materials) before?",Radio,4175,Naive
J00721876_ago,nd32o4rgm8,3,"How much fun was this experiment? <p>1 being very fun -- 7 being the MOST FUN EVER</p>",Likert,4372,7
J00721876_ago,nd32o4rgm8,4,"Were you doing anything else while this experiment was going on? You will get credit no matter how you respond here.",Text,6410,No
J00721876_ago,nd32o4rgm8,5,"Which of the following problems did you have?",Checkbox,3921,none
J00709304_CJP,t0uel0fps6,1,"Did the experiment go smoothly or were there problems? (Note: Your compensation will not depend on your answer below, so please be honest.)!!!",Radio,9082,Smooth
J00709304_CJP,t0uel0fps6,2,"Have you participated in this experiment (or another experiment using the same learning materials) before?",Radio,5410,Naive
J00709304_CJP,t0uel0fps6,3,"How much fun was this experiment? <p>1 being very fun -- 7 being the MOST FUN EVER</p>",Likert,3165,5
J00709304_CJP,t0uel0fps6,4,"Were you doing anything else while this experiment was going on? You will get credit no matter how you respond here.",Text,6251,No
J00709304_CJP,t0uel0fps6,5,"Which of the following problems did you have?",Checkbox,7376,none
J00715408sgr,n7czfm84af,1,"Did the experiment go smoothly or were there problems? (Note: Your compensation will not depend on your answer below, so please be honest.)!!!",Radio,4692,Smooth
J00715408sgr,n7czfm84af,2,"Have you participated in this experiment (or another experiment using the same learning materials) before?",Radio,3729,Naive
J00715408sgr,n7czfm84af,3,"How much fun was this experiment? <p>1 being very fun -- 7 being the MOST FUN EVER</p>",Likert,8547,4
J00715408sgr,n7czfm84af,4,"Were you doing anything else while this experiment was going on? You will get credit no matter how you respond here.",Text,7945,no
J00715408sgr,n7czfm84af,5,"Which of the following problems did you have?",Checkbox,3800,none
J00716950ML,ojx7qxvzxc,1,"Did the experiment go smoothly or were there problems? (Note: Your compensation will not depend on your answer below, so please be honest.)!!!",Radio,34444,Smooth
J00716950ML,ojx7qxvzxc,2,"Have you participated in this experiment (or another experiment using the same learning materials) before?",Radio,7723,Naive
J00716950ML,ojx7qxvzxc,3,"How much fun was this experiment? <p>1 being very fun -- 7 being the MOST FUN EVER</p>",Likert,6745,3
J00716950ML,ojx7qxvzxc,4,"Were you doing anything else while this experiment was going on? You will get credit no matter how you respond here.",Text,11284,"yes, i was sketching "
J00716950ML,ojx7qxvzxc,5,"Which of the following problems did you have?",Checkbox,5066,none
J00709146VLW,mj6ts8jq6r,1,"Did the experiment go smoothly or were there problems? (Note: Your compensation will not depend on your answer below, so please be honest.)!!!",Radio,9017,Smooth
J00709146VLW,mj6ts8jq6r,2,"Have you participated in this experiment (or another experiment using the same learning materials) before?",Radio,5532,Naive
J00709146VLW,mj6ts8jq6r,3,"How much fun was this experiment? <p>1 being very fun -- 7 being the MOST FUN EVER</p>",Likert,4027,4
J00709146VLW,mj6ts8jq6r,4,"Were you doing anything else while this experiment was going on? You will get credit no matter how you respond here.",Text,5536,"in class"
J00709146VLW,mj6ts8jq6r,5,"Which of the following problems did you have?",Checkbox,5353,none
J00706165CBC,xeza5t6hzo,1,"Did the experiment go smoothly or were there problems? (Note: Your compensation will not depend on your answer below, so please be honest.)!!!",Radio,4017,Smooth
J00706165CBC,xeza5t6hzo,2,"Have you participated in this experiment (or another experiment using the same learning materials) before?",Radio,2529,Naive
J00706165CBC,xeza5t6hzo,3,"How much fun was this experiment? <p>1 being very fun -- 7 being the MOST FUN EVER</p>",Likert,7873,4
J00706165CBC,xeza5t6hzo,4,"Were you doing anything else while this experiment was going on? You will get credit no matter how you respond here.",Text,3806,no
J00706165CBC,xeza5t6hzo,5,"Which of the following problems did you have?",Checkbox,4104,none
J00716231_tra,b1oay82kwa,1,"Did the experiment go smoothly or were there problems? (Note: Your compensation will not depend on your answer below, so please be honest.)!!!",Radio,6856,Smooth
J00716231_tra,b1oay82kwa,2,"Have you participated in this experiment (or another experiment using the same learning materials) before?",Radio,9611,Naive
J00716231_tra,b1oay82kwa,3,"How much fun was this experiment? <p>1 being very fun -- 7 being the MOST FUN EVER</p>",Likert,5532,3
J00716231_tra,b1oay82kwa,4,"Were you doing anything else while this experiment was going on? You will get credit no matter how you respond here.",Text,20623,"listening to a lecture"
J00716231_tra,b1oay82kwa,5,"Which of the following problems did you have?",Checkbox,6188,none
J00715603_cmh,qmbcivt7q1,1,"Did the experiment go smoothly or were there problems? (Note: Your compensation will not depend on your answer below, so please be honest.)!!!",Radio,5076,Smooth
J00715603_cmh,qmbcivt7q1,2,"Have you participated in this experiment (or another experiment using the same learning materials) before?",Radio,6963,Naive
J00715603_cmh,qmbcivt7q1,3,"How much fun was this experiment? <p>1 being very fun -- 7 being the MOST FUN EVER</p>",Likert,12926,7
J00715603_cmh,qmbcivt7q1,4,"Were you doing anything else while this experiment was going on? You will get credit no matter how you respond here.",Text,8947,no
J00715603_cmh,qmbcivt7q1,5,"Which of the following problems did you have?",Checkbox,5380,none
J00656083_acs,5xfkktlb5o,1,"Did the experiment go smoothly or were there problems? (Note: Your compensation will not depend on your answer below, so please be honest.)!!!",Radio,9816,Smooth
J00656083_acs,5xfkktlb5o,2,"Have you participated in this experiment (or another experiment using the same learning materials) before?",Radio,6139,DoneItBefore
J00656083_acs,5xfkktlb5o,3,"How much fun was this experiment? <p>1 being very fun -- 7 being the MOST FUN EVER</p>",Likert,3397,4
J00656083_acs,5xfkktlb5o,4,"Were you doing anything else while this experiment was going on? You will get credit no matter how you respond here.",Text,6953,"Nope, just it"
J00656083_acs,5xfkktlb5o,5,"Which of the following problems did you have?",Checkbox,7869,none
J00713089,d3vg74zy3x,1,"Did the experiment go smoothly or were there problems? (Note: Your compensation will not depend on your answer below, so please be honest.)!!!",Radio,5211,Smooth
J00713089,d3vg74zy3x,2,"Have you participated in this experiment (or another experiment using the same learning materials) before?",Radio,5716,Naive
J00713089,d3vg74zy3x,3,"How much fun was this experiment? <p>1 being very fun -- 7 being the MOST FUN EVER</p>",Likert,14562,5
J00713089,d3vg74zy3x,4,"Were you doing anything else while this experiment was going on? You will get credit no matter how you respond here.",Text,29078,"I was brainstorming with a friend"
J00713089,d3vg74zy3x,5,"Which of the following problems did you have?",Checkbox,16837,none
j00710885_daw,7fc8cak5z8,1,"Did the experiment go smoothly or were there problems? (Note: Your compensation will not depend on your answer below, so please be honest.)!!!",Radio,9213,Smooth
j00710885_daw,7fc8cak5z8,2,"Have you participated in this experiment (or another experiment using the same learning materials) before?",Radio,5445,Naive
j00710885_daw,7fc8cak5z8,3,"How much fun was this experiment? <p>1 being very fun -- 7 being the MOST FUN EVER</p>",Likert,5884,6
j00710885_daw,7fc8cak5z8,4,"Were you doing anything else while this experiment was going on? You will get credit no matter how you respond here.",Text,8098,no
j00710885_daw,7fc8cak5z8,5,"Which of the following problems did you have?",Checkbox,7445,none
J00706801TB,gmlsy5spcs,1,"Did the experiment go smoothly or were there problems? (Note: Your compensation will not depend on your answer below, so please be honest.)!!!",Radio,3083,Smooth
J00706801TB,gmlsy5spcs,2,"Have you participated in this experiment (or another experiment using the same learning materials) before?",Radio,2591,Naive
J00706801TB,gmlsy5spcs,3,"How much fun was this experiment? <p>1 being very fun -- 7 being the MOST FUN EVER</p>",Likert,2277,1
J00706801TB,gmlsy5spcs,4,"Were you doing anything else while this experiment was going on? You will get credit no matter how you respond here.",Text,1905,
J00706801TB,gmlsy5spcs,5,"Which of the following problems did you have?",Checkbox,3556,reload
J00714995_LLT,tuv18tsjam,1,"Did the experiment go smoothly or were there problems? (Note: Your compensation will not depend on your answer below, so please be honest.)!!!",Radio,11828,Smooth
J00714995_LLT,tuv18tsjam,2,"Have you participated in this experiment (or another experiment using the same learning materials) before?",Radio,5667,Naive
J00714995_LLT,tuv18tsjam,3,"How much fun was this experiment? <p>1 being very fun -- 7 being the MOST FUN EVER</p>",Likert,5980,4
J00714995_LLT,tuv18tsjam,4,"Were you doing anything else while this experiment was going on? You will get credit no matter how you respond here.",Text,17918,"tv was playing but my focus was on the experiment"
J00714995_LLT,tuv18tsjam,5,"Which of the following problems did you have?",Checkbox,8845,none
J00693214_msk,hybcxdgiyw,1,"Did the experiment go smoothly or were there problems? (Note: Your compensation will not depend on your answer below, so please be honest.)!!!",Radio,8554,MinorBumps
J00693214_msk,hybcxdgiyw,2,"Have you participated in this experiment (or another experiment using the same learning materials) before?",Radio,4772,Naive
J00693214_msk,hybcxdgiyw,3,"How much fun was this experiment? <p>1 being very fun -- 7 being the MOST FUN EVER</p>",Likert,12253,5
J00693214_msk,hybcxdgiyw,4,"Were you doing anything else while this experiment was going on? You will get credit no matter how you respond here.",Text,18407,no
J00693214_msk,hybcxdgiyw,5,"Which of the following problems did you have?",Checkbox,7935,none
J00719933KK,ld6k7bg0mi,1,"Did the experiment go smoothly or were there problems? (Note: Your compensation will not depend on your answer below, so please be honest.)!!!",Radio,2988,Smooth
J00719933KK,ld6k7bg0mi,2,"Have you participated in this experiment (or another experiment using the same learning materials) before?",Radio,3415,Naive
J00719933KK,ld6k7bg0mi,3,"How much fun was this experiment? <p>1 being very fun -- 7 being the MOST FUN EVER</p>",Likert,6839,5
J00719933KK,ld6k7bg0mi,4,"Were you doing anything else while this experiment was going on? You will get credit no matter how you respond here.",Text,7609,no
J00719933KK,ld6k7bg0mi,5,"Which of the following problems did you have?",Checkbox,20150,none
J00705819_aeh,m8m6stagld,1,"Did the experiment go smoothly or were there problems? (Note: Your compensation will not depend on your answer below, so please be honest.)!!!",Radio,2952,Smooth
J00705819_aeh,m8m6stagld,2,"Have you participated in this experiment (or another experiment using the same learning materials) before?",Radio,5696,Naive
J00705819_aeh,m8m6stagld,3,"How much fun was this experiment? <p>1 being very fun -- 7 being the MOST FUN EVER</p>",Likert,6262,3
J00705819_aeh,m8m6stagld,4,"Were you doing anything else while this experiment was going on? You will get credit no matter how you respond here.",Text,4420,No
J00705819_aeh,m8m6stagld,5,"Which of the following problems did you have?",Checkbox,4504,none
J00691273ARB,mg305811wp,1,"Did the experiment go smoothly or were there problems? (Note: Your compensation will not depend on your answer below, so please be honest.)!!!",Radio,12935,MinorBumps
J00691273ARB,mg305811wp,2,"Have you participated in this experiment (or another experiment using the same learning materials) before?",Radio,5553,Naive
J00691273ARB,mg305811wp,3,"How much fun was this experiment? <p>1 being very fun -- 7 being the MOST FUN EVER</p>",Likert,6804,4
J00691273ARB,mg305811wp,4,"Were you doing anything else while this experiment was going on? You will get credit no matter how you respond here.",Text,10135,no
J00691273ARB,mg305811wp,5,"Which of the following problems did you have?",Checkbox,7762,"internet connectivity problems"
j00712704hp,7za5lo38wi,1,"Did the experiment go smoothly or were there problems? (Note: Your compensation will not depend on your answer below, so please be honest.)!!!",Radio,2972,Smooth
j00712704hp,7za5lo38wi,2,"Have you participated in this experiment (or another experiment using the same learning materials) before?",Radio,7548,Naive
j00712704hp,7za5lo38wi,3,"How much fun was this experiment? <p>1 being very fun -- 7 being the MOST FUN EVER</p>",Likert,13492,4
j00712704hp,7za5lo38wi,4,"Were you doing anything else while this experiment was going on? You will get credit no matter how you respond here.",Text,14753,"I was sitting in class "
j00712704hp,7za5lo38wi,5,"Which of the following problems did you have?",Checkbox,7764,none
J00709713_MT,r0x364u4ka,1,"Did the experiment go smoothly or were there problems? (Note: Your compensation will not depend on your answer below, so please be honest.)!!!",Radio,9825,Smooth
J00709713_MT,r0x364u4ka,2,"Have you participated in this experiment (or another experiment using the same learning materials) before?",Radio,3718,Naive
J00709713_MT,r0x364u4ka,3,"How much fun was this experiment? <p>1 being very fun -- 7 being the MOST FUN EVER</p>",Likert,5366,5
J00709713_MT,r0x364u4ka,4,"Were you doing anything else while this experiment was going on? You will get credit no matter how you respond here.",Text,11900,nope
J00709713_MT,r0x364u4ka,5,"Which of the following problems did you have?",Checkbox,6011,none
J00703371_crw,tvk919k779,1,"Did the experiment go smoothly or were there problems? (Note: Your compensation will not depend on your answer below, so please be honest.)!!!",Radio,11479,Smooth
J00703371_crw,tvk919k779,2,"Have you participated in this experiment (or another experiment using the same learning materials) before?",Radio,5550,Naive
J00703371_crw,tvk919k779,3,"How much fun was this experiment? <p>1 being very fun -- 7 being the MOST FUN EVER</p>",Likert,4269,5
J00703371_crw,tvk919k779,4,"Were you doing anything else while this experiment was going on? You will get credit no matter how you respond here.",Text,13961,no
J00703371_crw,tvk919k779,5,"Which of the following problems did you have?",Checkbox,7497,none
J00706812VS,lpmoxey0b7,1,"Did the experiment go smoothly or were there problems? (Note: Your compensation will not depend on your answer below, so please be honest.)!!!",Radio,4289,Smooth
J00706812VS,lpmoxey0b7,2,"Have you participated in this experiment (or another experiment using the same learning materials) before?",Radio,5337,Naive
J00706812VS,lpmoxey0b7,3,"How much fun was this experiment? <p>1 being very fun -- 7 being the MOST FUN EVER</p>",Likert,6845,1
J00706812VS,lpmoxey0b7,4,"Were you doing anything else while this experiment was going on? You will get credit no matter how you respond here.",Text,4662,No
J00706812VS,lpmoxey0b7,5,"Which of the following problems did you have?",Checkbox,6107,none
J00718929_smg,19ueinftj8,1,"Did the experiment go smoothly or were there problems? (Note: Your compensation will not depend on your answer below, so please be honest.)!!!",Radio,7645,Smooth
J00718929_smg,19ueinftj8,2,"Have you participated in this experiment (or another experiment using the same learning materials) before?",Radio,7187,Naive
J00718929_smg,19ueinftj8,3,"How much fun was this experiment? <p>1 being very fun -- 7 being the MOST FUN EVER</p>",Likert,19503,4
J00718929_smg,19ueinftj8,4,"Were you doing anything else while this experiment was going on? You will get credit no matter how you respond here.",Text,19478,No
J00718929_smg,19ueinftj8,5,"Which of the following problems did you have?",Checkbox,9809,none
J00691416,235l7y9yd3,1,"Did the experiment go smoothly or were there problems? (Note: Your compensation will not depend on your answer below, so please be honest.)!!!",Radio,6014,Smooth
J00691416,235l7y9yd3,2,"Have you participated in this experiment (or another experiment using the same learning materials) before?",Radio,6384,Naive
J00691416,235l7y9yd3,3,"How much fun was this experiment? <p>1 being very fun -- 7 being the MOST FUN EVER</p>",Likert,4876,6
J00691416,235l7y9yd3,4,"Were you doing anything else while this experiment was going on? You will get credit no matter how you respond here.",Text,6957,n/a
J00691416,235l7y9yd3,5,"Which of the following problems did you have?",Checkbox,5715,none
J00707319EKD,km198e18ro,1,"Did the experiment go smoothly or were there problems? (Note: Your compensation will not depend on your answer below, so please be honest.)!!!",Radio,2535,Smooth
J00707319EKD,km198e18ro,2,"Have you participated in this experiment (or another experiment using the same learning materials) before?",Radio,4119,Naive
J00707319EKD,km198e18ro,3,"How much fun was this experiment? <p>1 being very fun -- 7 being the MOST FUN EVER</p>",Likert,6414,2
J00707319EKD,km198e18ro,4,"Were you doing anything else while this experiment was going on? You will get credit no matter how you respond here.",Text,16525,"I had nothing else going on. "
J00707319EKD,km198e18ro,5,"Which of the following problems did you have?",Checkbox,5058,none
J00688716_taf,mwulznqdi5,1,"Did the experiment go smoothly or were there problems? (Note: Your compensation will not depend on your answer below, so please be honest.)!!!",Radio,6755,Smooth
J00688716_taf,mwulznqdi5,2,"Have you participated in this experiment (or another experiment using the same learning materials) before?",Radio,7902,Naive
J00688716_taf,mwulznqdi5,3,"How much fun was this experiment? <p>1 being very fun -- 7 being the MOST FUN EVER</p>",Likert,4016,3
J00688716_taf,mwulznqdi5,4,"Were you doing anything else while this experiment was going on? You will get credit no matter how you respond here.",Text,5050,no
J00688716_taf,mwulznqdi5,5,"Which of the following problems did you have?",Checkbox,5568,none
J00719196_irr,p39qfq0wsp,1,"Did the experiment go smoothly or were there problems? (Note: Your compensation will not depend on your answer below, so please be honest.)!!!",Radio,3785,MinorBumps
J00719196_irr,p39qfq0wsp,2,"Have you participated in this experiment (or another experiment using the same learning materials) before?",Radio,3555,DoneItBefore
J00719196_irr,p39qfq0wsp,3,"How much fun was this experiment? <p>1 being very fun -- 7 being the MOST FUN EVER</p>",Likert,4960,2
J00719196_irr,p39qfq0wsp,4,"Were you doing anything else while this experiment was going on? You will get credit no matter how you respond here.",Text,9514,no
J00719196_irr,p39qfq0wsp,5,"Which of the following problems did you have?",Checkbox,8086,none
J00712670CM,b0d1m7i4lj,1,"Did the experiment go smoothly or were there problems? (Note: Your compensation will not depend on your answer below, so please be honest.)!!!",Radio,12465,Smooth
J00712670CM,b0d1m7i4lj,2,"Have you participated in this experiment (or another experiment using the same learning materials) before?",Radio,2997,Naive
J00712670CM,b0d1m7i4lj,3,"How much fun was this experiment? <p>1 being very fun -- 7 being the MOST FUN EVER</p>",Likert,8737,2
J00712670CM,b0d1m7i4lj,4,"Were you doing anything else while this experiment was going on? You will get credit no matter how you respond here.",Text,8074,
J00712670CM,b0d1m7i4lj,5,"Which of the following problems did you have?",Checkbox,4803,none
j00686630_jj,iacrqpeo0n,1,"Did the experiment go smoothly or were there problems? (Note: Your compensation will not depend on your answer below, so please be honest.)!!!",Radio,4561,Smooth
j00686630_jj,iacrqpeo0n,2,"Have you participated in this experiment (or another experiment using the same learning materials) before?",Radio,6811,DoneItBefore
j00686630_jj,iacrqpeo0n,3,"How much fun was this experiment? <p>1 being very fun -- 7 being the MOST FUN EVER</p>",Likert,4814,1
j00686630_jj,iacrqpeo0n,4,"Were you doing anything else while this experiment was going on? You will get credit no matter how you respond here.",Text,5303,no
j00686630_jj,iacrqpeo0n,5,"Which of the following problems did you have?",Checkbox,4688,none
cas2024CS,8q6cnugm5q,1,"Did the experiment go smoothly or were there problems? (Note: Your compensation will not depend on your answer below, so please be honest.)!!!",Radio,5668,Smooth
cas2024CS,8q6cnugm5q,2,"Have you participated in this experiment (or another experiment using the same learning materials) before?",Radio,5312,Naive
cas2024CS,8q6cnugm5q,3,"How much fun was this experiment? <p>1 being very fun -- 7 being the MOST FUN EVER</p>",Likert,7056,7
cas2024CS,8q6cnugm5q,4,"Were you doing anything else while this experiment was going on? You will get credit no matter how you respond here.",Text,15499,"No, I was just sitting in bed"
cas2024CS,8q6cnugm5q,5,"Which of the following problems did you have?",Checkbox,4164,none
J00711161_jtc,u6zvc09lxl,1,"Did the experiment go smoothly or were there problems? (Note: Your compensation will not depend on your answer below, so please be honest.)!!!",Radio,6199,ExcludeMe
J00711161_jtc,u6zvc09lxl,2,"Have you participated in this experiment (or another experiment using the same learning materials) before?",Radio,5468,Naive
J00711161_jtc,u6zvc09lxl,3,"How much fun was this experiment? <p>1 being very fun -- 7 being the MOST FUN EVER</p>",Likert,8622,1
J00711161_jtc,u6zvc09lxl,4,"Were you doing anything else while this experiment was going on? You will get credit no matter how you respond here.",Text,7548,No
J00711161_jtc,u6zvc09lxl,5,"Which of the following problems did you have?",Checkbox,6207,none
j00690275_cbi,g9g2qpaduf,1,"Did the experiment go smoothly or were there problems? (Note: Your compensation will not depend on your answer below, so please be honest.)!!!",Radio,7054,Smooth
j00690275_cbi,g9g2qpaduf,2,"Have you participated in this experiment (or another experiment using the same learning materials) before?",Radio,9349,Naive
j00690275_cbi,g9g2qpaduf,3,"How much fun was this experiment? <p>1 being very fun -- 7 being the MOST FUN EVER</p>",Likert,6801,6
j00690275_cbi,g9g2qpaduf,4,"Were you doing anything else while this experiment was going on? You will get credit no matter how you respond here.",Text,8585,no
j00690275_cbi,g9g2qpaduf,5,"Which of the following problems did you have?",Checkbox,6197,none
J00689444_bcb,s6x3jn9z5z,1,"Did the experiment go smoothly or were there problems? (Note: Your compensation will not depend on your answer below, so please be honest.)!!!",Radio,7485,Smooth
J00689444_bcb,s6x3jn9z5z,2,"Have you participated in this experiment (or another experiment using the same learning materials) before?",Radio,4481,Naive
J00689444_bcb,s6x3jn9z5z,3,"How much fun was this experiment? <p>1 being very fun -- 7 being the MOST FUN EVER</p>",Likert,9452,6
J00689444_bcb,s6x3jn9z5z,4,"Were you doing anything else while this experiment was going on? You will get credit no matter how you respond here.",Text,95145,"Just eating Cheez-its. White cheddar is the best"
J00689444_bcb,s6x3jn9z5z,5,"Which of the following problems did you have?",Checkbox,4950,none
J00695430_mbb,dhqiwpnang,1,"Did the experiment go smoothly or were there problems? (Note: Your compensation will not depend on your answer below, so please be honest.)!!!",Radio,2396,Smooth
J00695430_mbb,dhqiwpnang,2,"Have you participated in this experiment (or another experiment using the same learning materials) before?",Radio,2043,Naive
J00695430_mbb,dhqiwpnang,3,"How much fun was this experiment? <p>1 being very fun -- 7 being the MOST FUN EVER</p>",Likert,5183,4
J00695430_mbb,dhqiwpnang,4,"Were you doing anything else while this experiment was going on? You will get credit no matter how you respond here.",Text,10150,"No "
J00695430_mbb,dhqiwpnang,5,"Which of the following problems did you have?",Checkbox,4933,none
JAN,cmjz8iohqp,1,"Did the experiment go smoothly or were there problems? (Note: Your compensation will not depend on your answer below, so please be honest.)!!!",Radio,3208,Smooth
JAN,cmjz8iohqp,2,"Have you participated in this experiment (or another experiment using the same learning materials) before?",Radio,3631,Naive
JAN,cmjz8iohqp,3,"How much fun was this experiment? <p>1 being very fun -- 7 being the MOST FUN EVER</p>",Likert,4291,5
JAN,cmjz8iohqp,4,"Were you doing anything else while this experiment was going on? You will get credit no matter how you respond here.",Text,7056,NO
JAN,cmjz8iohqp,5,"Which of the following problems did you have?",Checkbox,5250,reload
J00717803,8y70z9x12l,1,"Did the experiment go smoothly or were there problems? (Note: Your compensation will not depend on your answer below, so please be honest.)!!!",Radio,6112,Smooth
J00717803,8y70z9x12l,2,"Have you participated in this experiment (or another experiment using the same learning materials) before?",Radio,5183,Naive
J00717803,8y70z9x12l,3,"How much fun was this experiment? <p>1 being very fun -- 7 being the MOST FUN EVER</p>",Likert,11683,3
J00717803,8y70z9x12l,4,"Were you doing anything else while this experiment was going on? You will get credit no matter how you respond here.",Text,8996,No
J00717803,8y70z9x12l,5,"Which of the following problems did you have?",Checkbox,4811,none
J00722620_arf,n15rogsbov,1,"Did the experiment go smoothly or were there problems? (Note: Your compensation will not depend on your answer below, so please be honest.)!!!",Radio,17999,MinorBumps
J00722620_arf,n15rogsbov,2,"Have you participated in this experiment (or another experiment using the same learning materials) before?",Radio,5740,Naive
J00722620_arf,n15rogsbov,3,"How much fun was this experiment? <p>1 being very fun -- 7 being the MOST FUN EVER</p>",Likert,9064,1
J00722620_arf,n15rogsbov,4,"Were you doing anything else while this experiment was going on? You will get credit no matter how you respond here.",Text,7383,No
J00722620_arf,n15rogsbov,5,"Which of the following problems did you have?",Checkbox,6704,none
J00715107_aar,ddyg8qy9zb,1,"Did the experiment go smoothly or were there problems? (Note: Your compensation will not depend on your answer below, so please be honest.)!!!",Radio,13716,MinorBumps
J00715107_aar,ddyg8qy9zb,2,"Have you participated in this experiment (or another experiment using the same learning materials) before?",Radio,6040,Naive
J00715107_aar,ddyg8qy9zb,3,"How much fun was this experiment? <p>1 being very fun -- 7 being the MOST FUN EVER</p>",Likert,20557,1
J00715107_aar,ddyg8qy9zb,4,"Were you doing anything else while this experiment was going on? You will get credit no matter how you respond here.",Text,8419,No
J00715107_aar,ddyg8qy9zb,5,"Which of the following problems did you have?",Checkbox,15087,"internet connectivity problems"
j00702493js,a7dqdq1vk2,1,"Did the experiment go smoothly or were there problems? (Note: Your compensation will not depend on your answer below, so please be honest.)!!!",Radio,3315,Smooth
j00702493js,a7dqdq1vk2,2,"Have you participated in this experiment (or another experiment using the same learning materials) before?",Radio,2942,Naive
j00702493js,a7dqdq1vk2,3,"How much fun was this experiment? <p>1 being very fun -- 7 being the MOST FUN EVER</p>",Likert,5164,3
j00702493js,a7dqdq1vk2,4,"Were you doing anything else while this experiment was going on? You will get credit no matter how you respond here.",Text,7196,no
j00702493js,a7dqdq1vk2,5,"Which of the following problems did you have?",Checkbox,8244,none
J00720927,szzrwxgi68,1,"Did the experiment go smoothly or were there problems? (Note: Your compensation will not depend on your answer below, so please be honest.)!!!",Radio,2024,Smooth
J00720927,szzrwxgi68,2,"Have you participated in this experiment (or another experiment using the same learning materials) before?",Radio,4430,Naive
J00720927,szzrwxgi68,3,"How much fun was this experiment? <p>1 being very fun -- 7 being the MOST FUN EVER</p>",Likert,7948,5
J00720927,szzrwxgi68,4,"Were you doing anything else while this experiment was going on? You will get credit no matter how you respond here.",Text,6612,no
J00720927,szzrwxgi68,5,"Which of the following problems did you have?",Checkbox,5240,none
J00692726AS,46gek1dwei,1,"Did the experiment go smoothly or were there problems? (Note: Your compensation will not depend on your answer below, so please be honest.)!!!",Radio,5621,ExcludeMe
J00692726AS,46gek1dwei,2,"Have you participated in this experiment (or another experiment using the same learning materials) before?",Radio,6395,Naive
J00692726AS,46gek1dwei,3,"How much fun was this experiment? <p>1 being very fun -- 7 being the MOST FUN EVER</p>",Likert,23791,6
J00692726AS,46gek1dwei,4,"Were you doing anything else while this experiment was going on? You will get credit no matter how you respond here.",Text,21689,"yes laughing at the questions"
J00692726AS,46gek1dwei,5,"Which of the following problems did you have?",Checkbox,8991,none
J00708366_grd,17n0il9xfv,1,"Did the experiment go smoothly or were there problems? (Note: Your compensation will not depend on your answer below, so please be honest.)!!!",Radio,2590,Smooth
J00708366_grd,17n0il9xfv,2,"Have you participated in this experiment (or another experiment using the same learning materials) before?",Radio,5628,DoneItBefore
J00708366_grd,17n0il9xfv,3,"How much fun was this experiment? <p>1 being very fun -- 7 being the MOST FUN EVER</p>",Likert,5075,5
J00708366_grd,17n0il9xfv,4,"Were you doing anything else while this experiment was going on? You will get credit no matter how you respond here.",Text,32211,"I was in class, but we were not working on anything"
J00708366_grd,17n0il9xfv,5,"Which of the following problems did you have?",Checkbox,3618,none
J00688582_med,26p7wjoa5h,1,"Did the experiment go smoothly or were there problems? (Note: Your compensation will not depend on your answer below, so please be honest.)!!!",Radio,7788,Smooth
J00688582_med,26p7wjoa5h,2,"Have you participated in this experiment (or another experiment using the same learning materials) before?",Radio,5908,Naive
J00688582_med,26p7wjoa5h,3,"How much fun was this experiment? <p>1 being very fun -- 7 being the MOST FUN EVER</p>",Likert,11731,5
J00708607CQ,iineh0ou6a,1,"Did the experiment go smoothly or were there problems? (Note: Your compensation will not depend on your answer below, so please be honest.)!!!",Radio,14785,Smooth
J00708607CQ,iineh0ou6a,2,"Have you participated in this experiment (or another experiment using the same learning materials) before?",Radio,5413,Naive
J00708607CQ,iineh0ou6a,3,"How much fun was this experiment? <p>1 being very fun -- 7 being the MOST FUN EVER</p>",Likert,14148,5
J00708607CQ,iineh0ou6a,4,"Were you doing anything else while this experiment was going on? You will get credit no matter how you respond here.",Text,9202,no
J00708607CQ,iineh0ou6a,5,"Which of the following problems did you have?",Checkbox,8663,none
J00691433_obo,hsbl9lh3ot,1,"Did the experiment go smoothly or were there problems? (Note: Your compensation will not depend on your answer below, so please be honest.)!!!",Radio,4519,Smooth
J00691433_obo,hsbl9lh3ot,2,"Have you participated in this experiment (or another experiment using the same learning materials) before?",Radio,7888,Naive
J00691433_obo,hsbl9lh3ot,3,"How much fun was this experiment? <p>1 being very fun -- 7 being the MOST FUN EVER</p>",Likert,15039,5
J00691433_obo,hsbl9lh3ot,4,"Were you doing anything else while this experiment was going on? You will get credit no matter how you respond here.",Text,8736,no
J00691433_obo,hsbl9lh3ot,5,"Which of the following problems did you have?",Checkbox,10944,none
J00724826,fbpt7wnr7a,1,"Did the experiment go smoothly or were there problems? (Note: Your compensation will not depend on your answer below, so please be honest.)!!!",Radio,10212,Smooth
J00724826,fbpt7wnr7a,2,"Have you participated in this experiment (or another experiment using the same learning materials) before?",Radio,7710,Naive
J00724826,fbpt7wnr7a,3,"How much fun was this experiment? <p>1 being very fun -- 7 being the MOST FUN EVER</p>",Likert,6817,4
J00724826,fbpt7wnr7a,4,"Were you doing anything else while this experiment was going on? You will get credit no matter how you respond here.",Text,22231,"laying down"
J00724826,fbpt7wnr7a,5,"Which of the following problems did you have?",Checkbox,10704,none
J00707642ALM,wp6c7dq56f,1,"Did the experiment go smoothly or were there problems? (Note: Your compensation will not depend on your answer below, so please be honest.)!!!",Radio,7092,Smooth
J00707642ALM,wp6c7dq56f,2,"Have you participated in this experiment (or another experiment using the same learning materials) before?",Radio,7707,Naive
J00707642ALM,wp6c7dq56f,3,"How much fun was this experiment? <p>1 being very fun -- 7 being the MOST FUN EVER</p>",Likert,10914,3
J00707642ALM,wp6c7dq56f,4,"Were you doing anything else while this experiment was going on? You will get credit no matter how you respond here.",Text,37482,"No, I was focused on the experiment."
J00707642ALM,wp6c7dq56f,5,"Which of the following problems did you have?",Checkbox,9748,none
J00673035_JTJ,b7yofp3536,1,"Did the experiment go smoothly or were there problems? (Note: Your compensation will not depend on your answer below, so please be honest.)!!!",Radio,8202,Smooth
J00673035_JTJ,b7yofp3536,2,"Have you participated in this experiment (or another experiment using the same learning materials) before?",Radio,2872,Naive
J00673035_JTJ,b7yofp3536,3,"How much fun was this experiment? <p>1 being very fun -- 7 being the MOST FUN EVER</p>",Likert,10622,5
J00673035_JTJ,b7yofp3536,4,"Were you doing anything else while this experiment was going on? You will get credit no matter how you respond here.",Text,14047,"im just in class chilling"
J00673035_JTJ,b7yofp3536,5,"Which of the following problems did you have?",Checkbox,5993,none
J00716276MR,4o95z1re9s,1,"Did the experiment go smoothly or were there problems? (Note: Your compensation will not depend on your answer below, so please be honest.)!!!",Radio,5005,Smooth
J00716276MR,4o95z1re9s,2,"Have you participated in this experiment (or another experiment using the same learning materials) before?",Radio,3951,Naive
J00716276MR,4o95z1re9s,3,"How much fun was this experiment? <p>1 being very fun -- 7 being the MOST FUN EVER</p>",Likert,3230,2
J00716276MR,4o95z1re9s,4,"Were you doing anything else while this experiment was going on? You will get credit no matter how you respond here.",Text,5163,NO
J00716276MR,4o95z1re9s,5,"Which of the following problems did you have?",Checkbox,3631,none
J00711093_jbt,xaxxy1thah,1,"Did the experiment go smoothly or were there problems? (Note: Your compensation will not depend on your answer below, so please be honest.)!!!",Radio,8955,Smooth
J00711093_jbt,xaxxy1thah,2,"Have you participated in this experiment (or another experiment using the same learning materials) before?",Radio,6693,Naive
J00711093_jbt,xaxxy1thah,3,"How much fun was this experiment? <p>1 being very fun -- 7 being the MOST FUN EVER</p>",Likert,11807,5
J00711093_jbt,xaxxy1thah,4,"Were you doing anything else while this experiment was going on? You will get credit no matter how you respond here.",Text,10913,No
J00711093_jbt,xaxxy1thah,5,"Which of the following problems did you have?",Checkbox,10860,none
J00709516_CDI,pcs7icam3q,1,"Did the experiment go smoothly or were there problems? (Note: Your compensation will not depend on your answer below, so please be honest.)!!!",Radio,2750,Smooth
J00709516_CDI,pcs7icam3q,2,"Have you participated in this experiment (or another experiment using the same learning materials) before?",Radio,5435,Naive
J00709516_CDI,pcs7icam3q,3,"How much fun was this experiment? <p>1 being very fun -- 7 being the MOST FUN EVER</p>",Likert,4020,2
J00709516_CDI,pcs7icam3q,4,"Were you doing anything else while this experiment was going on? You will get credit no matter how you respond here.",Text,3470,
J00709516_CDI,pcs7icam3q,5,"Which of the following problems did you have?",Checkbox,6362,none
J00708773_kmm,vb7412fqs6,1,"Did the experiment go smoothly or were there problems? (Note: Your compensation will not depend on your answer below, so please be honest.)!!!",Radio,13053,Smooth
J00708773_kmm,vb7412fqs6,2,"Have you participated in this experiment (or another experiment using the same learning materials) before?",Radio,7928,Naive
J00708773_kmm,vb7412fqs6,3,"How much fun was this experiment? <p>1 being very fun -- 7 being the MOST FUN EVER</p>",Likert,15200,1
J00708773_kmm,vb7412fqs6,4,"Were you doing anything else while this experiment was going on? You will get credit no matter how you respond here.",Text,13585,no
J00708773_kmm,vb7412fqs6,5,"Which of the following problems did you have?",Checkbox,10214,none
j00666689DF,7wqffz4osa,1,"Did the experiment go smoothly or were there problems? (Note: Your compensation will not depend on your answer below, so please be honest.)!!!",Radio,3514,Smooth
j00666689DF,7wqffz4osa,2,"Have you participated in this experiment (or another experiment using the same learning materials) before?",Radio,4247,Naive
j00666689DF,7wqffz4osa,3,"How much fun was this experiment? <p>1 being very fun -- 7 being the MOST FUN EVER</p>",Likert,13185,4
j00666689DF,7wqffz4osa,4,"Were you doing anything else while this experiment was going on? You will get credit no matter how you respond here.",Text,9233,no
j00666689DF,7wqffz4osa,5,"Which of the following problems did you have?",Checkbox,9594,none
J00713869_cth,mu1tc0i6bz,1,"Did the experiment go smoothly or were there problems? (Note: Your compensation will not depend on your answer below, so please be honest.)!!!",Radio,9664,MinorBumps
J00713869_cth,mu1tc0i6bz,2,"Have you participated in this experiment (or another experiment using the same learning materials) before?",Radio,4292,Naive
J00713869_cth,mu1tc0i6bz,3,"How much fun was this experiment? <p>1 being very fun -- 7 being the MOST FUN EVER</p>",Likert,7035,3
J00713869_cth,mu1tc0i6bz,4,"Were you doing anything else while this experiment was going on? You will get credit no matter how you respond here.",Text,4798,"No "
J00713869_cth,mu1tc0i6bz,5,"Which of the following problems did you have?",Checkbox,13448,none
J00688582_med,xr01ls6ywd,1,"Did the experiment go smoothly or were there problems? (Note: Your compensation will not depend on your answer below, so please be honest.)!!!",Radio,66009,Smooth
J00688582_med,xr01ls6ywd,2,"Have you participated in this experiment (or another experiment using the same learning materials) before?",Radio,8723,DoneItBefore
J00688582_med,xr01ls6ywd,3,"How much fun was this experiment? <p>1 being very fun -- 7 being the MOST FUN EVER</p>",Likert,5902,4
J00688582_med,xr01ls6ywd,4,"Were you doing anything else while this experiment was going on? You will get credit no matter how you respond here.",Text,13909,"I am in class. "
J00688582_med,xr01ls6ywd,5,"Which of the following problems did you have?",Checkbox,11230,none
tms,wjuiibxhnh,1,"Did the experiment go smoothly or were there problems? (Note: Your compensation will not depend on your answer below, so please be honest.)!!!",Radio,2631,Smooth
tms,wjuiibxhnh,2,"Have you participated in this experiment (or another experiment using the same learning materials) before?",Radio,6569,Naive
tms,wjuiibxhnh,3,"How much fun was this experiment? <p>1 being very fun -- 7 being the MOST FUN EVER</p>",Likert,4820,7
tms,wjuiibxhnh,4,"Were you doing anything else while this experiment was going on? You will get credit no matter how you respond here.",Text,5929,no
tms,wjuiibxhnh,5,"Which of the following problems did you have?",Checkbox,3032,reload
J00701777LM,5dig0nfxvm,1,"Did the experiment go smoothly or were there problems? (Note: Your compensation will not depend on your answer below, so please be honest.)!!!",Radio,4709,Smooth
J00701777LM,5dig0nfxvm,2,"Have you participated in this experiment (or another experiment using the same learning materials) before?",Radio,8115,Naive
J00701777LM,5dig0nfxvm,3,"How much fun was this experiment? <p>1 being very fun -- 7 being the MOST FUN EVER</p>",Likert,8606,1
J00701777LM,5dig0nfxvm,4,"Were you doing anything else while this experiment was going on? You will get credit no matter how you respond here.",Text,111829,"Watching TV"
J00701777LM,5dig0nfxvm,5,"Which of the following problems did you have?",Checkbox,5636,none
J00641914PS,wnkyangy23,1,"Did the experiment go smoothly or were there problems? (Note: Your compensation will not depend on your answer below, so please be honest.)!!!",Radio,4909,MinorBumps
J00641914PS,wnkyangy23,2,"Have you participated in this experiment (or another experiment using the same learning materials) before?",Radio,3867,Naive
J00641914PS,wnkyangy23,3,"How much fun was this experiment? <p>1 being very fun -- 7 being the MOST FUN EVER</p>",Likert,6288,5
J00641914PS,wnkyangy23,4,"Were you doing anything else while this experiment was going on? You will get credit no matter how you respond here.",Text,9638,no
J00641914PS,wnkyangy23,5,"Which of the following problems did you have?",Checkbox,8546,none
J00710354_cl,uyfuohkort,1,"Did the experiment go smoothly or were there problems? (Note: Your compensation will not depend on your answer below, so please be honest.)!!!",Radio,8656,MinorBumps
J00710354_cl,uyfuohkort,2,"Have you participated in this experiment (or another experiment using the same learning materials) before?",Radio,5860,Naive
J00710354_cl,uyfuohkort,3,"How much fun was this experiment? <p>1 being very fun -- 7 being the MOST FUN EVER</p>",Likert,5708,3
J00710354_cl,uyfuohkort,4,"Were you doing anything else while this experiment was going on? You will get credit no matter how you respond here.",Text,9799,no
J00710354_cl,uyfuohkort,5,"Which of the following problems did you have?",Checkbox,10061,none
J00709127_MM,mq7dfwkavn,1,"Did the experiment go smoothly or were there problems? (Note: Your compensation will not depend on your answer below, so please be honest.)!!!",Radio,8887,Smooth
J00709127_MM,mq7dfwkavn,2,"Have you participated in this experiment (or another experiment using the same learning materials) before?",Radio,8208,DoneItBefore
J00709127_MM,mq7dfwkavn,3,"How much fun was this experiment? <p>1 being very fun -- 7 being the MOST FUN EVER</p>",Likert,8399,2
J00709127_MM,mq7dfwkavn,4,"Were you doing anything else while this experiment was going on? You will get credit no matter how you respond here.",Text,14457,No
J00709127_MM,mq7dfwkavn,5,"Which of the following problems did you have?",Checkbox,10952,none
J00719290_TG,nxsh8wixz8,1,"Did the experiment go smoothly or were there problems? (Note: Your compensation will not depend on your answer below, so please be honest.)!!!",Radio,2383,Smooth
J00719290_TG,nxsh8wixz8,2,"Have you participated in this experiment (or another experiment using the same learning materials) before?",Radio,4844,Naive
J00719290_TG,nxsh8wixz8,3,"How much fun was this experiment? <p>1 being very fun -- 7 being the MOST FUN EVER</p>",Likert,8882,5
J00719290_TG,nxsh8wixz8,4,"Were you doing anything else while this experiment was going on? You will get credit no matter how you respond here.",Text,8797,No
J00719290_TG,nxsh8wixz8,5,"Which of the following problems did you have?",Checkbox,17245,"blank page"
J00709767_aas,8uy0y523ro,1,"Did the experiment go smoothly or were there problems? (Note: Your compensation will not depend on your answer below, so please be honest.)!!!",Radio,22760,Smooth
J00709767_aas,8uy0y523ro,2,"Have you participated in this experiment (or another experiment using the same learning materials) before?",Radio,12600,Naive
J00709767_aas,8uy0y523ro,3,"How much fun was this experiment? <p>1 being very fun -- 7 being the MOST FUN EVER</p>",Likert,31372,3
J00709767_aas,8uy0y523ro,4,"Were you doing anything else while this experiment was going on? You will get credit no matter how you respond here.",Text,128466,"listening to tv "
J00709767_aas,8uy0y523ro,5,"Which of the following problems did you have?",Checkbox,6705,none
J00667670_KPL,qmzma0iroi,1,"Did the experiment go smoothly or were there problems? (Note: Your compensation will not depend on your answer below, so please be honest.)!!!",Radio,2482,Smooth
J00667670_KPL,qmzma0iroi,2,"Have you participated in this experiment (or another experiment using the same learning materials) before?",Radio,2622,Naive
J00667670_KPL,qmzma0iroi,3,"How much fun was this experiment? <p>1 being very fun -- 7 being the MOST FUN EVER</p>",Likert,7082,4
J00667670_KPL,qmzma0iroi,4,"Were you doing anything else while this experiment was going on? You will get credit no matter how you respond here.",Text,9034,No
J00667670_KPL,qmzma0iroi,5,"Which of the following problems did you have?",Checkbox,3522,none
J00690994_aaw,hjirv66ev2,1,"Did the experiment go smoothly or were there problems? (Note: Your compensation will not depend on your answer below, so please be honest.)!!!",Radio,9680,Smooth
J00690994_aaw,hjirv66ev2,2,"Have you participated in this experiment (or another experiment using the same learning materials) before?",Radio,5522,Naive
J00690994_aaw,hjirv66ev2,3,"How much fun was this experiment? <p>1 being very fun -- 7 being the MOST FUN EVER</p>",Likert,6125,4
J00690994_aaw,hjirv66ev2,4,"Were you doing anything else while this experiment was going on? You will get credit no matter how you respond here.",Text,7422,no
J00690994_aaw,hjirv66ev2,5,"Which of the following problems did you have?",Checkbox,7684,none
w10083924,m9fgs75d81,1,"Did the experiment go smoothly or were there problems? (Note: Your compensation will not depend on your answer below, so please be honest.)!!!",Radio,13483,Smooth
w10083924,m9fgs75d81,2,"Have you participated in this experiment (or another experiment using the same learning materials) before?",Radio,6263,Naive
w10083924,m9fgs75d81,3,"How much fun was this experiment? <p>1 being very fun -- 7 being the MOST FUN EVER</p>",Likert,8103,4
w10083924,m9fgs75d81,4,"Were you doing anything else while this experiment was going on? You will get credit no matter how you respond here.",Text,27505,"I am on a time crunch, so I had to rush through some questions"
w10083924,m9fgs75d81,5,"Which of the following problems did you have?",Checkbox,21905,none
J00706716AL,2ww8ovz91p,1,"Did the experiment go smoothly or were there problems? (Note: Your compensation will not depend on your answer below, so please be honest.)!!!",Radio,7212,Smooth
J00706716AL,2ww8ovz91p,2,"Have you participated in this experiment (or another experiment using the same learning materials) before?",Radio,11172,Naive
J00706716AL,2ww8ovz91p,3,"How much fun was this experiment? <p>1 being very fun -- 7 being the MOST FUN EVER</p>",Likert,4724,6
J00706716AL,2ww8ovz91p,4,"Were you doing anything else while this experiment was going on? You will get credit no matter how you respond here.",Text,11664,yes
J00706716AL,2ww8ovz91p,5,"Which of the following problems did you have?",Checkbox,6321,none
J00710014SD,o4qlsnpw84,1,"Did the experiment go smoothly or were there problems? (Note: Your compensation will not depend on your answer below, so please be honest.)!!!",Radio,4904,Smooth
J00710014SD,o4qlsnpw84,2,"Have you participated in this experiment (or another experiment using the same learning materials) before?",Radio,5448,Naive
J00710014SD,o4qlsnpw84,3,"How much fun was this experiment? <p>1 being very fun -- 7 being the MOST FUN EVER</p>",Likert,7021,1
J00710014SD,o4qlsnpw84,4,"Were you doing anything else while this experiment was going on? You will get credit no matter how you respond here.",Text,23010,"No, I paused my podcast so that I could focus"
J00710014SD,o4qlsnpw84,5,"Which of the following problems did you have?",Checkbox,5810,none
J00715610_an,kzzcrgugxf,1,"Did the experiment go smoothly or were there problems? (Note: Your compensation will not depend on your answer below, so please be honest.)!!!",Radio,9476,ExcludeMe
J00715610_an,kzzcrgugxf,2,"Have you participated in this experiment (or another experiment using the same learning materials) before?",Radio,3377,Naive
J00715610_an,kzzcrgugxf,3,"How much fun was this experiment? <p>1 being very fun -- 7 being the MOST FUN EVER</p>",Likert,5146,4
J00715610_an,kzzcrgugxf,4,"Were you doing anything else while this experiment was going on? You will get credit no matter how you respond here.",Text,11918,"I was talking to my friend"
J00715610_an,kzzcrgugxf,5,"Which of the following problems did you have?",Checkbox,5657,none
tmsj00670955,ftm5p8v656,1,"Did the experiment go smoothly or were there problems? (Note: Your compensation will not depend on your answer below, so please be honest.)!!!",Radio,2551,Smooth
tmsj00670955,ftm5p8v656,2,"Have you participated in this experiment (or another experiment using the same learning materials) before?",Radio,4093,DoneItBefore
tmsj00670955,ftm5p8v656,3,"How much fun was this experiment? <p>1 being very fun -- 7 being the MOST FUN EVER</p>",Likert,2317,7
tmsj00670955,ftm5p8v656,4,"Were you doing anything else while this experiment was going on? You will get credit no matter how you respond here.",Text,3874,no
tmsj00670955,ftm5p8v656,5,"Which of the following problems did you have?",Checkbox,2686,"blank page"
J00705939_ave,jrqf8qiy0y,1,"Did the experiment go smoothly or were there problems? (Note: Your compensation will not depend on your answer below, so please be honest.)!!!",Radio,3443,Smooth
J00705939_ave,jrqf8qiy0y,2,"Have you participated in this experiment (or another experiment using the same learning materials) before?",Radio,4437,Naive
J00705939_ave,jrqf8qiy0y,3,"How much fun was this experiment? <p>1 being very fun -- 7 being the MOST FUN EVER</p>",Likert,4002,4
J00705939_ave,jrqf8qiy0y,4,"Were you doing anything else while this experiment was going on? You will get credit no matter how you respond here.",Text,10892,"I'm in class"
J00705939_ave,jrqf8qiy0y,5,"Which of the following problems did you have?",Checkbox,4205,none
J00687870REW,gohmex7ef2,1,"Did the experiment go smoothly or were there problems? (Note: Your compensation will not depend on your answer below, so please be honest.)!!!",Radio,3475,Smooth
J00687870REW,gohmex7ef2,2,"Have you participated in this experiment (or another experiment using the same learning materials) before?",Radio,4938,Naive
J00687870REW,gohmex7ef2,3,"How much fun was this experiment? <p>1 being very fun -- 7 being the MOST FUN EVER</p>",Likert,5731,4
J00687870REW,gohmex7ef2,4,"Were you doing anything else while this experiment was going on? You will get credit no matter how you respond here.",Text,5166,"in class"
J00687870REW,gohmex7ef2,5,"Which of the following problems did you have?",Checkbox,5549,none
J00707115_vls,1fs146qkav,1,"Did the experiment go smoothly or were there problems? (Note: Your compensation will not depend on your answer below, so please be honest.)!!!",Radio,2270,Smooth
J00707115_vls,1fs146qkav,2,"Have you participated in this experiment (or another experiment using the same learning materials) before?",Radio,5935,Naive
J00707115_vls,1fs146qkav,3,"How much fun was this experiment? <p>1 being very fun -- 7 being the MOST FUN EVER</p>",Likert,4587,3
J00707115_vls,1fs146qkav,4,"Were you doing anything else while this experiment was going on? You will get credit no matter how you respond here.",Text,5642,
J00707115_vls,1fs146qkav,5,"Which of the following problems did you have?",Checkbox,5443,none
J00711239_AN,mu849vhihj,1,"Did the experiment go smoothly or were there problems? (Note: Your compensation will not depend on your answer below, so please be honest.)!!!",Radio,8713,Smooth
J00711239_AN,mu849vhihj,2,"Have you participated in this experiment (or another experiment using the same learning materials) before?",Radio,5837,Naive
J00711239_AN,mu849vhihj,3,"How much fun was this experiment? <p>1 being very fun -- 7 being the MOST FUN EVER</p>",Likert,6005,3
J00711239_AN,mu849vhihj,4,"Were you doing anything else while this experiment was going on? You will get credit no matter how you respond here.",Text,7457,Yes
J00711239_AN,mu849vhihj,5,"Which of the following problems did you have?",Checkbox,8414,none
J00715903_SB,6iu8fk6w8a,1,"Did the experiment go smoothly or were there problems? (Note: Your compensation will not depend on your answer below, so please be honest.)!!!",Radio,14306,Smooth
J00715903_SB,6iu8fk6w8a,2,"Have you participated in this experiment (or another experiment using the same learning materials) before?",Radio,5522,Naive
J00715903_SB,6iu8fk6w8a,3,"How much fun was this experiment? <p>1 being very fun -- 7 being the MOST FUN EVER</p>",Likert,13603,5
J00715903_SB,6iu8fk6w8a,4,"Were you doing anything else while this experiment was going on? You will get credit no matter how you respond here.",Text,20576,"watching a movie "
J00715903_SB,6iu8fk6w8a,5,"Which of the following problems did you have?",Checkbox,11463,none
J00715980_kms,6mv3154bcl,1,"Did the experiment go smoothly or were there problems? (Note: Your compensation will not depend on your answer below, so please be honest.)!!!",Radio,2243,Smooth
J00715980_kms,6mv3154bcl,2,"Have you participated in this experiment (or another experiment using the same learning materials) before?",Radio,3823,Naive
J00715980_kms,6mv3154bcl,3,"How much fun was this experiment? <p>1 being very fun -- 7 being the MOST FUN EVER</p>",Likert,6757,5
J00715980_kms,6mv3154bcl,4,"Were you doing anything else while this experiment was going on? You will get credit no matter how you respond here.",Text,8565,no
J00715980_kms,6mv3154bcl,5,"Which of the following problems did you have?",Checkbox,7828,none
J00717667CB,qtx2pj5139,1,"Did the experiment go smoothly or were there problems? (Note: Your compensation will not depend on your answer below, so please be honest.)!!!",Radio,5150,MinorBumps
J00717667CB,qtx2pj5139,2,"Have you participated in this experiment (or another experiment using the same learning materials) before?",Radio,5138,Naive
J00717667CB,qtx2pj5139,3,"How much fun was this experiment? <p>1 being very fun -- 7 being the MOST FUN EVER</p>",Likert,8092,5
J00717667CB,qtx2pj5139,4,"Were you doing anything else while this experiment was going on? You will get credit no matter how you respond here.",Text,10506,No
J00717667CB,qtx2pj5139,5,"Which of the following problems did you have?",Checkbox,7203,none
J00706165,7wyf7sbu2w,1,"Did the experiment go smoothly or were there problems? (Note: Your compensation will not depend on your answer below, so please be honest.)!!!",Radio,1703,Smooth
J00706165,7wyf7sbu2w,2,"Have you participated in this experiment (or another experiment using the same learning materials) before?",Radio,1820,DoneItBefore
J00706165,7wyf7sbu2w,3,"How much fun was this experiment? <p>1 being very fun -- 7 being the MOST FUN EVER</p>",Likert,15026,4
J00706165,7wyf7sbu2w,4,"Were you doing anything else while this experiment was going on? You will get credit no matter how you respond here.",Text,5996,No
J00706165,7wyf7sbu2w,5,"Which of the following problems did you have?",Checkbox,4310,none
J00708585,8azgp5bejg,1,"Did the experiment go smoothly or were there problems? (Note: Your compensation will not depend on your answer below, so please be honest.)!!!",Radio,2859,Smooth
J00708585,8azgp5bejg,2,"Have you participated in this experiment (or another experiment using the same learning materials) before?",Radio,3290,Naive
J00708585,8azgp5bejg,3,"How much fun was this experiment? <p>1 being very fun -- 7 being the MOST FUN EVER</p>",Likert,4833,5
J00708585,8azgp5bejg,4,"Were you doing anything else while this experiment was going on? You will get credit no matter how you respond here.",Text,8076,No
J00708585,8azgp5bejg,5,"Which of the following problems did you have?",Checkbox,4100,none
00722362Mbh,goxaqat63u,1,"Did the experiment go smoothly or were there problems? (Note: Your compensation will not depend on your answer below, so please be honest.)!!!",Radio,5360,MinorBumps
00722362Mbh,goxaqat63u,2,"Have you participated in this experiment (or another experiment using the same learning materials) before?",Radio,2942,Naive
00722362Mbh,goxaqat63u,3,"How much fun was this experiment? <p>1 being very fun -- 7 being the MOST FUN EVER</p>",Likert,4896,4
00722362Mbh,goxaqat63u,4,"Were you doing anything else while this experiment was going on? You will get credit no matter how you respond here.",Text,8755,no
00722362Mbh,goxaqat63u,5,"Which of the following problems did you have?",Checkbox,8612,none
J00708093_ojs,zkwhc4iitx,1,"Did the experiment go smoothly or were there problems? (Note: Your compensation will not depend on your answer below, so please be honest.)!!!",Radio,10592,Smooth
J00708093_ojs,zkwhc4iitx,2,"Have you participated in this experiment (or another experiment using the same learning materials) before?",Radio,6396,Naive
J00708093_ojs,zkwhc4iitx,3,"How much fun was this experiment? <p>1 being very fun -- 7 being the MOST FUN EVER</p>",Likert,7776,1
J00708093_ojs,zkwhc4iitx,4,"Were you doing anything else while this experiment was going on? You will get credit no matter how you respond here.",Text,19623,"just listening to music"
J00708093_ojs,zkwhc4iitx,5,"Which of the following problems did you have?",Checkbox,7881,none
J00714505,9760ecc6oi,1,"Did the experiment go smoothly or were there problems? (Note: Your compensation will not depend on your answer below, so please be honest.)!!!",Radio,5036,MinorBumps
J00714505,9760ecc6oi,2,"Have you participated in this experiment (or another experiment using the same learning materials) before?",Radio,3026,Naive
J00714505,9760ecc6oi,3,"How much fun was this experiment? <p>1 being very fun -- 7 being the MOST FUN EVER</p>",Likert,5812,5
J00714505,9760ecc6oi,4,"Were you doing anything else while this experiment was going on? You will get credit no matter how you respond here.",Text,8220,"Listening to music"
J00714505,9760ecc6oi,5,"Which of the following problems did you have?",Checkbox,6813,none
j00707964,gz8ubfz3qp,1,"Did the experiment go smoothly or were there problems? (Note: Your compensation will not depend on your answer below, so please be honest.)!!!",Radio,13043,MinorBumps
j00707964,gz8ubfz3qp,2,"Have you participated in this experiment (or another experiment using the same learning materials) before?",Radio,12472,Naive
j00707964,gz8ubfz3qp,3,"How much fun was this experiment? <p>1 being very fun -- 7 being the MOST FUN EVER</p>",Likert,3735,1
j00707964,gz8ubfz3qp,4,"Were you doing anything else while this experiment was going on? You will get credit no matter how you respond here.",Text,6653,no
j00707964,gz8ubfz3qp,5,"Which of the following problems did you have?",Checkbox,8088,none
J00707647_EAM,xsswn3ugvp,1,"Did the experiment go smoothly or were there problems? (Note: Your compensation will not depend on your answer below, so please be honest.)!!!",Radio,4597,Smooth
J00707647_EAM,xsswn3ugvp,2,"Have you participated in this experiment (or another experiment using the same learning materials) before?",Radio,3699,DoneItBefore
J00707647_EAM,xsswn3ugvp,3,"How much fun was this experiment? <p>1 being very fun -- 7 being the MOST FUN EVER</p>",Likert,7062,7
J00707647_EAM,xsswn3ugvp,4,"Were you doing anything else while this experiment was going on? You will get credit no matter how you respond here.",Text,5684,no
J00707647_EAM,xsswn3ugvp,5,"Which of the following problems did you have?",Checkbox,10365,none
J00715181_sba,35dyes8yof,1,"Did the experiment go smoothly or were there problems? (Note: Your compensation will not depend on your answer below, so please be honest.)!!!",Radio,11324,MinorBumps
J00715181_sba,35dyes8yof,2,"Have you participated in this experiment (or another experiment using the same learning materials) before?",Radio,4838,Naive
J00709237,vkyorqqpbl,1,"Did the experiment go smoothly or were there problems? (Note: Your compensation will not depend on your answer below, so please be honest.)!!!",Radio,10141,Smooth
J00715181_sba,35dyes8yof,3,"How much fun was this experiment? <p>1 being very fun -- 7 being the MOST FUN EVER</p>",Likert,8555,6
J00709237,vkyorqqpbl,2,"Have you participated in this experiment (or another experiment using the same learning materials) before?",Radio,5118,Naive
J00715181_sba,35dyes8yof,4,"Were you doing anything else while this experiment was going on? You will get credit no matter how you respond here.",Text,5357,No
J00709237,vkyorqqpbl,3,"How much fun was this experiment? <p>1 being very fun -- 7 being the MOST FUN EVER</p>",Likert,11568,1
J00715181_sba,35dyes8yof,5,"Which of the following problems did you have?",Checkbox,7433,none
J00719925SRB,m7p00t30mx,1,"Did the experiment go smoothly or were there problems? (Note: Your compensation will not depend on your answer below, so please be honest.)!!!",Radio,8871,Smooth
J00719925SRB,m7p00t30mx,2,"Have you participated in this experiment (or another experiment using the same learning materials) before?",Radio,5827,Naive
J00709237,vkyorqqpbl,4,"Were you doing anything else while this experiment was going on? You will get credit no matter how you respond here.",Text,9394,no
J00719925SRB,m7p00t30mx,3,"How much fun was this experiment? <p>1 being very fun -- 7 being the MOST FUN EVER</p>",Likert,4986,6
J00709237,vkyorqqpbl,5,"Which of the following problems did you have?",Checkbox,8834,none
J00719925SRB,m7p00t30mx,4,"Were you doing anything else while this experiment was going on? You will get credit no matter how you respond here.",Text,8259,No
J00719925SRB,m7p00t30mx,5,"Which of the following problems did you have?",Checkbox,9074,none
j00713029kel,f0hr0xv7ve,1,"Did the experiment go smoothly or were there problems? (Note: Your compensation will not depend on your answer below, so please be honest.)!!!",Radio,6010,Smooth
j00713029kel,f0hr0xv7ve,2,"Have you participated in this experiment (or another experiment using the same learning materials) before?",Radio,4784,Naive
j00713029kel,f0hr0xv7ve,3,"How much fun was this experiment? <p>1 being very fun -- 7 being the MOST FUN EVER</p>",Likert,11006,5
j00713029kel,f0hr0xv7ve,4,"Were you doing anything else while this experiment was going on? You will get credit no matter how you respond here.",Text,12199,"Checking my phone"
j00713029kel,f0hr0xv7ve,5,"Which of the following problems did you have?",Checkbox,6719,none
J00716080_saf,xgyvwn7gw9,1,"Did the experiment go smoothly or were there problems? (Note: Your compensation will not depend on your answer below, so please be honest.)!!!",Radio,15815,MinorBumps
J00716080_saf,xgyvwn7gw9,2,"Have you participated in this experiment (or another experiment using the same learning materials) before?",Radio,6562,Naive
J00716080_saf,xgyvwn7gw9,3,"How much fun was this experiment? <p>1 being very fun -- 7 being the MOST FUN EVER</p>",Likert,20454,1
J00716080_saf,xgyvwn7gw9,4,"Were you doing anything else while this experiment was going on? You will get credit no matter how you respond here.",Text,13859,no
J00716080_saf,xgyvwn7gw9,5,"Which of the following problems did you have?",Checkbox,9782,none
J00686057_cas,7dn61eorc2,1,"Did the experiment go smoothly or were there problems? (Note: Your compensation will not depend on your answer below, so please be honest.)!!!",Radio,3361,Smooth
J00686057_cas,7dn61eorc2,2,"Have you participated in this experiment (or another experiment using the same learning materials) before?",Radio,5283,DoneItBefore
J00686057_cas,7dn61eorc2,3,"How much fun was this experiment? <p>1 being very fun -- 7 being the MOST FUN EVER</p>",Likert,5326,7
J00686057_cas,7dn61eorc2,4,"Were you doing anything else while this experiment was going on? You will get credit no matter how you respond here.",Text,14561,"I was sitting in class "
J00686057_cas,7dn61eorc2,5,"Which of the following problems did you have?",Checkbox,6528,none
J00706823_afm,d8mwcib1u9,1,"Did the experiment go smoothly or were there problems? (Note: Your compensation will not depend on your answer below, so please be honest.)!!!",Radio,8477,Smooth
J00706823_afm,d8mwcib1u9,2,"Have you participated in this experiment (or another experiment using the same learning materials) before?",Radio,4315,Naive
J00706823_afm,d8mwcib1u9,3,"How much fun was this experiment? <p>1 being very fun -- 7 being the MOST FUN EVER</p>",Likert,9723,5
J00706823_afm,d8mwcib1u9,4,"Were you doing anything else while this experiment was going on? You will get credit no matter how you respond here.",Text,37391,"other than trying to figure out what to put on this computer but other than that no"
J00706823_afm,d8mwcib1u9,5,"Which of the following problems did you have?",Checkbox,10366,none
J00712371_CJV,x2uf23h3m8,1,"Did the experiment go smoothly or were there problems? (Note: Your compensation will not depend on your answer below, so please be honest.)!!!",Radio,6719,Smooth
J00712371_CJV,x2uf23h3m8,2,"Have you participated in this experiment (or another experiment using the same learning materials) before?",Radio,4043,Naive
J00712371_CJV,x2uf23h3m8,3,"How much fun was this experiment? <p>1 being very fun -- 7 being the MOST FUN EVER</p>",Likert,5659,4
J00712371_CJV,x2uf23h3m8,4,"Were you doing anything else while this experiment was going on? You will get credit no matter how you respond here.",Text,3203,
J00712371_CJV,x2uf23h3m8,5,"Which of the following problems did you have?",Checkbox,5073,none
J00691048_amb,ns9pal7x0z,1,"Did the experiment go smoothly or were there problems? (Note: Your compensation will not depend on your answer below, so please be honest.)!!!",Radio,6971,Smooth
J00691048_amb,ns9pal7x0z,2,"Have you participated in this experiment (or another experiment using the same learning materials) before?",Radio,6679,Naive
J00691048_amb,ns9pal7x0z,3,"How much fun was this experiment? <p>1 being very fun -- 7 being the MOST FUN EVER</p>",Likert,7098,3
J00691048_amb,ns9pal7x0z,4,"Were you doing anything else while this experiment was going on? You will get credit no matter how you respond here.",Text,11700,"Watching greys anatomy "
J00691048_amb,ns9pal7x0z,5,"Which of the following problems did you have?",Checkbox,7821,none
J00696974CU,6ryev50u5x,1,"Did the experiment go smoothly or were there problems? (Note: Your compensation will not depend on your answer below, so please be honest.)!!!",Radio,2608,Smooth
J00696974CU,6ryev50u5x,2,"Have you participated in this experiment (or another experiment using the same learning materials) before?",Radio,3753,Naive
J00696974CU,6ryev50u5x,3,"How much fun was this experiment? <p>1 being very fun -- 7 being the MOST FUN EVER</p>",Likert,8825,4
J00696974CU,6ryev50u5x,4,"Were you doing anything else while this experiment was going on? You will get credit no matter how you respond here.",Text,9267,nope
J00696974CU,6ryev50u5x,5,"Which of the following problems did you have?",Checkbox,16840,none
J00706446_mde,hbksnt0cwd,1,"Did the experiment go smoothly or were there problems? (Note: Your compensation will not depend on your answer below, so please be honest.)!!!",Radio,11337,Smooth
J00706446_mde,hbksnt0cwd,2,"Have you participated in this experiment (or another experiment using the same learning materials) before?",Radio,17736,DoneItBefore
J00706446_mde,hbksnt0cwd,3,"How much fun was this experiment? <p>1 being very fun -- 7 being the MOST FUN EVER</p>",Likert,5470,3
J00706446_mde,hbksnt0cwd,4,"Were you doing anything else while this experiment was going on? You will get credit no matter how you respond here.",Text,7540,no
J00706446_mde,hbksnt0cwd,5,"Which of the following problems did you have?",Checkbox,6386,none
J00700963ALK,xf9hcd4938,1,"Did the experiment go smoothly or were there problems? (Note: Your compensation will not depend on your answer below, so please be honest.)!!!",Radio,5690,Smooth
J00700963ALK,xf9hcd4938,2,"Have you participated in this experiment (or another experiment using the same learning materials) before?",Radio,6276,DoneItBefore
J00700963ALK,xf9hcd4938,3,"How much fun was this experiment? <p>1 being very fun -- 7 being the MOST FUN EVER</p>",Likert,8383,3
J00700963ALK,xf9hcd4938,4,"Were you doing anything else while this experiment was going on? You will get credit no matter how you respond here.",Text,13508,"music playing"
J00700963ALK,xf9hcd4938,5,"Which of the following problems did you have?",Checkbox,7707,none
J00721766_LRC,0h3l9qyl50,1,"Did the experiment go smoothly or were there problems? (Note: Your compensation will not depend on your answer below, so please be honest.)!!!",Radio,11063,Smooth
J00721766_LRC,0h3l9qyl50,2,"Have you participated in this experiment (or another experiment using the same learning materials) before?",Radio,6746,Naive
J00721766_LRC,0h3l9qyl50,3,"How much fun was this experiment? <p>1 being very fun -- 7 being the MOST FUN EVER</p>",Likert,13224,5
J00721766_LRC,0h3l9qyl50,4,"Were you doing anything else while this experiment was going on? You will get credit no matter how you respond here.",Text,12483,No
J00721766_LRC,0h3l9qyl50,5,"Which of the following problems did you have?",Checkbox,10082,none
J00709028A.N.,7tk5dxomhi,1,"Did the experiment go smoothly or were there problems? (Note: Your compensation will not depend on your answer below, so please be honest.)!!!",Radio,10860,MinorBumps
J00709028A.N.,7tk5dxomhi,2,"Have you participated in this experiment (or another experiment using the same learning materials) before?",Radio,7063,Naive
J00709028A.N.,7tk5dxomhi,3,"How much fun was this experiment? <p>1 being very fun -- 7 being the MOST FUN EVER</p>",Likert,13764,1
J00709028A.N.,7tk5dxomhi,4,"Were you doing anything else while this experiment was going on? You will get credit no matter how you respond here.",Text,21189,"Yes. I was listening to music."
J00709028A.N.,7tk5dxomhi,5,"Which of the following problems did you have?",Checkbox,23024,none
J00719397,6af5a6vu07,1,"Did the experiment go smoothly or were there problems? (Note: Your compensation will not depend on your answer below, so please be honest.)!!!",Radio,7582,Smooth
J00719397,6af5a6vu07,2,"Have you participated in this experiment (or another experiment using the same learning materials) before?",Radio,5930,DoneItBefore
J00719397,6af5a6vu07,3,"How much fun was this experiment? <p>1 being very fun -- 7 being the MOST FUN EVER</p>",Likert,6221,3
J00719397,6af5a6vu07,4,"Were you doing anything else while this experiment was going on? You will get credit no matter how you respond here.",Text,9211,No
J00719397,6af5a6vu07,5,"Which of the following problems did you have?",Checkbox,8904,none
J00724627_JWB,3e6fqu1xjk,1,"Did the experiment go smoothly or were there problems? (Note: Your compensation will not depend on your answer below, so please be honest.)!!!",Radio,6591,MinorBumps
J00724627_JWB,3e6fqu1xjk,2,"Have you participated in this experiment (or another experiment using the same learning materials) before?",Radio,6633,Naive
J00724627_JWB,3e6fqu1xjk,3,"How much fun was this experiment? <p>1 being very fun -- 7 being the MOST FUN EVER</p>",Likert,5846,3
J00724627_JWB,3e6fqu1xjk,4,"Were you doing anything else while this experiment was going on? You will get credit no matter how you respond here.",Text,5656,no
J00724627_JWB,3e6fqu1xjk,5,"Which of the following problems did you have?",Checkbox,8000,none
J00723588_SR,udybiacmpe,1,"Did the experiment go smoothly or were there problems? (Note: Your compensation will not depend on your answer below, so please be honest.)!!!",Radio,3939,Smooth
J00723588_SR,udybiacmpe,2,"Have you participated in this experiment (or another experiment using the same learning materials) before?",Radio,3128,Naive
J00723588_SR,udybiacmpe,3,"How much fun was this experiment? <p>1 being very fun -- 7 being the MOST FUN EVER</p>",Likert,4271,5
J00723588_SR,udybiacmpe,4,"Were you doing anything else while this experiment was going on? You will get credit no matter how you respond here.",Text,4340,no
J00723588_SR,udybiacmpe,5,"Which of the following problems did you have?",Checkbox,4917,none
J00526068_gfd,6arew5vjn3,1,"Did the experiment go smoothly or were there problems? (Note: Your compensation will not depend on your answer below, so please be honest.)!!!",Radio,27617,Smooth
J00526068_gfd,6arew5vjn3,2,"Have you participated in this experiment (or another experiment using the same learning materials) before?",Radio,3921,Naive
J00526068_gfd,6arew5vjn3,3,"How much fun was this experiment? <p>1 being very fun -- 7 being the MOST FUN EVER</p>",Likert,9991,5
J00526068_gfd,6arew5vjn3,4,"Were you doing anything else while this experiment was going on? You will get credit no matter how you respond here.",Text,8827,"washing clothes"
J00526068_gfd,6arew5vjn3,5,"Which of the following problems did you have?",Checkbox,7063,none
J00708242EC,5ygg5zfrnk,1,"Did the experiment go smoothly or were there problems? (Note: Your compensation will not depend on your answer below, so please be honest.)!!!",Radio,5619,Smooth
J00708242EC,5ygg5zfrnk,2,"Have you participated in this experiment (or another experiment using the same learning materials) before?",Radio,5729,Naive
J00708242EC,5ygg5zfrnk,3,"How much fun was this experiment? <p>1 being very fun -- 7 being the MOST FUN EVER</p>",Likert,6360,6
J00708242EC,5ygg5zfrnk,4,"Were you doing anything else while this experiment was going on? You will get credit no matter how you respond here.",Text,16028,"watching a Christmas movie"
J00708242EC,5ygg5zfrnk,5,"Which of the following problems did you have?",Checkbox,7414,none
J00704633_gat,h75mddw2ei,1,"Did the experiment go smoothly or were there problems? (Note: Your compensation will not depend on your answer below, so please be honest.)!!!",Radio,14032,Smooth
J00704633_gat,h75mddw2ei,2,"Have you participated in this experiment (or another experiment using the same learning materials) before?",Radio,7699,Naive
J00704633_gat,h75mddw2ei,3,"How much fun was this experiment? <p>1 being very fun -- 7 being the MOST FUN EVER</p>",Likert,13603,1
J00704633_gat,h75mddw2ei,4,"Were you doing anything else while this experiment was going on? You will get credit no matter how you respond here.",Text,12510,no
J00704633_gat,h75mddw2ei,5,"Which of the following problems did you have?",Checkbox,11800,none
J00717191IFP,znzufh50oz,1,"Did the experiment go smoothly or were there problems? (Note: Your compensation will not depend on your answer below, so please be honest.)!!!",Radio,2845,Smooth
J00717191IFP,znzufh50oz,2,"Have you participated in this experiment (or another experiment using the same learning materials) before?",Radio,12317,Naive
J00717191IFP,znzufh50oz,3,"How much fun was this experiment? <p>1 being very fun -- 7 being the MOST FUN EVER</p>",Likert,4005,6
J00717191IFP,znzufh50oz,4,"Were you doing anything else while this experiment was going on? You will get credit no matter how you respond here.",Text,9331,no
J00717191IFP,znzufh50oz,5,"Which of the following problems did you have?",Checkbox,6151,none
J00717956_cab,b8apanog21,1,"Did the experiment go smoothly or were there problems? (Note: Your compensation will not depend on your answer below, so please be honest.)!!!",Radio,6704,Smooth
J00717956_cab,b8apanog21,2,"Have you participated in this experiment (or another experiment using the same learning materials) before?",Radio,2533,Naive
J00717956_cab,b8apanog21,3,"How much fun was this experiment? <p>1 being very fun -- 7 being the MOST FUN EVER</p>",Likert,5824,3
J00717956_cab,b8apanog21,4,"Were you doing anything else while this experiment was going on? You will get credit no matter how you respond here.",Text,10718,No
J00717956_cab,b8apanog21,5,"Which of the following problems did you have?",Checkbox,6886,none
J00688087AD,k1dsekk8pr,1,"Did the experiment go smoothly or were there problems? (Note: Your compensation will not depend on your answer below, so please be honest.)!!!",Radio,7765,Smooth
J00688087AD,k1dsekk8pr,2,"Have you participated in this experiment (or another experiment using the same learning materials) before?",Radio,4966,Naive
J00688087AD,k1dsekk8pr,3,"How much fun was this experiment? <p>1 being very fun -- 7 being the MOST FUN EVER</p>",Likert,9493,1
J00688087AD,k1dsekk8pr,4,"Were you doing anything else while this experiment was going on? You will get credit no matter how you respond here.",Text,8046,No
J00688087AD,k1dsekk8pr,5,"Which of the following problems did you have?",Checkbox,7795,none
J00715696AC,v6y28mxizj,1,"Did the experiment go smoothly or were there problems? (Note: Your compensation will not depend on your answer below, so please be honest.)!!!",Radio,6165,Smooth
J00715696AC,v6y28mxizj,2,"Have you participated in this experiment (or another experiment using the same learning materials) before?",Radio,2860,Naive
J00715696AC,v6y28mxizj,3,"How much fun was this experiment? <p>1 being very fun -- 7 being the MOST FUN EVER</p>",Likert,4362,2
J00715696AC,v6y28mxizj,4,"Were you doing anything else while this experiment was going on? You will get credit no matter how you respond here.",Text,5995,no
J00715696AC,v6y28mxizj,5,"Which of the following problems did you have?",Checkbox,4488,none
J00637838,u5p9ft14l0,1,"Did the experiment go smoothly or were there problems? (Note: Your compensation will not depend on your answer below, so please be honest.)!!!",Radio,6338,Smooth
J00637838,u5p9ft14l0,2,"Have you participated in this experiment (or another experiment using the same learning materials) before?",Radio,4615,Naive
J00637838,u5p9ft14l0,3,"How much fun was this experiment? <p>1 being very fun -- 7 being the MOST FUN EVER</p>",Likert,7692,7
J00637838,u5p9ft14l0,4,"Were you doing anything else while this experiment was going on? You will get credit no matter how you respond here.",Text,8241,no
J00637838,u5p9ft14l0,5,"Which of the following problems did you have?",Checkbox,6800,none
J007134211_ecm,yz5yakwpv2,1,"Did the experiment go smoothly or were there problems? (Note: Your compensation will not depend on your answer below, so please be honest.)!!!",Radio,3293,Smooth
J007134211_ecm,yz5yakwpv2,2,"Have you participated in this experiment (or another experiment using the same learning materials) before?",Radio,6547,DoneItBefore
J007134211_ecm,yz5yakwpv2,3,"How much fun was this experiment? <p>1 being very fun -- 7 being the MOST FUN EVER</p>",Likert,10471,7
J007134211_ecm,yz5yakwpv2,4,"Were you doing anything else while this experiment was going on? You will get credit no matter how you respond here.",Text,12435,no
J007134211_ecm,yz5yakwpv2,5,"Which of the following problems did you have?",Checkbox,4938,none
J00708126_KNS,0hykat3i8z,1,"Did the experiment go smoothly or were there problems? (Note: Your compensation will not depend on your answer below, so please be honest.)!!!",Radio,9881,Smooth
J00708126_KNS,0hykat3i8z,2,"Have you participated in this experiment (or another experiment using the same learning materials) before?",Radio,6708,Naive
J00708126_KNS,0hykat3i8z,3,"How much fun was this experiment? <p>1 being very fun -- 7 being the MOST FUN EVER</p>",Likert,4126,5
J00708126_KNS,0hykat3i8z,4,"Were you doing anything else while this experiment was going on? You will get credit no matter how you respond here.",Text,8169,"No, i was sitting at my desk"
J00708126_KNS,0hykat3i8z,5,"Which of the following problems did you have?",Checkbox,5265,none
J00708533_bmf,laolc2uxc0,1,"Did the experiment go smoothly or were there problems? (Note: Your compensation will not depend on your answer below, so please be honest.)!!!",Radio,14254,MinorBumps
J00708533_bmf,laolc2uxc0,2,"Have you participated in this experiment (or another experiment using the same learning materials) before?",Radio,6856,Naive
J00708533_bmf,laolc2uxc0,3,"How much fun was this experiment? <p>1 being very fun -- 7 being the MOST FUN EVER</p>",Likert,6880,3
J00708533_bmf,laolc2uxc0,4,"Were you doing anything else while this experiment was going on? You will get credit no matter how you respond here.",Text,8226,No
J00708533_bmf,laolc2uxc0,5,"Which of the following problems did you have?",Checkbox,8517,"internet connectivity problems"
J00702800_egh,endf02isq4,1,"Did the experiment go smoothly or were there problems? (Note: Your compensation will not depend on your answer below, so please be honest.)!!!",Radio,11029,Smooth
J00702800_egh,endf02isq4,2,"Have you participated in this experiment (or another experiment using the same learning materials) before?",Radio,5627,Naive
J00702800_egh,endf02isq4,3,"How much fun was this experiment? <p>1 being very fun -- 7 being the MOST FUN EVER</p>",Likert,10329,7
J00702800_egh,endf02isq4,4,"Were you doing anything else while this experiment was going on? You will get credit no matter how you respond here.",Text,7070,no
J00702800_egh,endf02isq4,5,"Which of the following problems did you have?",Checkbox,6576,none
J00696415_hgl,6takxzhp7j,1,"Did the experiment go smoothly or were there problems? (Note: Your compensation will not depend on your answer below, so please be honest.)!!!",Radio,6618,MinorBumps
J00696415_hgl,6takxzhp7j,2,"Have you participated in this experiment (or another experiment using the same learning materials) before?",Radio,5628,Naive
J00696415_hgl,6takxzhp7j,3,"How much fun was this experiment? <p>1 being very fun -- 7 being the MOST FUN EVER</p>",Likert,6669,4
J00696415_hgl,6takxzhp7j,4,"Were you doing anything else while this experiment was going on? You will get credit no matter how you respond here.",Text,8362,no
J00696415_hgl,6takxzhp7j,5,"Which of the following problems did you have?",Checkbox,11077,reload
J00715906_ZAB,xjenaa4mlt,1,"Did the experiment go smoothly or were there problems? (Note: Your compensation will not depend on your answer below, so please be honest.)!!!",Radio,13704,MinorBumps
J00715906_ZAB,xjenaa4mlt,2,"Have you participated in this experiment (or another experiment using the same learning materials) before?",Radio,11480,Naive
J00715906_ZAB,xjenaa4mlt,3,"How much fun was this experiment? <p>1 being very fun -- 7 being the MOST FUN EVER</p>",Likert,3989,6
J00715906_ZAB,xjenaa4mlt,4,"Were you doing anything else while this experiment was going on? You will get credit no matter how you respond here.",Text,31281,"i was talking to my family"
J00715906_ZAB,xjenaa4mlt,5,"Which of the following problems did you have?",Checkbox,6650,none
J00724033_agw,40f1oidqv1,1,"Did the experiment go smoothly or were there problems? (Note: Your compensation will not depend on your answer below, so please be honest.)!!!",Radio,13216,Smooth
J00724033_agw,40f1oidqv1,2,"Have you participated in this experiment (or another experiment using the same learning materials) before?",Radio,3824,Naive
J00724033_agw,40f1oidqv1,3,"How much fun was this experiment? <p>1 being very fun -- 7 being the MOST FUN EVER</p>",Likert,3734,6
J00724033_agw,40f1oidqv1,4,"Were you doing anything else while this experiment was going on? You will get credit no matter how you respond here.",Text,5735,no
J00724033_agw,40f1oidqv1,5,"Which of the following problems did you have?",Checkbox,6484,none
J00697752KHD,q9l6ygc1x9,1,"Did the experiment go smoothly or were there problems? (Note: Your compensation will not depend on your answer below, so please be honest.)!!!",Radio,7099,MinorBumps
J00697752KHD,q9l6ygc1x9,2,"Have you participated in this experiment (or another experiment using the same learning materials) before?",Radio,10421,Naive
J00697752KHD,q9l6ygc1x9,3,"How much fun was this experiment? <p>1 being very fun -- 7 being the MOST FUN EVER</p>",Likert,10859,1
J00697752KHD,q9l6ygc1x9,4,"Were you doing anything else while this experiment was going on? You will get credit no matter how you respond here.",Text,41369,no
J00697752KHD,q9l6ygc1x9,5,"Which of the following problems did you have?",Checkbox,14695,"blank page"
J00722204MDS,q5wfvgjpmy,1,"Did the experiment go smoothly or were there problems? (Note: Your compensation will not depend on your answer below, so please be honest.)!!!",Radio,12728,Smooth
J00722204MDS,q5wfvgjpmy,2,"Have you participated in this experiment (or another experiment using the same learning materials) before?",Radio,10408,Naive
J00722204MDS,q5wfvgjpmy,3,"How much fun was this experiment? <p>1 being very fun -- 7 being the MOST FUN EVER</p>",Likert,26396,4
J00722204MDS,q5wfvgjpmy,4,"Were you doing anything else while this experiment was going on? You will get credit no matter how you respond here.",Text,11079,no
J00722204MDS,q5wfvgjpmy,5,"Which of the following problems did you have?",Checkbox,11287,none
J00710132_mku,9ox3yma62u,1,"Did the experiment go smoothly or were there problems? (Note: Your compensation will not depend on your answer below, so please be honest.)!!!",Radio,2894,Smooth
J00710132_mku,9ox3yma62u,2,"Have you participated in this experiment (or another experiment using the same learning materials) before?",Radio,5084,Naive
J00710132_mku,9ox3yma62u,3,"How much fun was this experiment? <p>1 being very fun -- 7 being the MOST FUN EVER</p>",Likert,15299,3
J00710132_mku,9ox3yma62u,4,"Were you doing anything else while this experiment was going on? You will get credit no matter how you respond here.",Text,7046,no
J00710132_mku,9ox3yma62u,5,"Which of the following problems did you have?",Checkbox,4338,none
J00710311_tmv,dn47rl8knu,1,"Did the experiment go smoothly or were there problems? (Note: Your compensation will not depend on your answer below, so please be honest.)!!!",Radio,5691,MinorBumps
J00710311_tmv,dn47rl8knu,2,"Have you participated in this experiment (or another experiment using the same learning materials) before?",Radio,5434,Naive
J00710311_tmv,dn47rl8knu,3,"How much fun was this experiment? <p>1 being very fun -- 7 being the MOST FUN EVER</p>",Likert,5929,2
J00710311_tmv,dn47rl8knu,4,"Were you doing anything else while this experiment was going on? You will get credit no matter how you respond here.",Text,15380,"Started looking up what things were "
J00710311_tmv,dn47rl8knu,5,"Which of the following problems did you have?",Checkbox,6472,none
J00714015,riqeo58wdu,1,"Did the experiment go smoothly or were there problems? (Note: Your compensation will not depend on your answer below, so please be honest.)!!!",Radio,17028,MinorBumps
J00714015,riqeo58wdu,2,"Have you participated in this experiment (or another experiment using the same learning materials) before?",Radio,25753,Naive
J00714015,riqeo58wdu,3,"How much fun was this experiment? <p>1 being very fun -- 7 being the MOST FUN EVER</p>",Likert,17071,4
J00714015,riqeo58wdu,4,"Were you doing anything else while this experiment was going on? You will get credit no matter how you respond here.",Text,17270,No
J00714015,riqeo58wdu,5,"Which of the following problems did you have?",Checkbox,27454,reload
J00711068IR,h7jbiuxm7h,1,"Did the experiment go smoothly or were there problems? (Note: Your compensation will not depend on your answer below, so please be honest.)!!!",Radio,2997,Smooth
J00711068IR,h7jbiuxm7h,2,"Have you participated in this experiment (or another experiment using the same learning materials) before?",Radio,4645,Naive
J00711068IR,h7jbiuxm7h,3,"How much fun was this experiment? <p>1 being very fun -- 7 being the MOST FUN EVER</p>",Likert,5995,5
J00711068IR,h7jbiuxm7h,4,"Were you doing anything else while this experiment was going on? You will get credit no matter how you respond here.",Text,10267,no
J00711068IR,h7jbiuxm7h,5,"Which of the following problems did you have?",Checkbox,5717,none
J00715836_FL,aw1mstizcl,1,"Did the experiment go smoothly or were there problems? (Note: Your compensation will not depend on your answer below, so please be honest.)!!!",Radio,2472,Smooth
J00715836_FL,aw1mstizcl,2,"Have you participated in this experiment (or another experiment using the same learning materials) before?",Radio,9592,Naive
J00715836_FL,aw1mstizcl,3,"How much fun was this experiment? <p>1 being very fun -- 7 being the MOST FUN EVER</p>",Likert,13071,6
J00715836_FL,aw1mstizcl,4,"Were you doing anything else while this experiment was going on? You will get credit no matter how you respond here.",Text,8215,no
J00715836_FL,aw1mstizcl,5,"Which of the following problems did you have?",Checkbox,6712,none
J00720106_krh,q2zcb26z1w,1,"Did the experiment go smoothly or were there problems? (Note: Your compensation will not depend on your answer below, so please be honest.)!!!",Radio,8206,Smooth
J00720106_krh,q2zcb26z1w,2,"Have you participated in this experiment (or another experiment using the same learning materials) before?",Radio,6904,Naive
J00720106_krh,q2zcb26z1w,3,"How much fun was this experiment? <p>1 being very fun -- 7 being the MOST FUN EVER</p>",Likert,5752,4
J00720106_krh,q2zcb26z1w,4,"Were you doing anything else while this experiment was going on? You will get credit no matter how you respond here.",Text,5657,no
J00720106_krh,q2zcb26z1w,5,"Which of the following problems did you have?",Checkbox,5758,none
J00670274,r18m7f0a8y,1,"Did the experiment go smoothly or were there problems? (Note: Your compensation will not depend on your answer below, so please be honest.)!!!",Radio,2241,Smooth
J00670274,r18m7f0a8y,2,"Have you participated in this experiment (or another experiment using the same learning materials) before?",Radio,2732,Naive
J00670274,r18m7f0a8y,3,"How much fun was this experiment? <p>1 being very fun -- 7 being the MOST FUN EVER</p>",Likert,3882,3
J00670274,r18m7f0a8y,4,"Were you doing anything else while this experiment was going on? You will get credit no matter how you respond here.",Text,6869,nope
J00670274,r18m7f0a8y,5,"Which of the following problems did you have?",Checkbox,6040,none
J00690160_bnt,co0sir5vyw,1,"Did the experiment go smoothly or were there problems? (Note: Your compensation will not depend on your answer below, so please be honest.)!!!",Radio,9081,Smooth
J00690160_bnt,co0sir5vyw,2,"Have you participated in this experiment (or another experiment using the same learning materials) before?",Radio,7305,Naive
J00690160_bnt,co0sir5vyw,3,"How much fun was this experiment? <p>1 being very fun -- 7 being the MOST FUN EVER</p>",Likert,16946,0
J00690160_bnt,co0sir5vyw,4,"Were you doing anything else while this experiment was going on? You will get credit no matter how you respond here.",Text,7876,No
J00690160_bnt,co0sir5vyw,5,"Which of the following problems did you have?",Checkbox,6058,none
DDB,ie7dj4s2t4,1,"Did the experiment go smoothly or were there problems? (Note: Your compensation will not depend on your answer below, so please be honest.)!!!",Radio,2432,Smooth
DDB,ie7dj4s2t4,2,"Have you participated in this experiment (or another experiment using the same learning materials) before?",Radio,2373,Naive
DDB,ie7dj4s2t4,3,"How much fun was this experiment? <p>1 being very fun -- 7 being the MOST FUN EVER</p>",Likert,5328,7
DDB,ie7dj4s2t4,4,"Were you doing anything else while this experiment was going on? You will get credit no matter how you respond here.",Text,5013,No
DDB,ie7dj4s2t4,5,"Which of the following problems did you have?",Checkbox,3885,"blank page"
DDB,ie7dj4s2t4,5,"Which of the following problems did you have?",Checkbox,3885,none
J00705712_TCR,sfich9rm33,1,"Did the experiment go smoothly or were there problems? (Note: Your compensation will not depend on your answer below, so please be honest.)!!!",Radio,8004,Smooth
J00705712_TCR,sfich9rm33,2,"Have you participated in this experiment (or another experiment using the same learning materials) before?",Radio,6519,Naive
J00705712_TCR,sfich9rm33,3,"How much fun was this experiment? <p>1 being very fun -- 7 being the MOST FUN EVER</p>",Likert,14748,6
J00705712_TCR,sfich9rm33,4,"Were you doing anything else while this experiment was going on? You will get credit no matter how you respond here.",Text,9578,Nope
J00705712_TCR,sfich9rm33,5,"Which of the following problems did you have?",Checkbox,9675,none
nfw2121,ng7j30wg0c,1,"Did the experiment go smoothly or were there problems? (Note: Your compensation will not depend on your answer below, so please be honest.)!!!",Radio,2792,Smooth
nfw2121,ng7j30wg0c,2,"Have you participated in this experiment (or another experiment using the same learning materials) before?",Radio,4359,Naive
nfw2121,ng7j30wg0c,3,"How much fun was this experiment? <p>1 being very fun -- 7 being the MOST FUN EVER</p>",Likert,10437,4
nfw2121,ng7j30wg0c,4,"Were you doing anything else while this experiment was going on? You will get credit no matter how you respond here.",Text,14557,"Watching football "
nfw2121,ng7j30wg0c,5,"Which of the following problems did you have?",Checkbox,12980,none
J00718883PH,gsck9io4f6,1,"Did the experiment go smoothly or were there problems? (Note: Your compensation will not depend on your answer below, so please be honest.)!!!",Radio,4321,MinorBumps
J00718883PH,gsck9io4f6,2,"Have you participated in this experiment (or another experiment using the same learning materials) before?",Radio,6471,Naive
J00718883PH,gsck9io4f6,3,"How much fun was this experiment? <p>1 being very fun -- 7 being the MOST FUN EVER</p>",Likert,5079,4
J00718883PH,gsck9io4f6,4,"Were you doing anything else while this experiment was going on? You will get credit no matter how you respond here.",Text,40009,"Yes I was singing collide by justine skye"
J00718883PH,gsck9io4f6,5,"Which of the following problems did you have?",Checkbox,10733,none
J00690096ED,ta8xyttp7t,1,"Did the experiment go smoothly or were there problems? (Note: Your compensation will not depend on your answer below, so please be honest.)!!!",Radio,20056,Smooth
J00690096ED,ta8xyttp7t,2,"Have you participated in this experiment (or another experiment using the same learning materials) before?",Radio,5991,Naive
J00690096ED,ta8xyttp7t,3,"How much fun was this experiment? <p>1 being very fun -- 7 being the MOST FUN EVER</p>",Likert,10695,4
J00690096ED,ta8xyttp7t,4,"Were you doing anything else while this experiment was going on? You will get credit no matter how you respond here.",Text,52705,"My wifi went out for a bit so I stopped and continued after a while. Sitting on the couch while parents watch tv but not paying attention to it. "
J00690096ED,ta8xyttp7t,5,"Which of the following problems did you have?",Checkbox,18667,"internet connectivity problems"
J00712344_jir,d3xc5gneaj,1,"Did the experiment go smoothly or were there problems? (Note: Your compensation will not depend on your answer below, so please be honest.)!!!",Radio,8339,MinorBumps
J00712344_jir,d3xc5gneaj,2,"Have you participated in this experiment (or another experiment using the same learning materials) before?",Radio,6076,Naive
J00712344_jir,d3xc5gneaj,3,"How much fun was this experiment? <p>1 being very fun -- 7 being the MOST FUN EVER</p>",Likert,5877,5
J00712344_jir,d3xc5gneaj,4,"Were you doing anything else while this experiment was going on? You will get credit no matter how you respond here.",Text,16427,yes
J00712344_jir,d3xc5gneaj,5,"Which of the following problems did you have?",Checkbox,20278,none
J00685260_EMG,5gvtuxjrxy,1,"Did the experiment go smoothly or were there problems? (Note: Your compensation will not depend on your answer below, so please be honest.)!!!",Radio,4379,Smooth
J00685260_EMG,5gvtuxjrxy,2,"Have you participated in this experiment (or another experiment using the same learning materials) before?",Radio,6595,Naive
J00685260_EMG,5gvtuxjrxy,3,"How much fun was this experiment? <p>1 being very fun -- 7 being the MOST FUN EVER</p>",Likert,5517,5
J00685260_EMG,5gvtuxjrxy,4,"Were you doing anything else while this experiment was going on? You will get credit no matter how you respond here.",Text,9811,no
J00685260_EMG,5gvtuxjrxy,5,"Which of the following problems did you have?",Checkbox,10050,none
J00707190_ask,fr7jt7ubyh,1,"Did the experiment go smoothly or were there problems? (Note: Your compensation will not depend on your answer below, so please be honest.)!!!",Radio,11072,Smooth
J00707190_ask,fr7jt7ubyh,2,"Have you participated in this experiment (or another experiment using the same learning materials) before?",Radio,6847,Naive
J00707190_ask,fr7jt7ubyh,3,"How much fun was this experiment? <p>1 being very fun -- 7 being the MOST FUN EVER</p>",Likert,9293,5
J00707190_ask,fr7jt7ubyh,4,"Were you doing anything else while this experiment was going on? You will get credit no matter how you respond here.",Text,13420,yes
J00707190_ask,fr7jt7ubyh,5,"Which of the following problems did you have?",Checkbox,8399,none
J00707050_hms,gdchvq9hd3,1,"Did the experiment go smoothly or were there problems? (Note: Your compensation will not depend on your answer below, so please be honest.)!!!",Radio,8163,Smooth
J00707050_hms,gdchvq9hd3,2,"Have you participated in this experiment (or another experiment using the same learning materials) before?",Radio,5054,Naive
J00707050_hms,gdchvq9hd3,3,"How much fun was this experiment? <p>1 being very fun -- 7 being the MOST FUN EVER</p>",Likert,13945,5
J00707050_hms,gdchvq9hd3,4,"Were you doing anything else while this experiment was going on? You will get credit no matter how you respond here.",Text,8194,No
J00707050_hms,gdchvq9hd3,5,"Which of the following problems did you have?",Checkbox,11723,"blank page"
J00709083_tsb,b707txv3ya,1,"Did the experiment go smoothly or were there problems? (Note: Your compensation will not depend on your answer below, so please be honest.)!!!",Radio,3268,Smooth
J00709083_tsb,b707txv3ya,2,"Have you participated in this experiment (or another experiment using the same learning materials) before?",Radio,4233,Naive
J00709083_tsb,b707txv3ya,3,"How much fun was this experiment? <p>1 being very fun -- 7 being the MOST FUN EVER</p>",Likert,3626,4
J00709083_tsb,b707txv3ya,4,"Were you doing anything else while this experiment was going on? You will get credit no matter how you respond here.",Text,4206,No
J00709083_tsb,b707txv3ya,5,"Which of the following problems did you have?",Checkbox,5191,none
j00716025KSH,jd1cuc8lgx,1,"Did the experiment go smoothly or were there problems? (Note: Your compensation will not depend on your answer below, so please be honest.)!!!",Radio,5634,Smooth
j00716025KSH,jd1cuc8lgx,2,"Have you participated in this experiment (or another experiment using the same learning materials) before?",Radio,4434,Naive
j00716025KSH,jd1cuc8lgx,3,"How much fun was this experiment? <p>1 being very fun -- 7 being the MOST FUN EVER</p>",Likert,8948,5
j00716025KSH,jd1cuc8lgx,4,"Were you doing anything else while this experiment was going on? You will get credit no matter how you respond here.",Text,12004,"in math class"
j00716025KSH,jd1cuc8lgx,5,"Which of the following problems did you have?",Checkbox,5595,none
J00692277_las,f1rl5yy229,1,"Did the experiment go smoothly or were there problems? (Note: Your compensation will not depend on your answer below, so please be honest.)!!!",Radio,11305,Smooth
J00692277_las,f1rl5yy229,2,"Have you participated in this experiment (or another experiment using the same learning materials) before?",Radio,5539,Naive
J00692277_las,f1rl5yy229,3,"How much fun was this experiment? <p>1 being very fun -- 7 being the MOST FUN EVER</p>",Likert,3766,1
