Username,ID,ExperimentName,Session,Trial,Date,TimeDif,"Condition Number","Stimuli File","Order File","Condition Description","Condition Notes",Stimuli*Cue,Stimuli*Answer,Stimuli*Shuffle,"Stimuli*Stimuli Notes",Stimuli*Value,Stimuli*Rand,Procedure*Item,"Procedure*Trial Type","Procedure*Max Time","Procedure*Min Time",Procedure*Text,"Procedure*Procedure Notes",Procedure*Shuffle,Response*RT,Response*Response,Response*Accuracy,Response*RTfirst,Response*RTlast,Response*strictAcc,Response*lenientAcc,Response*focus,Response*JOL,Response*Focus
w488621_kw,od9t29hffu,"Affordance Norms_USM",1,1,2023-01-08T03:20:04+00:00,11.371526002884,11,"updated stim.csv",Version11.csv,"Version 11","List 11",,,,,,,0,Instruct,-,10,"In this section, you will be presented with a series of objects. Please name as many possible uses for this object as you can think of by typing them in the box below each object.",,Instruct1,11082,,,-1,-1,,,,,1
w488621_kw,od9t29hffu,"Affordance Norms_USM",1,2,2023-01-08T03:20:15+00:00,11.181730985641,11,"updated stim.csv",Version11.csv,"Version 11","List 11",,,,,,,0,Instruct,-,10,"Please keep in mind that a single object will have more than one use. For example, a ball can be thrown or can be bounced or even stepped on. When listing multiple uses for one object, please separate each use with a comma (i.e., thrown, bounced, stepped on)",,Instruct2,10963,,,-1,-1,,,,,1
w488621_kw,od9t29hffu,"Affordance Norms_USM",1,3,2023-01-08T03:20:18+00:00,3.2656300067902,11,"updated stim.csv",Version11.csv,"Version 11","List 11",,,,,,,0,Instruct,-,-,"Before starting the experiment, you will complete a short practice sesstion. Press ENTER when you are ready to begin.",,Instruct3,3091,,,-1,-1,,,,,1
w488621_kw,od9t29hffu,"Affordance Norms_USM",1,4,2023-01-08T03:20:30+00:00,11.857100009918,11,"updated stim.csv",Version11.csv,"Version 11","List 11",paperwork,,3001,5.625,1866,0.124284162,3002,BOI,-,-,"Please name all of the ways you could use this object. Keep in mind that one object can have many uses. Separate your responses with a comma.",,n,11503,,,2222,8116,,,,"read, study, highlight",1
w488621_kw,od9t29hffu,"Affordance Norms_USM",1,5,2023-01-08T03:20:41+00:00,11.417755842209,11,"updated stim.csv",Version11.csv,"Version 11","List 11",grain,,3004,5.217391304,1143,0.226863762,3005,BOI,-,-,"Please name all of the ways you could use this object. Keep in mind that one object can have many uses. Separate your responses with a comma.",,n,11062,,,4006,10159,,,,"eat, pick, work, sow",1
w488621_kw,od9t29hffu,"Affordance Norms_USM",1,6,2023-01-08T03:21:04+00:00,22.879132986069,11,"updated stim.csv",Version11.csv,"Version 11","List 11",saucer,,3005,5.777777778,2249,0.304808074,3006,BOI,-,-,"Please name all of the ways you could use this object. Keep in mind that one object can have many uses. Separate your responses with a comma.",,n,22688,,,4265,21551,,,,"container, dipping, flying, transportation",1
w488621_kw,od9t29hffu,"Affordance Norms_USM",1,7,2023-01-08T03:21:14+00:00,9.357791185379,11,"updated stim.csv",Version11.csv,"Version 11","List 11",spaghetti,,3003,6,2461,0.090379998,3004,BOI,-,-,"Please name all of the ways you could use this object. Keep in mind that one object can have many uses. Separate your responses with a comma.",,n,9014,,,1669,7943,,,,"food, entertainment, art",1
w488621_kw,od9t29hffu,"Affordance Norms_USM",1,8,2023-01-08T03:21:24+00:00,10.133653879166,11,"updated stim.csv",Version11.csv,"Version 11","List 11",shortening,,3002,4.92,2358,0.604328482,3003,BOI,-,-,"Please name all of the ways you could use this object. Keep in mind that one object can have many uses. Separate your responses with a comma.",,n,9779,,,1699,6422,,,,"science, baking",1
w488621_kw,od9t29hffu,"Affordance Norms_USM",1,9,2023-01-08T03:21:27+00:00,3.1172800064087,11,"updated stim.csv",Version11.csv,"Version 11","List 11",,,,,,,0,Instruct,-,-,"You have completed this section. Press ENTER to continue",,"Instruct 5",2964,,,-1,-1,,,,,1
w488621_kw,od9t29hffu,"Affordance Norms_USM",1,10,2023-01-08T03:22:51+00:00,84.011533021927,11,"updated stim.csv",Version11.csv,"Version 11","List 11",,,,,,,0,Instruct,-,-,"You will now start the full experiment. Press ENTER when you are ready to begin.",,,83128,,,-1,-1,,,,,1
w488621_kw,od9t29hffu,"Affordance Norms_USM",1,11,2023-01-08T03:23:18+00:00,27.176769971848,11,"updated stim.csv",Version11.csv,"Version 11","List 11",dirt,,324,5.08,801,0.738677518,325,BOI,-,-,"Please name all of the ways you could use this object. Keep in mind that one object can have many uses. Separate your responses with a comma.",,y,26908,,,2712,26090,,,,"building, foundation, playing, gardening",1
w488621_kw,od9t29hffu,"Affordance Norms_USM",1,12,2023-01-08T03:23:41+00:00,23.061255931854,11,"updated stim.csv",Version11.csv,"Version 11","List 11",trigger,,319,5.16,2776,0.22608946,320,BOI,-,-,"Please name all of the ways you could use this object. Keep in mind that one object can have many uses. Separate your responses with a comma.",,y,22849,,,6829,20665,,,,"building, shooting, playing a game",1
w488621_kw,od9t29hffu,"Affordance Norms_USM",1,13,2023-01-08T03:23:59+00:00,17.986054182053,11,"updated stim.csv",Version11.csv,"Version 11","List 11",teaspoonful,,322,4.4,2654,0.628822153,323,BOI,-,-,"Please name all of the ways you could use this object. Keep in mind that one object can have many uses. Separate your responses with a comma.",,y,17760,,,5214,16794,,,,"measuring, baking, cooking, eating, health care",1
w488621_kw,od9t29hffu,"Affordance Norms_USM",1,14,2023-01-08T03:24:22+00:00,23.132530927658,11,"updated stim.csv",Version11.csv,"Version 11","List 11",butt,,311,5.652173913,374,0.608581961,312,BOI,-,-,"Please name all of the ways you could use this object. Keep in mind that one object can have many uses. Separate your responses with a comma.",,y,22927,,,5711,21581,,,,"sitting, working out, eating (pork butt)",1
w488621_kw,od9t29hffu,"Affordance Norms_USM",1,15,2023-01-08T03:24:45+00:00,22.517072916031,11,"updated stim.csv",Version11.csv,"Version 11","List 11",pan,,326,6.409090909,1856,0.49712645,327,BOI,-,-,"Please name all of the ways you could use this object. Keep in mind that one object can have many uses. Separate your responses with a comma.",,y,22314,,,2212,21435,,,,"cooking, baking, weapon, eating (pan is bread in Spanish)",1
w488621_kw,od9t29hffu,"Affordance Norms_USM",1,16,2023-01-08T03:24:58+00:00,13.232824087143,11,"updated stim.csv",Version11.csv,"Version 11","List 11",stepdaughter,,313,4.72,2525,0.735803548,314,BOI,-,-,"Please name all of the ways you could use this object. Keep in mind that one object can have many uses. Separate your responses with a comma.",,y,13000,,,9136,12184,,,,"loving, caring",1
w488621_kw,od9t29hffu,"Affordance Norms_USM",1,17,2023-01-08T03:25:13+00:00,15.487634897232,11,"updated stim.csv",Version11.csv,"Version 11","List 11",parakeet,,328,5.12,1870,0.759142375,329,BOI,-,-,"Please name all of the ways you could use this object. Keep in mind that one object can have many uses. Separate your responses with a comma.",,y,15287,,,5425,14318,,,,"weapon, caring, loving",1
w488621_kw,od9t29hffu,"Affordance Norms_USM",1,18,2023-01-08T03:25:38+00:00,24.700305223465,11,"updated stim.csv",Version11.csv,"Version 11","List 11",corn,,316,6,644,0.631792512,317,BOI,-,-,"Please name all of the ways you could use this object. Keep in mind that one object can have many uses. Separate your responses with a comma.",,y,24435,,,4622,22884,,,,"eating, popping, cooking, stuffing, heat pack",1
w488621_kw,od9t29hffu,"Affordance Norms_USM",1,19,2023-01-08T03:25:54+00:00,16.277169942856,11,"updated stim.csv",Version11.csv,"Version 11","List 11",furnace,,330,4.68,1066,0.954439673,331,BOI,-,-,"Please name all of the ways you could use this object. Keep in mind that one object can have many uses. Separate your responses with a comma.",,y,16036,,,2284,11602,,,,"heat, cooking, comfort",1
w488621_kw,od9t29hffu,"Affordance Norms_USM",1,20,2023-01-08T03:26:06+00:00,12.036079883575,11,"updated stim.csv",Version11.csv,"Version 11","List 11",hibachi,,312,4.666666667,1284,0.898411228,313,BOI,-,-,"Please name all of the ways you could use this object. Keep in mind that one object can have many uses. Separate your responses with a comma.",,y,11704,,,3057,9141,,,,food,1
w488621_kw,od9t29hffu,"Affordance Norms_USM",1,21,2023-01-08T03:26:20+00:00,13.281574010849,11,"updated stim.csv",Version11.csv,"Version 11","List 11",device,,302,5.75,784,0.029470498,303,BOI,-,-,"Please name all of the ways you could use this object. Keep in mind that one object can have many uses. Separate your responses with a comma.",,y,13057,,,1856,11330,,,,"calling, texting, playing, studying",1
w488621_kw,od9t29hffu,"Affordance Norms_USM",1,22,2023-01-08T03:26:46+00:00,25.975039958954,11,"updated stim.csv",Version11.csv,"Version 11","List 11",apartments,,309,4.851851852,56,0.982478451,310,BOI,-,-,"Please name all of the ways you could use this object. Keep in mind that one object can have many uses. Separate your responses with a comma.",,y,25731,,,2507,24967,,,,"living, cooking, sleeping, eating, cleaning, studying, relaxing",1
w488621_kw,od9t29hffu,"Affordance Norms_USM",1,23,2023-01-08T03:27:07+00:00,21.609888076782,11,"updated stim.csv",Version11.csv,"Version 11","List 11",flatiron,,310,5.590909091,1004,0.687807092,311,BOI,-,-,"Please name all of the ways you could use this object. Keep in mind that one object can have many uses. Separate your responses with a comma.",,y,21399,,,6111,21119,,,,"straightening hair, curling hair, smoothing out wrinkles",1
w488621_kw,od9t29hffu,"Affordance Norms_USM",1,24,2023-01-08T03:27:17+00:00,9.5375571250916,11,"updated stim.csv",Version11.csv,"Version 11","List 11",molasses,,320,5,1675,0.906722331,321,BOI,-,-,"Please name all of the ways you could use this object. Keep in mind that one object can have many uses. Separate your responses with a comma.",,y,9321,,,2042,5380,,,,"eating, glue",1
w488621_kw,od9t29hffu,"Affordance Norms_USM",1,25,2023-01-08T03:27:24+00:00,6.6865379810333,11,"updated stim.csv",Version11.csv,"Version 11","List 11",bondsman,,307,4.416666667,266,0.076800302,308,BOI,-,-,"Please name all of the ways you could use this object. Keep in mind that one object can have many uses. Separate your responses with a comma.",,y,6412,,,1828,5779,,,,"I don't know what this is",1
w488621_kw,od9t29hffu,"Affordance Norms_USM",1,26,2023-01-08T03:27:32+00:00,8.2827689647675,11,"updated stim.csv",Version11.csv,"Version 11","List 11",rectum,,308,5.041666667,2150,0.369250805,309,BOI,-,-,"Please name all of the ways you could use this object. Keep in mind that one object can have many uses. Separate your responses with a comma.",,y,8071,,,2394,7780,,,,"I don't know what this is",1
w488621_kw,od9t29hffu,"Affordance Norms_USM",1,27,2023-01-08T03:28:07+00:00,35.07365489006,11,"updated stim.csv",Version11.csv,"Version 11","List 11",belt,,317,5.80952381,202,0.73583162,318,BOI,-,-,"Please name all of the ways you could use this object. Keep in mind that one object can have many uses. Separate your responses with a comma.",,y,34338,,,6596,34083,,,,"styling an outfit, keeping pants on tight, attatchment",1
w488621_kw,od9t29hffu,"Affordance Norms_USM",1,28,2023-01-08T03:28:12+00:00,5.0610990524292,11,"updated stim.csv",Version11.csv,"Version 11","List 11",mongoose,,329,4.5,1679,0.318991097,330,BOI,-,-,"Please name all of the ways you could use this object. Keep in mind that one object can have many uses. Separate your responses with a comma.",,y,4818,,,2658,4607,,,,entertainment,1
w488621_kw,od9t29hffu,"Affordance Norms_USM",1,29,2023-01-08T03:28:24+00:00,11.616928100586,11,"updated stim.csv",Version11.csv,"Version 11","List 11",taffy,,323,4.6,2622,0.044666984,324,BOI,-,-,"Please name all of the ways you could use this object. Keep in mind that one object can have many uses. Separate your responses with a comma.",,y,11249,,,1477,5613,,,,food,1
w488621_kw,od9t29hffu,"Affordance Norms_USM",1,30,2023-01-08T03:28:34+00:00,10.768435955048,11,"updated stim.csv",Version11.csv,"Version 11","List 11",billiards,,327,4.925925926,216,0.526458122,328,BOI,-,-,"Please name all of the ways you could use this object. Keep in mind that one object can have many uses. Separate your responses with a comma.",,y,10425,,,2366,10245,,,,"entertainment, playing, displaying",1
w488621_kw,od9t29hffu,"Affordance Norms_USM",1,31,2023-01-08T03:28:45+00:00,10.195855855942,11,"updated stim.csv",Version11.csv,"Version 11","List 11",crust,,303,5.125,716,0.683574325,304,BOI,-,-,"Please name all of the ways you could use this object. Keep in mind that one object can have many uses. Separate your responses with a comma.",,y,10001,,,1496,9450,,,,"eating, baking, stuffing",1
w488621_kw,od9t29hffu,"Affordance Norms_USM",1,32,2023-01-08T03:28:49+00:00,4.7954800128937,11,"updated stim.csv",Version11.csv,"Version 11","List 11",grandchild,,315,5.24,1145,0.440329114,316,BOI,-,-,"Please name all of the ways you could use this object. Keep in mind that one object can have many uses. Separate your responses with a comma.",,y,4332,,,1691,4124,,,,"loving, caring",1
w488621_kw,od9t29hffu,"Affordance Norms_USM",1,33,2023-01-08T03:28:55+00:00,5.6679720878601,11,"updated stim.csv",Version11.csv,"Version 11","List 11",mullets,,318,4.304347826,1718,0.363544582,319,BOI,-,-,"Please name all of the ways you could use this object. Keep in mind that one object can have many uses. Separate your responses with a comma.",,y,5437,,,3043,5166,,,,entertainment,1
w488621_kw,od9t29hffu,"Affordance Norms_USM",1,34,2023-01-08T03:29:05+00:00,10.231318950653,11,"updated stim.csv",Version11.csv,"Version 11","List 11",nut,,306,5.555555556,1789,0.73002974,307,BOI,-,-,"Please name all of the ways you could use this object. Keep in mind that one object can have many uses. Separate your responses with a comma.",,y,9851,,,3026,8425,,,,"eating, cooking, stuffing",1
w488621_kw,od9t29hffu,"Affordance Norms_USM",1,35,2023-01-08T03:29:11+00:00,5.7695920467377,11,"updated stim.csv",Version11.csv,"Version 11","List 11",kettledrum,,304,4.916666667,1410,0.325157872,305,BOI,-,-,"Please name all of the ways you could use this object. Keep in mind that one object can have many uses. Separate your responses with a comma.",,y,5542,,,1776,5354,,,,"I don't know what this is",1
w488621_kw,od9t29hffu,"Affordance Norms_USM",1,36,2023-01-08T03:29:26+00:00,14.828876972198,11,"updated stim.csv",Version11.csv,"Version 11","List 11",acupuncture,,301,5.285714286,12,0.916607563,302,BOI,-,-,"Please name all of the ways you could use this object. Keep in mind that one object can have many uses. Separate your responses with a comma.",,y,14347,,,3007,14163,,,,"stress relief, therapy",1
w488621_kw,od9t29hffu,"Affordance Norms_USM",1,37,2023-01-08T03:29:47+00:00,21.267911911011,11,"updated stim.csv",Version11.csv,"Version 11","List 11",raincoat,,325,5.954545455,2130,0.311146933,326,BOI,-,-,"Please name all of the ways you could use this object. Keep in mind that one object can have many uses. Separate your responses with a comma.",,y,20987,,,3667,19537,,,,"keeping me dry, protection, warmth",1
w488621_kw,od9t29hffu,"Affordance Norms_USM",1,38,2023-01-08T03:30:05+00:00,18.163911104202,11,"updated stim.csv",Version11.csv,"Version 11","List 11",flowerpot,,314,5,1017,0.528229772,315,BOI,-,-,"Please name all of the ways you could use this object. Keep in mind that one object can have many uses. Separate your responses with a comma.",,y,17959,,,2467,17764,,,,"growing, arts and crafts, painting, storage",1
w488621_kw,od9t29hffu,"Affordance Norms_USM",1,39,2023-01-08T03:30:19+00:00,13.687144994736,11,"updated stim.csv",Version11.csv,"Version 11","List 11",village,,321,4.44,2858,0.883973737,322,BOI,-,-,"Please name all of the ways you could use this object. Keep in mind that one object can have many uses. Separate your responses with a comma.",,y,13343,,,2017,13220,,,,"community, prayer",1
w488621_kw,od9t29hffu,"Affordance Norms_USM",1,40,2023-01-08T03:30:31+00:00,11.742422103882,11,"updated stim.csv",Version11.csv,"Version 11","List 11",casserole,,305,5.88,452,0.300410442,306,BOI,-,-,"Please name all of the ways you could use this object. Keep in mind that one object can have many uses. Separate your responses with a comma.",,y,11291,,,1749,11099,,,,"eating, cooking, serving, warming",1
w488621_kw,od9t29hffu,"Affordance Norms_USM",1,41,2023-01-08T03:30:33+00:00,2.0588228702545,11,"updated stim.csv",Version11.csv,"Version 11","List 11",,,,,,,0,Instruct,,,"You will now be asked a few questions about your experience today.",,"Instruct 4",1807,,,-1,-1,,,,,1
