Username,ID,ExperimentName,Session,Trial,Date,TimeDif,"Condition Number","Stimuli File","Order File","Condition Description","Condition Notes",Stimuli*Cue,Stimuli*Answer,Stimuli*Shuffle,"Stimuli*Stimuli Notes",Stimuli*Value,Procedure*Item,"Procedure*Trial Type","Procedure*Max Time","Procedure*Min Time",Procedure*Text,"Procedure*Procedure Notes",Procedure*Shuffle,Response*RT,Response*Response,Response*Accuracy,Response*RTfirst,Response*RTlast,Response*strictAcc,Response*lenientAcc,Response*focus,Response*JOL,Response*Focus
J00691048_amb,ns9pal7x0z,"Affordance Norms_South Alabama",1,1,2022-11-17T13:07:50+00:00,11.001430034637,2,"updated stim.csv",Version2.csv,"Version 2","List 2",,,,,,0,Instruct,-,10,"In this section, you will be presented with a series of objects. Please name as many possible uses for this object as you can think of by typing them in the box below each object.",,Instruct1,10819,,,-1,-1,,,,,1
J00691048_amb,ns9pal7x0z,"Affordance Norms_South Alabama",1,2,2022-11-17T13:08:02+00:00,12.007982969284,2,"updated stim.csv",Version2.csv,"Version 2","List 2",,,,,,0,Instruct,-,10,"Please keep in mind that a single object will have more than one use. For example, a ball can be thrown or can be bounced or even stepped on. When listing multiple uses for one object, please separate each use with a comma (i.e., thrown, bounced, stepped on)",,Instruct2,11773,,,-1,-1,,,,,1
J00691048_amb,ns9pal7x0z,"Affordance Norms_South Alabama",1,3,2022-11-17T13:08:08+00:00,5.9614272117615,2,"updated stim.csv",Version2.csv,"Version 2","List 2",,,,,,0,Instruct,-,-,"Before starting the experiment, you will complete a short practice sesstion. Press ENTER when you are ready to begin.",,Instruct3,5731,,,-1,-1,,,,,1
J00691048_amb,ns9pal7x0z,"Affordance Norms_South Alabama",1,4,2022-11-17T13:09:34+00:00,85.771480798721,2,"updated stim.csv",Version2.csv,"Version 2","List 2",grain,,3004,5.217391304,1143,3005,BOI,-,-,"Please name all of the ways you could use this object. Keep in mind that one object can have many uses. Separate your responses with a comma.",,n,85534,,,25555,84477,,,,"Cooking,oil,livestock food,alcohol",1
J00691048_amb,ns9pal7x0z,"Affordance Norms_South Alabama",1,5,2022-11-17T13:10:13+00:00,39.542677164078,2,"updated stim.csv",Version2.csv,"Version 2","List 2",saucer,,3005,5.777777778,2249,3006,BOI,-,-,"Please name all of the ways you could use this object. Keep in mind that one object can have many uses. Separate your responses with a comma.",,n,39317,,,3804,38155,,,,"Hold food, hold paint, prep food,stack, decoration",1
J00691048_amb,ns9pal7x0z,"Affordance Norms_South Alabama",1,6,2022-11-17T13:11:05+00:00,52.248075008392,2,"updated stim.csv",Version2.csv,"Version 2","List 2",spaghetti,,3003,6,2461,3004,BOI,-,-,"Please name all of the ways you could use this object. Keep in mind that one object can have many uses. Separate your responses with a comma.",,n,52019,,,4013,47397,,,,"Eaten, cooked, food fights",1
J00691048_amb,ns9pal7x0z,"Affordance Norms_South Alabama",1,7,2022-11-17T13:11:44+00:00,38.757432937622,2,"updated stim.csv",Version2.csv,"Version 2","List 2",shortening,,3002,4.92,2358,3003,BOI,-,-,"Please name all of the ways you could use this object. Keep in mind that one object can have many uses. Separate your responses with a comma.",,n,38516,,,5594,29304,,,,"Baking, greasing the pan",1
J00691048_amb,ns9pal7x0z,"Affordance Norms_South Alabama",1,8,2022-11-17T13:13:29+00:00,105.0359749794,2,"updated stim.csv",Version2.csv,"Version 2","List 2",paperwork,,3001,5.625,1866,3002,BOI,-,-,"Please name all of the ways you could use this object. Keep in mind that one object can have many uses. Separate your responses with a comma.",,n,104806,,,2534,101869,,,,"Data, consent, organization, protocol, surveys,demographics,studies",1
J00691048_amb,ns9pal7x0z,"Affordance Norms_South Alabama",1,9,2022-11-17T13:13:31+00:00,2.2320098876953,2,"updated stim.csv",Version2.csv,"Version 2","List 2",,,,,,0,Instruct,-,-,"You have completed this section. Press ENTER to continue",,"Instruct 5",2083,,,-1,-1,,,,,1
J00691048_amb,ns9pal7x0z,"Affordance Norms_South Alabama",1,10,2022-11-17T13:13:34+00:00,2.9685702323914,2,"updated stim.csv",Version2.csv,"Version 2","List 2",,,,,,0,Instruct,-,-,"You will now start the full experiment. Press ENTER when you are ready to begin.",,,2839,,,-1,-1,,,,,1
J00691048_amb,ns9pal7x0z,"Affordance Norms_South Alabama",1,11,2022-11-17T13:14:07+00:00,32.867878913879,2,"updated stim.csv",Version2.csv,"Version 2","List 2",teabag,,42,6.32,2642,43,BOI,-,-,"Please name all of the ways you could use this object. Keep in mind that one object can have many uses. Separate your responses with a comma.",,y,32647,,,5497,29224,,,,"Making tea, absorbing odor, flavor, medication",1
J00691048_amb,ns9pal7x0z,"Affordance Norms_South Alabama",1,12,2022-11-17T13:15:22+00:00,74.790184020996,2,"updated stim.csv",Version2.csv,"Version 2","List 2",barman,,39,4.818181818,150,40,BOI,-,-,"Please name all of the ways you could use this object. Keep in mind that one object can have many uses. Separate your responses with a comma.",,y,74518,,,3820,72081,,,,"Pouring shots, making cocktails, counting money, checking customers out, stocking, inventory, cleaning the bar",1
J00691048_amb,ns9pal7x0z,"Affordance Norms_South Alabama",1,13,2022-11-17T13:17:09+00:00,106.95942306519,2,"updated stim.csv",Version2.csv,"Version 2","List 2",toy,,43,6.08,2750,44,BOI,-,-,"Please name all of the ways you could use this object. Keep in mind that one object can have many uses. Separate your responses with a comma.",,y,56099,,,1942,53912,,,,"Rolled, thrown, stepped on, decor, play",0.993
J00691048_amb,ns9pal7x0z,"Affordance Norms_South Alabama",1,14,2022-11-17T13:18:28+00:00,78.986001968384,2,"updated stim.csv",Version2.csv,"Version 2","List 2",lettuce,,33,6.083333333,1497,34,BOI,-,-,"Please name all of the ways you could use this object. Keep in mind that one object can have many uses. Separate your responses with a comma.",,y,78744,,,1983,69145,,,,"Salad, sandwiches, animal food, wraps, tacos",1
J00691048_amb,ns9pal7x0z,"Affordance Norms_South Alabama",1,15,2022-11-17T13:18:51+00:00,23.27462887764,2,"updated stim.csv",Version2.csv,"Version 2","List 2",turban,,40,5.148148148,2799,41,BOI,-,-,"Please name all of the ways you could use this object. Keep in mind that one object can have many uses. Separate your responses with a comma.",,y,23047,,,19862,21629,,,,Headdress,1
J00691048_amb,ns9pal7x0z,"Affordance Norms_South Alabama",1,16,2022-11-17T13:19:36+00:00,45.022437095642,2,"updated stim.csv",Version2.csv,"Version 2","List 2",prankster,,51,4.642857143,2058,52,BOI,-,-,"Please name all of the ways you could use this object. Keep in mind that one object can have many uses. Separate your responses with a comma.",,y,44789,,,2861,42111,,,,"Pranks, making people laugh, comedy shows, tv shows, embarrassing people",1
J00691048_amb,ns9pal7x0z,"Affordance Norms_South Alabama",1,17,2022-11-17T13:20:18+00:00,41.489389896393,2,"updated stim.csv",Version2.csv,"Version 2","List 2",yogurt,,49,6.347826087,2994,50,BOI,-,-,"Please name all of the ways you could use this object. Keep in mind that one object can have many uses. Separate your responses with a comma.",,y,41251,,,2126,39478,,,," stirred, frozen, mixed, eaten",1
J00691048_amb,ns9pal7x0z,"Affordance Norms_South Alabama",1,18,2022-11-17T13:20:25+00:00,6.9706029891968,2,"updated stim.csv",Version2.csv,"Version 2","List 2",trap,,57,4.695652174,2762,58,BOI,-,-,"Please name all of the ways you could use this object. Keep in mind that one object can have many uses. Separate your responses with a comma.",,y,6741,,,2369,4960,,,,"Catching things",1
J00691048_amb,ns9pal7x0z,"Affordance Norms_South Alabama",1,19,2022-11-17T13:20:36+00:00,10.794927120209,2,"updated stim.csv",Version2.csv,"Version 2","List 2",coverall,,50,4.739130435,670,51,BOI,-,-,"Please name all of the ways you could use this object. Keep in mind that one object can have many uses. Separate your responses with a comma.",,y,10560,,,3025,8818,,,,"Protection, warmth",1
J00691048_amb,ns9pal7x0z,"Affordance Norms_South Alabama",1,20,2022-11-17T13:21:40+00:00,64.379616975784,2,"updated stim.csv",Version2.csv,"Version 2","List 2",choreographer,,44,4.826086957,535,45,BOI,-,-,"Please name all of the ways you could use this object. Keep in mind that one object can have many uses. Separate your responses with a comma.",,y,64138,,,26662,47208,,,,"Dance recitals, videos, workouts, classes",1
J00691048_amb,ns9pal7x0z,"Affordance Norms_South Alabama",1,21,2022-11-17T13:22:12+00:00,32.184278964996,2,"updated stim.csv",Version2.csv,"Version 2","List 2",assemblyman,,59,4.72,89,60,BOI,-,-,"Please name all of the ways you could use this object. Keep in mind that one object can have many uses. Separate your responses with a comma.",,y,31901,,,8326,30296,,,,"Helping, assembly, making things",1
J00691048_amb,ns9pal7x0z,"Affordance Norms_South Alabama",1,22,2022-11-17T13:23:25+00:00,72.605200052261,2,"updated stim.csv",Version2.csv,"Version 2","List 2",antibiotics,,55,4.956521739,48,56,BOI,-,-,"Please name all of the ways you could use this object. Keep in mind that one object can have many uses. Separate your responses with a comma.",,y,72357,,,6784,71432,,,,"Infection control, treatment, healing",1
J00691048_amb,ns9pal7x0z,"Affordance Norms_South Alabama",1,23,2022-11-17T13:23:38+00:00,13.046010971069,2,"updated stim.csv",Version2.csv,"Version 2","List 2",godmother,,46,5.19047619,1128,47,BOI,-,-,"Please name all of the ways you could use this object. Keep in mind that one object can have many uses. Separate your responses with a comma.",,y,12801,,,5271,11406,,,,"Mentor, help, adoption",1
J00691048_amb,ns9pal7x0z,"Affordance Norms_South Alabama",1,24,2022-11-17T13:23:47+00:00,8.8025529384613,2,"updated stim.csv",Version2.csv,"Version 2","List 2",goalpost,,37,4.84,1121,38,BOI,-,-,"Please name all of the ways you could use this object. Keep in mind that one object can have many uses. Separate your responses with a comma.",,y,8569,,,4442,7607,,,,"Proof of goal",1
J00691048_amb,ns9pal7x0z,"Affordance Norms_South Alabama",1,25,2022-11-17T13:23:56+00:00,9.7109091281891,2,"updated stim.csv",Version2.csv,"Version 2","List 2",satchel,,36,5.583333333,2245,37,BOI,-,-,"Please name all of the ways you could use this object. Keep in mind that one object can have many uses. Separate your responses with a comma.",,y,9478,,,1628,6776,,,,"Holding things, accessory ",1
J00691048_amb,ns9pal7x0z,"Affordance Norms_South Alabama",1,26,2022-11-17T13:24:12+00:00,15.227887868881,2,"updated stim.csv",Version2.csv,"Version 2","List 2",blower,,53,4.48,245,54,BOI,-,-,"Please name all of the ways you could use this object. Keep in mind that one object can have many uses. Separate your responses with a comma.",,y,15001,,,5284,13820,,,,"Yard work",1
J00691048_amb,ns9pal7x0z,"Affordance Norms_South Alabama",1,27,2022-11-17T13:24:31+00:00,19.714507102966,2,"updated stim.csv",Version2.csv,"Version 2","List 2",undergarment,,58,6.074074074,2822,59,BOI,-,-,"Please name all of the ways you could use this object. Keep in mind that one object can have many uses. Separate your responses with a comma.",,y,19484,,,2770,18427,,,,"Comfort, warmth, protection, coverage",1
J00691048_amb,ns9pal7x0z,"Affordance Norms_South Alabama",1,28,2022-11-17T13:25:10+00:00,38.318305969238,2,"updated stim.csv",Version2.csv,"Version 2","List 2",dolphin,,48,4.52,817,49,BOI,-,-,"Please name all of the ways you could use this object. Keep in mind that one object can have many uses. Separate your responses with a comma.",,y,38092,,,2440,37102,,,,"Swimming, food chain, ecosystem, reproduction",1
J00691048_amb,ns9pal7x0z,"Affordance Norms_South Alabama",1,29,2022-11-17T13:25:19+00:00,9.5091490745544,2,"updated stim.csv",Version2.csv,"Version 2","List 2",newscaster,,32,4.347826087,1757,33,BOI,-,-,"Please name all of the ways you could use this object. Keep in mind that one object can have many uses. Separate your responses with a comma.",,y,9280,,,2223,7930,,,,"Spreading news, information",1
J00691048_amb,ns9pal7x0z,"Affordance Norms_South Alabama",1,30,2022-11-17T13:25:44+00:00,25.276322841644,2,"updated stim.csv",Version2.csv,"Version 2","List 2",gunpowder,,54,4.96,1201,55,BOI,-,-,"Please name all of the ways you could use this object. Keep in mind that one object can have many uses. Separate your responses with a comma.",,y,25048,,,2413,23233,,,,"Weapons, wars, crimes, target practice, making bullets",1
J00691048_amb,ns9pal7x0z,"Affordance Norms_South Alabama",1,31,2022-11-17T13:27:26+00:00,101.22286605835,2,"updated stim.csv",Version2.csv,"Version 2","List 2",yourself,,34,5.583333333,2998,35,BOI,-,-,"Please name all of the ways you could use this object. Keep in mind that one object can have many uses. Separate your responses with a comma.",,y,100992,,,33610,99728,,,,"Making friends, driving, going to class, texting, cooking, laughing, singing",1
J00691048_amb,ns9pal7x0z,"Affordance Norms_South Alabama",1,32,2022-11-17T13:27:49+00:00,23.190454959869,2,"updated stim.csv",Version2.csv,"Version 2","List 2",skittles,,38,5.24,2402,39,BOI,-,-,"Please name all of the ways you could use this object. Keep in mind that one object can have many uses. Separate your responses with a comma.",,y,22961,,,8725,21211,,,,"Eating, counting, color sorting, throwing",1
J00691048_amb,ns9pal7x0z,"Affordance Norms_South Alabama",1,33,2022-11-17T13:27:55+00:00,6.1843349933624,2,"updated stim.csv",Version2.csv,"Version 2","List 2",bottle,,35,5.464285714,287,36,BOI,-,-,"Please name all of the ways you could use this object. Keep in mind that one object can have many uses. Separate your responses with a comma.",,y,5838,,,1615,4245,,,,"Holding liquid ",1
J00691048_amb,ns9pal7x0z,"Affordance Norms_South Alabama",1,34,2022-11-17T13:28:09+00:00,13.8167719841,2,"updated stim.csv",Version2.csv,"Version 2","List 2",boot,,41,6.555555556,281,42,BOI,-,-,"Please name all of the ways you could use this object. Keep in mind that one object can have many uses. Separate your responses with a comma.",,y,13323,,,1224,10688,,,,"Wearing, foot protection",1
J00691048_amb,ns9pal7x0z,"Affordance Norms_South Alabama",1,35,2022-11-17T13:28:58+00:00,49.207556962967,2,"updated stim.csv",Version2.csv,"Version 2","List 2",mice,,47,5,1653,48,BOI,-,-,"Please name all of the ways you could use this object. Keep in mind that one object can have many uses. Separate your responses with a comma.",,y,48964,,,36895,47375,,,,"Food chain, running, testing",1
J00691048_amb,ns9pal7x0z,"Affordance Norms_South Alabama",1,36,2022-11-17T13:29:07+00:00,9.1270930767059,2,"updated stim.csv",Version2.csv,"Version 2","List 2",tripe,,56,4.7,2778,57,BOI,-,-,"Please name all of the ways you could use this object. Keep in mind that one object can have many uses. Separate your responses with a comma.",,y,8900,,,6552,8190,,,," ",1
J00691048_amb,ns9pal7x0z,"Affordance Norms_South Alabama",1,37,2022-11-17T13:29:20+00:00,12.963099956512,2,"updated stim.csv",Version2.csv,"Version 2","List 2",gondola,,52,4.916666667,1137,53,BOI,-,-,"Please name all of the ways you could use this object. Keep in mind that one object can have many uses. Separate your responses with a comma.",,y,12731,,,2876,11913,,,,"Floating, holding people, transportation",1
J00691048_amb,ns9pal7x0z,"Affordance Norms_South Alabama",1,38,2022-11-17T13:29:26+00:00,6.070631980896,2,"updated stim.csv",Version2.csv,"Version 2","List 2",hotplate,,45,5.230769231,1323,46,BOI,-,-,"Please name all of the ways you could use this object. Keep in mind that one object can have many uses. Separate your responses with a comma.",,y,5843,,,2374,4840,,,,"Keeping food hot",1
J00691048_amb,ns9pal7x0z,"Affordance Norms_South Alabama",1,39,2022-11-17T13:29:54+00:00,28.078809022903,2,"updated stim.csv",Version2.csv,"Version 2","List 2",courtyard,,31,4.392857143,668,32,BOI,-,-,"Please name all of the ways you could use this object. Keep in mind that one object can have many uses. Separate your responses with a comma.",,y,27853,,,11507,26345,,,,"Garden, picnics, sunbathing",1
J00691048_amb,ns9pal7x0z,"Affordance Norms_South Alabama",1,40,2022-11-17T13:30:15+00:00,20.48863697052,2,"updated stim.csv",Version2.csv,"Version 2","List 2",rainwater,,60,5.407407407,2133,61,BOI,-,-,"Please name all of the ways you could use this object. Keep in mind that one object can have many uses. Separate your responses with a comma.",,y,20259,,,4982,19432,,,,"Watering plants, ecosystem, weather reports",1
J00691048_amb,ns9pal7x0z,"Affordance Norms_South Alabama",1,41,2022-11-17T13:30:17+00:00,2.1883070468903,2,"updated stim.csv",Version2.csv,"Version 2","List 2",,,,,,0,Instruct,,,"You will now be asked a few questions about your experience today.",,"Instruct 4",1986,,,-1,-1,,,,,1
