Username,ID,ExperimentName,Session,Trial,Date,TimeDif,"Condition Number","Stimuli File","Order File","Condition Description","Condition Notes",Stimuli*Cue,Stimuli*Answer,Stimuli*Shuffle,"Stimuli*Stimuli Notes",Stimuli*Value,Procedure*Item,"Procedure*Trial Type","Procedure*Max Time","Procedure*Min Time",Procedure*Text,"Procedure*Procedure Notes",Procedure*Shuffle,Response*RT,Response*Response,Response*Accuracy,Response*RTfirst,Response*RTlast,Response*strictAcc,Response*lenientAcc,Response*focus,Response*JOL,Response*Focus
J00697752KHD,q9l6ygc1x9,"Affordance Norms_South Alabama",1,1,2022-11-22T01:21:19+00:00,17.247313976288,29,"updated stim.csv",Version29.csv,"Version 29","List 29",,,,,,0,Instruct,-,10,"In this section, you will be presented with a series of objects. Please name as many possible uses for this object as you can think of by typing them in the box below each object.",,Instruct1,16514,,,-1,-1,,,,,1
J00697752KHD,q9l6ygc1x9,"Affordance Norms_South Alabama",1,2,2022-11-22T01:21:31+00:00,11.605483055115,29,"updated stim.csv",Version29.csv,"Version 29","List 29",,,,,,0,Instruct,-,10,"Please keep in mind that a single object will have more than one use. For example, a ball can be thrown or can be bounced or even stepped on. When listing multiple uses for one object, please separate each use with a comma (i.e., thrown, bounced, stepped on)",,Instruct2,10972,,,-1,-1,,,,,1
J00697752KHD,q9l6ygc1x9,"Affordance Norms_South Alabama",1,3,2022-11-22T01:21:37+00:00,5.9812259674072,29,"updated stim.csv",Version29.csv,"Version 29","List 29",,,,,,0,Instruct,-,-,"Before starting the experiment, you will complete a short practice sesstion. Press ENTER when you are ready to begin.",,Instruct3,5439,,,-1,-1,,,,,1
J00697752KHD,q9l6ygc1x9,"Affordance Norms_South Alabama",1,4,2022-11-22T01:21:51+00:00,14.879683017731,29,"updated stim.csv",Version29.csv,"Version 29","List 29",spaghetti,,3003,6,2461,3004,BOI,-,-,"Please name all of the ways you could use this object. Keep in mind that one object can have many uses. Separate your responses with a comma.",,n,14350,,,7522,11730,,,,"eat, serve, ",1
J00697752KHD,q9l6ygc1x9,"Affordance Norms_South Alabama",1,5,2022-11-22T01:22:09+00:00,17.835757017136,29,"updated stim.csv",Version29.csv,"Version 29","List 29",grain,,3004,5.217391304,1143,3005,BOI,-,-,"Please name all of the ways you could use this object. Keep in mind that one object can have many uses. Separate your responses with a comma.",,n,17169,,,5543,9010,,,,"eat, bake, bread",1
J00697752KHD,q9l6ygc1x9,"Affordance Norms_South Alabama",1,6,2022-11-22T01:22:31+00:00,21.78953909874,29,"updated stim.csv",Version29.csv,"Version 29","List 29",paperwork,,3001,5.625,1866,3002,BOI,-,-,"Please name all of the ways you could use this object. Keep in mind that one object can have many uses. Separate your responses with a comma.",,n,21184,,,5207,17223,,,,"study, work, learn, read, trash, save",1
J00697752KHD,q9l6ygc1x9,"Affordance Norms_South Alabama",1,7,2022-11-22T01:22:57+00:00,26.104635000229,29,"updated stim.csv",Version29.csv,"Version 29","List 29",shortening,,3002,4.92,2358,3003,BOI,-,-,"Please name all of the ways you could use this object. Keep in mind that one object can have many uses. Separate your responses with a comma.",,n,25381,,,2402,6128,,,,"cooking, baking, ",1
J00697752KHD,q9l6ygc1x9,"Affordance Norms_South Alabama",1,8,2022-11-22T01:23:25+00:00,27.724630832672,29,"updated stim.csv",Version29.csv,"Version 29","List 29",saucer,,3005,5.777777778,2249,3006,BOI,-,-,"Please name all of the ways you could use this object. Keep in mind that one object can have many uses. Separate your responses with a comma.",,n,26913,,,7911,25373,,,,"tea time, eating, spoon rest, snacks",1
J00697752KHD,q9l6ygc1x9,"Affordance Norms_South Alabama",1,9,2022-11-22T01:26:44+00:00,199.49196100235,29,"updated stim.csv",Version29.csv,"Version 29","List 29",,,,,,0,Instruct,-,-,"You have completed this section. Press ENTER to continue",,"Instruct 5",198847,,,-1,-1,,,,,1
J00697752KHD,q9l6ygc1x9,"Affordance Norms_South Alabama",1,10,2022-11-22T01:26:48+00:00,3.4763531684875,29,"updated stim.csv",Version29.csv,"Version 29","List 29",,,,,,0,Instruct,-,-,"You will now start the full experiment. Press ENTER when you are ready to begin.",,,2905,,,-1,-1,,,,,1
J00697752KHD,q9l6ygc1x9,"Affordance Norms_South Alabama",1,11,2022-11-22T01:27:22+00:00,34.483079910278,29,"updated stim.csv",Version29.csv,"Version 29","List 29",recruiter,,841,4.347826087,2149,842,BOI,-,-,"Please name all of the ways you could use this object. Keep in mind that one object can have many uses. Separate your responses with a comma.",,y,33908,,,5445,32290,,,,"to recruit, work, military, school",1
J00697752KHD,q9l6ygc1x9,"Affordance Norms_South Alabama",1,12,2022-11-22T01:27:48+00:00,25.28333902359,29,"updated stim.csv",Version29.csv,"Version 29","List 29",wool,,870,5.392857143,2967,871,BOI,-,-,"Please name all of the ways you could use this object. Keep in mind that one object can have many uses. Separate your responses with a comma.",,y,24675,,,2986,20766,,,,"warmth, clothing, crafts, sewing, quilting,",1
J00697752KHD,q9l6ygc1x9,"Affordance Norms_South Alabama",1,13,2022-11-22T01:28:17+00:00,29.642693042755,29,"updated stim.csv",Version29.csv,"Version 29","List 29",ball,,847,6.608695652,128,848,BOI,-,-,"Please name all of the ways you could use this object. Keep in mind that one object can have many uses. Separate your responses with a comma.",,y,29037,,,1261,15855,,,,"bounce, throw, roll, toss, hit, play, juggle",1
J00697752KHD,q9l6ygc1x9,"Affordance Norms_South Alabama",1,14,2022-11-22T01:29:08+00:00,50.466969966888,29,"updated stim.csv",Version29.csv,"Version 29","List 29",shoelace,,843,6.16,2351,844,BOI,-,-,"Please name all of the ways you could use this object. Keep in mind that one object can have many uses. Separate your responses with a comma.",,y,49688,,,3134,41053,,,,"tie shoes, hang shoes",1
J00697752KHD,q9l6ygc1x9,"Affordance Norms_South Alabama",1,15,2022-11-22T01:29:26+00:00,17.889540910721,29,"updated stim.csv",Version29.csv,"Version 29","List 29",canvas,,857,5.590909091,420,858,BOI,-,-,"Please name all of the ways you could use this object. Keep in mind that one object can have many uses. Separate your responses with a comma.",,y,17324,,,2554,11905,,,,"paint, art, crafts, ",1
J00697752KHD,q9l6ygc1x9,"Affordance Norms_South Alabama",1,16,2022-11-22T01:29:41+00:00,15.904437065125,29,"updated stim.csv",Version29.csv,"Version 29","List 29",dartboard,,854,5.608695652,759,855,BOI,-,-,"Please name all of the ways you could use this object. Keep in mind that one object can have many uses. Separate your responses with a comma.",,y,15290,,,3802,14090,,,,"play darts, fun",1
J00697752KHD,q9l6ygc1x9,"Affordance Norms_South Alabama",1,17,2022-11-22T01:29:56+00:00,14.361954927444,29,"updated stim.csv",Version29.csv,"Version 29","List 29",marionette,,849,4.333333333,1607,850,BOI,-,-,"Please name all of the ways you could use this object. Keep in mind that one object can have many uses. Separate your responses with a comma.",,y,13654,,,4340,8601,,,,"play, music, ",1
J00697752KHD,q9l6ygc1x9,"Affordance Norms_South Alabama",1,18,2022-11-22T01:30:11+00:00,15.100468158722,29,"updated stim.csv",Version29.csv,"Version 29","List 29",dancer,,859,5.090909091,754,860,BOI,-,-,"Please name all of the ways you could use this object. Keep in mind that one object can have many uses. Separate your responses with a comma.",,y,14546,,,3980,10562,,,,"dance, entertainment, ",1
J00697752KHD,q9l6ygc1x9,"Affordance Norms_South Alabama",1,19,2022-11-22T01:30:25+00:00,13.873517036438,29,"updated stim.csv",Version29.csv,"Version 29","List 29",reefer,,853,4.52173913,2151,854,BOI,-,-,"Please name all of the ways you could use this object. Keep in mind that one object can have many uses. Separate your responses with a comma.",,y,13271,,,2319,7642,,,,"smoke, get high",1
J00697752KHD,q9l6ygc1x9,"Affordance Norms_South Alabama",1,20,2022-11-22T01:30:39+00:00,14.636593818665,29,"updated stim.csv",Version29.csv,"Version 29","List 29",kiwi,,844,6.08,1430,845,BOI,-,-,"Please name all of the ways you could use this object. Keep in mind that one object can have many uses. Separate your responses with a comma.",,y,14100,,,1815,12044,,,,"eat, cook, bake",1
J00697752KHD,q9l6ygc1x9,"Affordance Norms_South Alabama",1,21,2022-11-22T01:31:02+00:00,22.457480192184,29,"updated stim.csv",Version29.csv,"Version 29","List 29",drawers,,865,5.869565217,840,866,BOI,-,-,"Please name all of the ways you could use this object. Keep in mind that one object can have many uses. Separate your responses with a comma.",,y,21895,,,1564,18282,,,,"storage, pull out, push in, organize",1
J00697752KHD,q9l6ygc1x9,"Affordance Norms_South Alabama",1,22,2022-11-22T01:31:19+00:00,16.811065912247,29,"updated stim.csv",Version29.csv,"Version 29","List 29",melon,,851,5.681818182,1641,852,BOI,-,-,"Please name all of the ways you could use this object. Keep in mind that one object can have many uses. Separate your responses with a comma.",,y,16179,,,1747,5772,,,,"eat, cut, ",1
J00697752KHD,q9l6ygc1x9,"Affordance Norms_South Alabama",1,23,2022-11-22T01:31:27+00:00,8.7456979751587,29,"updated stim.csv",Version29.csv,"Version 29","List 29",shoestring,,845,6.36,2352,846,BOI,-,-,"Please name all of the ways you could use this object. Keep in mind that one object can have many uses. Separate your responses with a comma.",,y,8134,,,3353,4619,,,,"tie shoes",1
J00697752KHD,q9l6ygc1x9,"Affordance Norms_South Alabama",1,24,2022-11-22T01:31:43+00:00,15.833647012711,29,"updated stim.csv",Version29.csv,"Version 29","List 29",eggbeater,,862,5.96,893,863,BOI,-,-,"Please name all of the ways you could use this object. Keep in mind that one object can have many uses. Separate your responses with a comma.",,y,15277,,,3469,11286,,,,"beat eggs, cook, bake, ",1
J00697752KHD,q9l6ygc1x9,"Affordance Norms_South Alabama",1,25,2022-11-22T01:31:46+00:00,3.0702729225159,29,"updated stim.csv",Version29.csv,"Version 29","List 29",seaplane,,858,4.333333333,2297,859,BOI,-,-,"Please name all of the ways you could use this object. Keep in mind that one object can have many uses. Separate your responses with a comma.",,y,2574,,,2559,2559,,,,,1
J00697752KHD,q9l6ygc1x9,"Affordance Norms_South Alabama",1,26,2022-11-22T01:31:54+00:00,7.4158520698547,29,"updated stim.csv",Version29.csv,"Version 29","List 29",loo,,868,4.952380952,1547,869,BOI,-,-,"Please name all of the ways you could use this object. Keep in mind that one object can have many uses. Separate your responses with a comma.",,y,6706,,,-1,-1,,,,,1
J00697752KHD,q9l6ygc1x9,"Affordance Norms_South Alabama",1,27,2022-11-22T01:32:08+00:00,14.22435593605,29,"updated stim.csv",Version29.csv,"Version 29","List 29",saffron,,866,4.666666667,2214,867,BOI,-,-,"Please name all of the ways you could use this object. Keep in mind that one object can have many uses. Separate your responses with a comma.",,y,13653,,,3308,12189,,,,"cook with, home remedies",1
J00697752KHD,q9l6ygc1x9,"Affordance Norms_South Alabama",1,28,2022-11-22T01:32:21+00:00,13.113353013992,29,"updated stim.csv",Version29.csv,"Version 29","List 29",drawer,,861,6,839,862,BOI,-,-,"Please name all of the ways you could use this object. Keep in mind that one object can have many uses. Separate your responses with a comma.",,y,12538,,,1824,10697,,,,"storage, pull out, push in, organize ",1
J00697752KHD,q9l6ygc1x9,"Affordance Norms_South Alabama",1,29,2022-11-22T01:32:43+00:00,22.117274045944,29,"updated stim.csv",Version29.csv,"Version 29","List 29",chopsticks,,855,6.391304348,534,856,BOI,-,-,"Please name all of the ways you could use this object. Keep in mind that one object can have many uses. Separate your responses with a comma.",,y,21464,,,2003,19957,,,,"eat with, crafts, pick up food, hold hair",1
J00697752KHD,q9l6ygc1x9,"Affordance Norms_South Alabama",1,30,2022-11-22T01:32:58+00:00,14.85270690918,29,"updated stim.csv",Version29.csv,"Version 29","List 29",puppy,,856,6.25,2104,857,BOI,-,-,"Please name all of the ways you could use this object. Keep in mind that one object can have many uses. Separate your responses with a comma.",,y,14172,,,1918,12618,,,,"love, play with, take care of, companion",1
J00697752KHD,q9l6ygc1x9,"Affordance Norms_South Alabama",1,31,2022-11-22T01:33:11+00:00,12.455764055252,29,"updated stim.csv",Version29.csv,"Version 29","List 29",cassette,,863,5.148148148,453,864,BOI,-,-,"Please name all of the ways you could use this object. Keep in mind that one object can have many uses. Separate your responses with a comma.",,y,11912,,,2987,9526,,,,"store music, listen to music",1
J00697752KHD,q9l6ygc1x9,"Affordance Norms_South Alabama",1,32,2022-11-22T01:33:25+00:00,14.925035953522,29,"updated stim.csv",Version29.csv,"Version 29","List 29",chinchilla,,846,4.925925926,528,847,BOI,-,-,"Please name all of the ways you could use this object. Keep in mind that one object can have many uses. Separate your responses with a comma.",,y,14381,,,6954,12738,,,,"pet, play with, care for",1
J00697752KHD,q9l6ygc1x9,"Affordance Norms_South Alabama",1,33,2022-11-22T01:33:38+00:00,12.758857011795,29,"updated stim.csv",Version29.csv,"Version 29","List 29",horsefly,,850,4.32,1313,851,BOI,-,-,"Please name all of the ways you could use this object. Keep in mind that one object can have many uses. Separate your responses with a comma.",,y,12210,,,3348,4697,,,,"kill, ",1
J00697752KHD,q9l6ygc1x9,"Affordance Norms_South Alabama",1,34,2022-11-22T01:33:52+00:00,13.511582136154,29,"updated stim.csv",Version29.csv,"Version 29","List 29",puppet,,869,5.739130435,2103,870,BOI,-,-,"Please name all of the ways you could use this object. Keep in mind that one object can have many uses. Separate your responses with a comma.",,y,12911,,,2333,10985,,,,"play, entertain, enjoy",1
J00697752KHD,q9l6ygc1x9,"Affordance Norms_South Alabama",1,35,2022-11-22T01:34:03+00:00,11.388747930527,29,"updated stim.csv",Version29.csv,"Version 29","List 29",advisor,,867,4.347826087,16,868,BOI,-,-,"Please name all of the ways you could use this object. Keep in mind that one object can have many uses. Separate your responses with a comma.",,y,10823,,,3653,8436,,,,"for advise, plan, ",1
J00697752KHD,q9l6ygc1x9,"Affordance Norms_South Alabama",1,36,2022-11-22T01:34:14+00:00,10.983025074005,29,"updated stim.csv",Version29.csv,"Version 29","List 29",cubical,,848,4.36,722,849,BOI,-,-,"Please name all of the ways you could use this object. Keep in mind that one object can have many uses. Separate your responses with a comma.",,y,10437,,,2719,8936,,,,"work, school, privacy",1
J00697752KHD,q9l6ygc1x9,"Affordance Norms_South Alabama",1,37,2022-11-22T01:34:32+00:00,17.72000002861,29,"updated stim.csv",Version29.csv,"Version 29","List 29",stepchild,,860,5.04,2524,861,BOI,-,-,"Please name all of the ways you could use this object. Keep in mind that one object can have many uses. Separate your responses with a comma.",,y,17077,,,5847,12322,,,,"care for, love, parent, ",1
J00697752KHD,q9l6ygc1x9,"Affordance Norms_South Alabama",1,38,2022-11-22T01:34:46+00:00,14.514980792999,29,"updated stim.csv",Version29.csv,"Version 29","List 29",streetwalker,,864,4.84,2566,865,BOI,-,-,"Please name all of the ways you could use this object. Keep in mind that one object can have many uses. Separate your responses with a comma.",,y,13749,,,11198,11811,,,,sex,1
J00697752KHD,q9l6ygc1x9,"Affordance Norms_South Alabama",1,39,2022-11-22T01:35:25+00:00,38.514305114746,29,"updated stim.csv",Version29.csv,"Version 29","List 29",whiskers,,842,4.625,2929,843,BOI,-,-,"Please name all of the ways you could use this object. Keep in mind that one object can have many uses. Separate your responses with a comma.",,y,37960,,,20491,36435,,,,"balance, esthetics, ",1
J00697752KHD,q9l6ygc1x9,"Affordance Norms_South Alabama",1,40,2022-11-22T01:36:04+00:00,39.587635040283,29,"updated stim.csv",Version29.csv,"Version 29","List 29",peacock,,852,4.8,1892,853,BOI,-,-,"Please name all of the ways you could use this object. Keep in mind that one object can have many uses. Separate your responses with a comma.",,y,38946,,,20536,26416,,,,"farming, learning, ",1
J00697752KHD,q9l6ygc1x9,"Affordance Norms_South Alabama",1,41,2022-11-22T01:37:20+00:00,76.01564002037,29,"updated stim.csv",Version29.csv,"Version 29","List 29",,,,,,0,Instruct,,,"You will now be asked a few questions about your experience today.",,"Instruct 4",75410,,,-1,-1,,,,,1
