Username,ID,ExperimentName,Session,Trial,Date,TimeDif,"Condition Number","Stimuli File","Order File","Condition Description","Condition Notes",Stimuli*Cue,Stimuli*Answer,Stimuli*Shuffle,"Stimuli*Stimuli Notes",Stimuli*Value,Procedure*Item,"Procedure*Trial Type","Procedure*Max Time","Procedure*Min Time",Procedure*Text,"Procedure*Procedure Notes",Procedure*Shuffle,Response*RT,Response*Response,Response*Accuracy,Response*RTfirst,Response*RTlast,Response*strictAcc,Response*lenientAcc,Response*focus,Response*JOL,Response*Focus
J00720751,gwhqz7yql9,"Affordance Norms_South Alabama",1,1,2022-11-22T21:58:21+00:00,12.196249961853,31,"updated stim.csv",Version31.csv,"Version 31","List 31",,,,,,0,Instruct,-,10,"In this section, you will be presented with a series of objects. Please name as many possible uses for this object as you can think of by typing them in the box below each object.",,Instruct1,12023,,,-1,-1,,,,,1
J00720751,gwhqz7yql9,"Affordance Norms_South Alabama",1,2,2022-11-22T21:58:33+00:00,12.160925865173,31,"updated stim.csv",Version31.csv,"Version 31","List 31",,,,,,0,Instruct,-,10,"Please keep in mind that a single object will have more than one use. For example, a ball can be thrown or can be bounced or even stepped on. When listing multiple uses for one object, please separate each use with a comma (i.e., thrown, bounced, stepped on)",,Instruct2,11939,,,-1,-1,,,,,1
J00720751,gwhqz7yql9,"Affordance Norms_South Alabama",1,3,2022-11-22T21:58:39+00:00,5.8234272003174,31,"updated stim.csv",Version31.csv,"Version 31","List 31",,,,,,0,Instruct,-,-,"Before starting the experiment, you will complete a short practice sesstion. Press ENTER when you are ready to begin.",,Instruct3,5609,,,-1,-1,,,,,1
J00720751,gwhqz7yql9,"Affordance Norms_South Alabama",1,4,2022-11-22T21:58:57+00:00,18.765909910202,31,"updated stim.csv",Version31.csv,"Version 31","List 31",shortening,,3002,4.92,2358,3003,BOI,-,-,"Please name all of the ways you could use this object. Keep in mind that one object can have many uses. Separate your responses with a comma.",,n,18508,,,10429,17561,,,,"your hair,your sentences",1
J00720751,gwhqz7yql9,"Affordance Norms_South Alabama",1,5,2022-11-22T21:59:04+00:00,6.5754840373993,31,"updated stim.csv",Version31.csv,"Version 31","List 31",spaghetti,,3003,6,2461,3004,BOI,-,-,"Please name all of the ways you could use this object. Keep in mind that one object can have many uses. Separate your responses with a comma.",,n,6353,,,4635,4922,,,,eat,1
J00720751,gwhqz7yql9,"Affordance Norms_South Alabama",1,6,2022-11-22T21:59:12+00:00,7.6377019882202,31,"updated stim.csv",Version31.csv,"Version 31","List 31",saucer,,3005,5.777777778,2249,3006,BOI,-,-,"Please name all of the ways you could use this object. Keep in mind that one object can have many uses. Separate your responses with a comma.",,n,7401,,,2639,6606,,,,"put sauces in",1
J00720751,gwhqz7yql9,"Affordance Norms_South Alabama",1,7,2022-11-22T21:59:18+00:00,6.7030110359192,31,"updated stim.csv",Version31.csv,"Version 31","List 31",paperwork,,3001,5.625,1866,3002,BOI,-,-,"Please name all of the ways you could use this object. Keep in mind that one object can have many uses. Separate your responses with a comma.",,n,6453,,,2944,5612,,,,"write, read",1
J00720751,gwhqz7yql9,"Affordance Norms_South Alabama",1,8,2022-11-22T21:59:24+00:00,5.3502259254456,31,"updated stim.csv",Version31.csv,"Version 31","List 31",grain,,3004,5.217391304,1143,3005,BOI,-,-,"Please name all of the ways you could use this object. Keep in mind that one object can have many uses. Separate your responses with a comma.",,n,5112,,,3400,4120,,,,idk,1
J00720751,gwhqz7yql9,"Affordance Norms_South Alabama",1,9,2022-11-22T21:59:26+00:00,2.4500839710236,31,"updated stim.csv",Version31.csv,"Version 31","List 31",,,,,,0,Instruct,-,-,"You have completed this section. Press ENTER to continue",,"Instruct 5",2315,,,-1,-1,,,,,1
J00720751,gwhqz7yql9,"Affordance Norms_South Alabama",1,10,2022-11-22T21:59:28+00:00,2.3081450462341,31,"updated stim.csv",Version31.csv,"Version 31","List 31",,,,,,0,Instruct,-,-,"You will now start the full experiment. Press ENTER when you are ready to begin.",,,2172,,,-1,-1,,,,,1
J00720751,gwhqz7yql9,"Affordance Norms_South Alabama",1,11,2022-11-22T21:59:34+00:00,5.8179941177368,31,"updated stim.csv",Version31.csv,"Version 31","List 31",hurdle,,908,4.36,1337,909,BOI,-,-,"Please name all of the ways you could use this object. Keep in mind that one object can have many uses. Separate your responses with a comma.",,y,5574,,,2379,4648,,,,"jump,run",1
J00720751,gwhqz7yql9,"Affordance Norms_South Alabama",1,12,2022-11-22T21:59:38+00:00,3.6920008659363,31,"updated stim.csv",Version31.csv,"Version 31","List 31",repairer,,902,4.583333333,2155,903,BOI,-,-,"Please name all of the ways you could use this object. Keep in mind that one object can have many uses. Separate your responses with a comma.",,y,3519,,,2247,2697,,,,fix,1
J00720751,gwhqz7yql9,"Affordance Norms_South Alabama",1,13,2022-11-22T21:59:41+00:00,3.2273499965668,31,"updated stim.csv",Version31.csv,"Version 31","List 31",theologian,,913,4.47826087,2674,914,BOI,-,-,"Please name all of the ways you could use this object. Keep in mind that one object can have many uses. Separate your responses with a comma.",,y,3063,,,1982,2231,,,,idk,1
J00720751,gwhqz7yql9,"Affordance Norms_South Alabama",1,14,2022-11-22T21:59:48+00:00,6.4568381309509,31,"updated stim.csv",Version31.csv,"Version 31","List 31",shrubbery,,904,4.653846154,2369,905,BOI,-,-,"Please name all of the ways you could use this object. Keep in mind that one object can have many uses. Separate your responses with a comma.",,y,6217,,,3080,3964,,,,grass,1
J00720751,gwhqz7yql9,"Affordance Norms_South Alabama",1,15,2022-11-22T21:59:51+00:00,3.1849739551544,31,"updated stim.csv",Version31.csv,"Version 31","List 31",chronometer,,930,4.5,539,931,BOI,-,-,"Please name all of the ways you could use this object. Keep in mind that one object can have many uses. Separate your responses with a comma.",,y,3021,,,1789,1988,,,,idk,1
J00720751,gwhqz7yql9,"Affordance Norms_South Alabama",1,16,2022-11-22T21:59:54+00:00,3.6054379940033,31,"updated stim.csv",Version31.csv,"Version 31","List 31",sailcloth,,901,4.454545455,2217,902,BOI,-,-,"Please name all of the ways you could use this object. Keep in mind that one object can have many uses. Separate your responses with a comma.",,y,3444,,,2491,2689,,,,idk,1
J00720751,gwhqz7yql9,"Affordance Norms_South Alabama",1,17,2022-11-22T22:00:05+00:00,11.030071973801,31,"updated stim.csv",Version31.csv,"Version 31","List 31",pub,,922,4.666666667,2084,923,BOI,-,-,"Please name all of the ways you could use this object. Keep in mind that one object can have many uses. Separate your responses with a comma.",,y,10788,,,2821,9920,,,,"sandwich, irish",1
J00720751,gwhqz7yql9,"Affordance Norms_South Alabama",1,18,2022-11-22T22:00:09+00:00,3.3087110519409,31,"updated stim.csv",Version31.csv,"Version 31","List 31",incubator,,912,4.291666667,1352,913,BOI,-,-,"Please name all of the ways you could use this object. Keep in mind that one object can have many uses. Separate your responses with a comma.",,y,3138,,,1869,2266,,,,eggs,1
J00720751,gwhqz7yql9,"Affordance Norms_South Alabama",1,19,2022-11-22T22:00:12+00:00,3.4637949466705,31,"updated stim.csv",Version31.csv,"Version 31","List 31",goatee,,917,4.375,1123,918,BOI,-,-,"Please name all of the ways you could use this object. Keep in mind that one object can have many uses. Separate your responses with a comma.",,y,3304,,,1909,2449,,,,beard,1
J00720751,gwhqz7yql9,"Affordance Norms_South Alabama",1,20,2022-11-22T22:00:17+00:00,4.4992280006409,31,"updated stim.csv",Version31.csv,"Version 31","List 31",crossword,,920,4.555555556,707,921,BOI,-,-,"Please name all of the ways you could use this object. Keep in mind that one object can have many uses. Separate your responses with a comma.",,y,4269,,,1741,3481,,,,puzzle,1
J00720751,gwhqz7yql9,"Affordance Norms_South Alabama",1,21,2022-11-22T22:00:22+00:00,5.3171939849854,31,"updated stim.csv",Version31.csv,"Version 31","List 31",folder,,916,6.260869565,1024,917,BOI,-,-,"Please name all of the ways you could use this object. Keep in mind that one object can have many uses. Separate your responses with a comma.",,y,5082,,,3808,4423,,,,paper,1
J00720751,gwhqz7yql9,"Affordance Norms_South Alabama",1,22,2022-11-22T22:00:26+00:00,3.9005880355835,31,"updated stim.csv",Version31.csv,"Version 31","List 31",gravel,,914,5.461538462,1164,915,BOI,-,-,"Please name all of the ways you could use this object. Keep in mind that one object can have many uses. Separate your responses with a comma.",,y,3728,,,2338,2843,,,,road,1
J00720751,gwhqz7yql9,"Affordance Norms_South Alabama",1,23,2022-11-22T22:00:29+00:00,3.2535328865051,31,"updated stim.csv",Version31.csv,"Version 31","List 31",warden,,909,4.434782609,2893,910,BOI,-,-,"Please name all of the ways you could use this object. Keep in mind that one object can have many uses. Separate your responses with a comma.",,y,3097,,,1634,2350,,,,prison,1
J00720751,gwhqz7yql9,"Affordance Norms_South Alabama",1,24,2022-11-22T22:00:33+00:00,4.2408621311188,31,"updated stim.csv",Version31.csv,"Version 31","List 31",hairstyle,,911,4.68,1217,912,BOI,-,-,"Please name all of the ways you could use this object. Keep in mind that one object can have many uses. Separate your responses with a comma.",,y,3986,,,2398,3083,,,,salon,1
J00720751,gwhqz7yql9,"Affordance Norms_South Alabama",1,25,2022-11-22T22:00:39+00:00,5.1582219600677,31,"updated stim.csv",Version31.csv,"Version 31","List 31",dynamite,,926,5.260869565,874,927,BOI,-,-,"Please name all of the ways you could use this object. Keep in mind that one object can have many uses. Separate your responses with a comma.",,y,4892,,,3121,4112,,,,boom,1
J00720751,gwhqz7yql9,"Affordance Norms_South Alabama",1,26,2022-11-22T22:00:42+00:00,3.4648568630219,31,"updated stim.csv",Version31.csv,"Version 31","List 31",daisy,,928,5,751,929,BOI,-,-,"Please name all of the ways you could use this object. Keep in mind that one object can have many uses. Separate your responses with a comma.",,y,3293,,,1630,2548,,,,flower,1
J00720751,gwhqz7yql9,"Affordance Norms_South Alabama",1,27,2022-11-22T22:00:46+00:00,4.2956721782684,31,"updated stim.csv",Version31.csv,"Version 31","List 31",mansions,,921,4.260869565,1594,922,BOI,-,-,"Please name all of the ways you could use this object. Keep in mind that one object can have many uses. Separate your responses with a comma.",,y,4061,,,1713,3445,,,,"big houses",1
J00720751,gwhqz7yql9,"Affordance Norms_South Alabama",1,28,2022-11-22T22:00:51+00:00,4.3208220005035,31,"updated stim.csv",Version31.csv,"Version 31","List 31",fiddle,,929,6.043478261,970,930,BOI,-,-,"Please name all of the ways you could use this object. Keep in mind that one object can have many uses. Separate your responses with a comma.",,y,4067,,,2523,3129,,,,music,1
J00720751,gwhqz7yql9,"Affordance Norms_South Alabama",1,29,2022-11-22T22:00:55+00:00,4.6551029682159,31,"updated stim.csv",Version31.csv,"Version 31","List 31",marmalade,,915,6.041666667,1610,916,BOI,-,-,"Please name all of the ways you could use this object. Keep in mind that one object can have many uses. Separate your responses with a comma.",,y,4418,,,2216,2798,,,,"white ",1
J00720751,gwhqz7yql9,"Affordance Norms_South Alabama",1,30,2022-11-22T22:01:00+00:00,4.6551010608673,31,"updated stim.csv",Version31.csv,"Version 31","List 31",drain,,907,4.291666667,836,908,BOI,-,-,"Please name all of the ways you could use this object. Keep in mind that one object can have many uses. Separate your responses with a comma.",,y,4394,,,2841,3651,,,,shower,1
J00720751,gwhqz7yql9,"Affordance Norms_South Alabama",1,31,2022-11-22T22:01:03+00:00,3.3962769508362,31,"updated stim.csv",Version31.csv,"Version 31","List 31",dentist,,925,5.038461538,775,926,BOI,-,-,"Please name all of the ways you could use this object. Keep in mind that one object can have many uses. Separate your responses with a comma.",,y,3223,,,1671,2311,,,,teeth,1
J00720751,gwhqz7yql9,"Affordance Norms_South Alabama",1,32,2022-11-22T22:01:11+00:00,7.6061239242554,31,"updated stim.csv",Version31.csv,"Version 31","List 31",nightcaps,,903,4.708333333,1767,904,BOI,-,-,"Please name all of the ways you could use this object. Keep in mind that one object can have many uses. Separate your responses with a comma.",,y,7362,,,5626,6572,,,,"to sleep",1
J00720751,gwhqz7yql9,"Affordance Norms_South Alabama",1,33,2022-11-22T22:01:14+00:00,3.4498760700226,31,"updated stim.csv",Version31.csv,"Version 31","List 31",outfit,,924,6.130434783,1828,925,BOI,-,-,"Please name all of the ways you could use this object. Keep in mind that one object can have many uses. Separate your responses with a comma.",,y,3280,,,1593,2624,,,,"to wear",1
J00720751,gwhqz7yql9,"Affordance Norms_South Alabama",1,34,2022-11-22T22:01:18+00:00,3.7840740680695,31,"updated stim.csv",Version31.csv,"Version 31","List 31",memo,,927,5.04,1642,928,BOI,-,-,"Please name all of the ways you could use this object. Keep in mind that one object can have many uses. Separate your responses with a comma.",,y,3621,,,1811,2900,,,,"to say",1
J00720751,gwhqz7yql9,"Affordance Norms_South Alabama",1,35,2022-11-22T22:01:24+00:00,5.4943759441376,31,"updated stim.csv",Version31.csv,"Version 31","List 31",compressor,,923,4.5,615,924,BOI,-,-,"Please name all of the ways you could use this object. Keep in mind that one object can have many uses. Separate your responses with a comma.",,y,5262,,,3193,4461,,,,compress,1
J00720751,gwhqz7yql9,"Affordance Norms_South Alabama",1,36,2022-11-22T22:01:30+00:00,6.5920329093933,31,"updated stim.csv",Version31.csv,"Version 31","List 31",latch,,910,5.541666667,1469,911,BOI,-,-,"Please name all of the ways you could use this object. Keep in mind that one object can have many uses. Separate your responses with a comma.",,y,6348,,,1605,4785,,,,"to latch on to something ",1
J00720751,gwhqz7yql9,"Affordance Norms_South Alabama",1,37,2022-11-22T22:01:34+00:00,3.6053900718689,31,"updated stim.csv",Version31.csv,"Version 31","List 31",worm,,919,4.681818182,2975,920,BOI,-,-,"Please name all of the ways you could use this object. Keep in mind that one object can have many uses. Separate your responses with a comma.",,y,3431,,,2159,2782,,,,move,1
