Username,ID,ExperimentName,Session,Trial,Date,TimeDif,"Condition Number","Stimuli File","Order File","Condition Description","Condition Notes",Stimuli*Cue,Stimuli*Answer,Stimuli*Shuffle,"Stimuli*Stimuli Notes",Stimuli*Value,Procedure*Item,"Procedure*Trial Type","Procedure*Max Time","Procedure*Min Time",Procedure*Text,"Procedure*Procedure Notes",Procedure*Shuffle,Response*RT,Response*Response,Response*Accuracy,Response*RTfirst,Response*RTlast,Response*strictAcc,Response*lenientAcc,Response*focus,Response*JOL,Response*Focus
J00708126_KNS,0hykat3i8z,"Affordance Norms_South Alabama",1,1,2022-11-21T01:38:11+00:00,11.542549848557,21,"updated stim.csv",Version21.csv,"Version 21","List 21",,,,,,0,Instruct,-,10,"In this section, you will be presented with a series of objects. Please name as many possible uses for this object as you can think of by typing them in the box below each object.",,Instruct1,11456,,,-1,-1,,,,,1
J00708126_KNS,0hykat3i8z,"Affordance Norms_South Alabama",1,2,2022-11-21T01:38:22+00:00,11.117214202881,21,"updated stim.csv",Version21.csv,"Version 21","List 21",,,,,,0,Instruct,-,10,"Please keep in mind that a single object will have more than one use. For example, a ball can be thrown or can be bounced or even stepped on. When listing multiple uses for one object, please separate each use with a comma (i.e., thrown, bounced, stepped on)",,Instruct2,10997,,,-1,-1,,,,,1
J00708126_KNS,0hykat3i8z,"Affordance Norms_South Alabama",1,3,2022-11-21T01:38:26+00:00,3.2159938812256,21,"updated stim.csv",Version21.csv,"Version 21","List 21",,,,,,0,Instruct,-,-,"Before starting the experiment, you will complete a short practice sesstion. Press ENTER when you are ready to begin.",,Instruct3,3091,,,-1,-1,,,,,1
J00708126_KNS,0hykat3i8z,"Affordance Norms_South Alabama",1,4,2022-11-21T01:38:45+00:00,18.959754943848,21,"updated stim.csv",Version21.csv,"Version 21","List 21",paperwork,,3001,5.625,1866,3002,BOI,-,-,"Please name all of the ways you could use this object. Keep in mind that one object can have many uses. Separate your responses with a comma.",,n,18782,,,2070,16335,,,,"work, school, taxes, volunteer work",1
J00708126_KNS,0hykat3i8z,"Affordance Norms_South Alabama",1,5,2022-11-21T01:38:54+00:00,9.8785181045532,21,"updated stim.csv",Version21.csv,"Version 21","List 21",grain,,3004,5.217391304,1143,3005,BOI,-,-,"Please name all of the ways you could use this object. Keep in mind that one object can have many uses. Separate your responses with a comma.",,n,9760,,,3471,8652,,,,"baking, cooking",1
J00708126_KNS,0hykat3i8z,"Affordance Norms_South Alabama",1,6,2022-11-21T01:39:13+00:00,18.548490047455,21,"updated stim.csv",Version21.csv,"Version 21","List 21",shortening,,3002,4.92,2358,3003,BOI,-,-,"Please name all of the ways you could use this object. Keep in mind that one object can have many uses. Separate your responses with a comma.",,n,18426,,,4142,18254,,,,"sewing, crafting, designing, architecture",1
J00708126_KNS,0hykat3i8z,"Affordance Norms_South Alabama",1,7,2022-11-21T01:39:20+00:00,7.3160519599915,21,"updated stim.csv",Version21.csv,"Version 21","List 21",spaghetti,,3003,6,2461,3004,BOI,-,-,"Please name all of the ways you could use this object. Keep in mind that one object can have many uses. Separate your responses with a comma.",,n,7170,,,1313,6633,,,,"cooking, baking, eating",1
J00708126_KNS,0hykat3i8z,"Affordance Norms_South Alabama",1,8,2022-11-21T01:39:31+00:00,10.996094942093,21,"updated stim.csv",Version21.csv,"Version 21","List 21",saucer,,3005,5.777777778,2249,3006,BOI,-,-,"Please name all of the ways you could use this object. Keep in mind that one object can have many uses. Separate your responses with a comma.",,n,10874,,,1931,10642,,,,"drinking, cooking",1
J00708126_KNS,0hykat3i8z,"Affordance Norms_South Alabama",1,9,2022-11-21T01:39:33+00:00,1.7747619152069,21,"updated stim.csv",Version21.csv,"Version 21","List 21",,,,,,0,Instruct,-,-,"You have completed this section. Press ENTER to continue",,"Instruct 5",1658,,,-1,-1,,,,,1
J00708126_KNS,0hykat3i8z,"Affordance Norms_South Alabama",1,10,2022-11-21T01:39:34+00:00,1.2990140914917,21,"updated stim.csv",Version21.csv,"Version 21","List 21",,,,,,0,Instruct,-,-,"You will now start the full experiment. Press ENTER when you are ready to begin.",,,1175,,,-1,-1,,,,,1
J00708126_KNS,0hykat3i8z,"Affordance Norms_South Alabama",1,11,2022-11-21T01:39:44+00:00,9.1054999828339,21,"updated stim.csv",Version21.csv,"Version 21","List 21",can,,619,4.88,408,620,BOI,-,-,"Please name all of the ways you could use this object. Keep in mind that one object can have many uses. Separate your responses with a comma.",,y,8960,,,1724,8714,,,,"cooking, crafting, baking",1
J00708126_KNS,0hykat3i8z,"Affordance Norms_South Alabama",1,12,2022-11-21T01:40:05+00:00,21.886332035065,21,"updated stim.csv",Version21.csv,"Version 21","List 21",seaweed,,610,4.458333333,2304,611,BOI,-,-,"Please name all of the ways you could use this object. Keep in mind that one object can have many uses. Separate your responses with a comma.",,y,21707,,,2445,21481,,,,"sushi making, cooking, eating",1
J00708126_KNS,0hykat3i8z,"Affordance Norms_South Alabama",1,13,2022-11-21T01:40:17+00:00,11.20897603035,21,"updated stim.csv",Version21.csv,"Version 21","List 21",steroids,,623,4.52,2532,624,BOI,-,-,"Please name all of the ways you could use this object. Keep in mind that one object can have many uses. Separate your responses with a comma.",,y,11087,,,2336,10513,,,,"exercise, healing, medicene",1
J00708126_KNS,0hykat3i8z,"Affordance Norms_South Alabama",1,14,2022-11-21T01:40:26+00:00,9.0927958488464,21,"updated stim.csv",Version21.csv,"Version 21","List 21",gumdrop,,628,5.875,1197,629,BOI,-,-,"Please name all of the ways you could use this object. Keep in mind that one object can have many uses. Separate your responses with a comma.",,y,8949,,,2218,8727,,,,"cooking, baking, eating",1
J00708126_KNS,0hykat3i8z,"Affordance Norms_South Alabama",1,15,2022-11-21T01:40:37+00:00,11.39944601059,21,"updated stim.csv",Version21.csv,"Version 21","List 21",toiletry,,602,5.222222222,2720,603,BOI,-,-,"Please name all of the ways you could use this object. Keep in mind that one object can have many uses. Separate your responses with a comma.",,y,11282,,,1644,10777,,,,"traveling, bathing, getting ready",1
J00708126_KNS,0hykat3i8z,"Affordance Norms_South Alabama",1,16,2022-11-21T01:40:42+00:00,4.8359570503235,21,"updated stim.csv",Version21.csv,"Version 21","List 21",spinach,,626,4.96,2474,627,BOI,-,-,"Please name all of the ways you could use this object. Keep in mind that one object can have many uses. Separate your responses with a comma.",,y,4720,,,1344,4473,,,,"cooking, baking",1
J00708126_KNS,0hykat3i8z,"Affordance Norms_South Alabama",1,17,2022-11-21T01:40:45+00:00,2.8961889743805,21,"updated stim.csv",Version21.csv,"Version 21","List 21",cadillac,,621,5.12,395,622,BOI,-,-,"Please name all of the ways you could use this object. Keep in mind that one object can have many uses. Separate your responses with a comma.",,y,2776,,,1241,2201,,,,driving,1
J00708126_KNS,0hykat3i8z,"Affordance Norms_South Alabama",1,18,2022-11-21T01:40:52+00:00,6.7769141197205,21,"updated stim.csv",Version21.csv,"Version 21","List 21",cutlery,,607,5.913043478,738,608,BOI,-,-,"Please name all of the ways you could use this object. Keep in mind that one object can have many uses. Separate your responses with a comma.",,y,6666,,,1920,6245,,,,"eating, cooking, baking",1
J00708126_KNS,0hykat3i8z,"Affordance Norms_South Alabama",1,19,2022-11-21T01:40:59+00:00,7.1267030239105,21,"updated stim.csv",Version21.csv,"Version 21","List 21",muffler,,616,4.75,1712,617,BOI,-,-,"Please name all of the ways you could use this object. Keep in mind that one object can have many uses. Separate your responses with a comma.",,y,7012,,,2188,6763,,,,"driving, racing",1
J00708126_KNS,0hykat3i8z,"Affordance Norms_South Alabama",1,20,2022-11-21T01:41:24+00:00,25.387315034866,21,"updated stim.csv",Version21.csv,"Version 21","List 21",lizard,,606,4.925925926,1529,607,BOI,-,-,"Please name all of the ways you could use this object. Keep in mind that one object can have many uses. Separate your responses with a comma.",,y,25212,,,4418,24869,,,,"as a pet, studying, observing",1
J00708126_KNS,0hykat3i8z,"Affordance Norms_South Alabama",1,21,2022-11-21T01:41:34+00:00,9.6737248897552,21,"updated stim.csv",Version21.csv,"Version 21","List 21",bugle,,622,4.541666667,348,623,BOI,-,-,"Please name all of the ways you could use this object. Keep in mind that one object can have many uses. Separate your responses with a comma.",,y,9547,,,7695,9284,,,,music?,1
J00708126_KNS,0hykat3i8z,"Affordance Norms_South Alabama",1,22,2022-11-21T01:41:50+00:00,16.43444108963,21,"updated stim.csv",Version21.csv,"Version 21","List 21",checkerboard,,609,5.391304348,500,610,BOI,-,-,"Please name all of the ways you could use this object. Keep in mind that one object can have many uses. Separate your responses with a comma.",,y,16311,,,4229,16174,,,,"game playing, designing, architecture",1
J00708126_KNS,0hykat3i8z,"Affordance Norms_South Alabama",1,23,2022-11-21T01:41:59+00:00,8.5331289768219,21,"updated stim.csv",Version21.csv,"Version 21","List 21",piano,,630,6.166666667,1947,631,BOI,-,-,"Please name all of the ways you could use this object. Keep in mind that one object can have many uses. Separate your responses with a comma.",,y,8423,,,1366,8143,,,,"music, concerts, relaxing",1
J00708126_KNS,0hykat3i8z,"Affordance Norms_South Alabama",1,24,2022-11-21T01:42:15+00:00,16.396217823029,21,"updated stim.csv",Version21.csv,"Version 21","List 21",guesthouse,,627,4.913043478,1189,628,BOI,-,-,"Please name all of the ways you could use this object. Keep in mind that one object can have many uses. Separate your responses with a comma.",,y,16280,,,1629,15370,,,,"travel, visiting, hosting",1
J00708126_KNS,0hykat3i8z,"Affordance Norms_South Alabama",1,25,2022-11-21T01:42:26+00:00,11.01634311676,21,"updated stim.csv",Version21.csv,"Version 21","List 21",quill,,613,4.565217391,2115,614,BOI,-,-,"Please name all of the ways you could use this object. Keep in mind that one object can have many uses. Separate your responses with a comma.",,y,10874,,,1376,10093,,,,"writing, poetry, paperwork",1
J00708126_KNS,0hykat3i8z,"Affordance Norms_South Alabama",1,26,2022-11-21T01:42:48+00:00,22.182178020477,21,"updated stim.csv",Version21.csv,"Version 21","List 21",placenta,,629,4.28,1984,630,BOI,-,-,"Please name all of the ways you could use this object. Keep in mind that one object can have many uses. Separate your responses with a comma.",,y,22003,,,1553,21730,,,,"birthing, eating, healing, protection",1
J00708126_KNS,0hykat3i8z,"Affordance Norms_South Alabama",1,27,2022-11-21T01:42:59+00:00,11.041977882385,21,"updated stim.csv",Version21.csv,"Version 21","List 21",schoolhouse,,612,5.291666667,2272,613,BOI,-,-,"Please name all of the ways you could use this object. Keep in mind that one object can have many uses. Separate your responses with a comma.",,y,10892,,,2845,9942,,,,"learning, teaching, socializing, meeting",1
J00708126_KNS,0hykat3i8z,"Affordance Norms_South Alabama",1,28,2022-11-21T01:43:12+00:00,13.000410079956,21,"updated stim.csv",Version21.csv,"Version 21","List 21",frog,,604,5.125,1058,605,BOI,-,-,"Please name all of the ways you could use this object. Keep in mind that one object can have many uses. Separate your responses with a comma.",,y,12882,,,1771,12701,,,,"observing, as a pet, studying",1
J00708126_KNS,0hykat3i8z,"Affordance Norms_South Alabama",1,29,2022-11-21T01:43:24+00:00,11.885615110397,21,"updated stim.csv",Version21.csv,"Version 21","List 21",condominium,,620,4.678571429,623,621,BOI,-,-,"Please name all of the ways you could use this object. Keep in mind that one object can have many uses. Separate your responses with a comma.",,y,11736,,,4219,11472,,,,"vacation, visiting, travel",1
J00708126_KNS,0hykat3i8z,"Affordance Norms_South Alabama",1,30,2022-11-21T01:43:34+00:00,10.176071882248,21,"updated stim.csv",Version21.csv,"Version 21","List 21",iguana,,617,5.166666667,1350,618,BOI,-,-,"Please name all of the ways you could use this object. Keep in mind that one object can have many uses. Separate your responses with a comma.",,y,10060,,,1141,9839,,,,"studying, observing, watching, as a pet",1
J00708126_KNS,0hykat3i8z,"Affordance Norms_South Alabama",1,31,2022-11-21T01:43:49+00:00,14.430167913437,21,"updated stim.csv",Version21.csv,"Version 21","List 21",sunflower,,615,5.333333333,2587,616,BOI,-,-,"Please name all of the ways you could use this object. Keep in mind that one object can have many uses. Separate your responses with a comma.",,y,14310,,,1635,14069,,,,"gardening, harvesting, phototaking",1
J00708126_KNS,0hykat3i8z,"Affordance Norms_South Alabama",1,32,2022-11-21T01:44:06+00:00,16.776632070541,21,"updated stim.csv",Version21.csv,"Version 21","List 21",organ,,611,5.185185185,1820,612,BOI,-,-,"Please name all of the ways you could use this object. Keep in mind that one object can have many uses. Separate your responses with a comma.",,y,16659,,,1282,11342,,,,"music, surgery, medicine, dissection",1
J00708126_KNS,0hykat3i8z,"Affordance Norms_South Alabama",1,33,2022-11-21T01:44:16+00:00,10.123007059097,21,"updated stim.csv",Version21.csv,"Version 21","List 21",ammo,,603,5.32,34,604,BOI,-,-,"Please name all of the ways you could use this object. Keep in mind that one object can have many uses. Separate your responses with a comma.",,y,9995,,,1143,9802,,,,"shooting, hunting, collecting",1
J00708126_KNS,0hykat3i8z,"Affordance Norms_South Alabama",1,34,2022-11-21T01:44:31+00:00,15.137420892715,21,"updated stim.csv",Version21.csv,"Version 21","List 21",ring,,624,6.130434783,2170,625,BOI,-,-,"Please name all of the ways you could use this object. Keep in mind that one object can have many uses. Separate your responses with a comma.",,y,15018,,,1915,14331,,,,"proposing, marriage, decoration, accesorizing",1
J00708126_KNS,0hykat3i8z,"Affordance Norms_South Alabama",1,35,2022-11-21T01:44:38+00:00,7.3208119869232,21,"updated stim.csv",Version21.csv,"Version 21","List 21",bell,,614,5.76,196,615,BOI,-,-,"Please name all of the ways you could use this object. Keep in mind that one object can have many uses. Separate your responses with a comma.",,y,7206,,,1481,6924,,,,"ringing, music, playing",1
J00708126_KNS,0hykat3i8z,"Affordance Norms_South Alabama",1,36,2022-11-21T01:44:54+00:00,15.957206010818,21,"updated stim.csv",Version21.csv,"Version 21","List 21",splint,,618,4.958333333,2477,619,BOI,-,-,"Please name all of the ways you could use this object. Keep in mind that one object can have many uses. Separate your responses with a comma.",,y,15842,,,1430,15605,,,,"healing, medicine, recovering",1
J00708126_KNS,0hykat3i8z,"Affordance Norms_South Alabama",1,37,2022-11-21T01:45:06+00:00,11.627290964127,21,"updated stim.csv",Version21.csv,"Version 21","List 21",snowshoe,,605,5.541666667,2436,606,BOI,-,-,"Please name all of the ways you could use this object. Keep in mind that one object can have many uses. Separate your responses with a comma.",,y,11508,,,2085,11255,,,,"protection, sledding, walking in snow, sports",1
J00708126_KNS,0hykat3i8z,"Affordance Norms_South Alabama",1,38,2022-11-21T01:45:23+00:00,17.020276069641,21,"updated stim.csv",Version21.csv,"Version 21","List 21",whore,,608,4.782608696,2933,609,BOI,-,-,"Please name all of the ways you could use this object. Keep in mind that one object can have many uses. Separate your responses with a comma.",,y,16902,,,8192,11152,,,,"prostitution ",1
J00708126_KNS,0hykat3i8z,"Affordance Norms_South Alabama",1,39,2022-11-21T01:45:37+00:00,13.949325084686,21,"updated stim.csv",Version21.csv,"Version 21","List 21",gangster,,601,4.36,1072,602,BOI,-,-,"Please name all of the ways you could use this object. Keep in mind that one object can have many uses. Separate your responses with a comma.",,y,13829,,,3246,13592,,,,"burglary, arresting",1
J00708126_KNS,0hykat3i8z,"Affordance Norms_South Alabama",1,40,2022-11-21T01:45:47+00:00,10.490663051605,21,"updated stim.csv",Version21.csv,"Version 21","List 21",washroom,,625,5.037037037,2901,626,BOI,-,-,"Please name all of the ways you could use this object. Keep in mind that one object can have many uses. Separate your responses with a comma.",,y,10375,,,3054,9675,,,,"getting ready, cleaning, bathing",1
J00708126_KNS,0hykat3i8z,"Affordance Norms_South Alabama",1,41,2022-11-21T01:45:49+00:00,1.7738687992096,21,"updated stim.csv",Version21.csv,"Version 21","List 21",,,,,,0,Instruct,,,"You will now be asked a few questions about your experience today.",,"Instruct 4",1655,,,-1,-1,,,,,1
