Username,ID,ExperimentName,Session,Trial,Date,TimeDif,"Condition Number","Stimuli File","Order File","Condition Description","Condition Notes",Stimuli*Cue,Stimuli*Answer,Stimuli*Shuffle,"Stimuli*Stimuli Notes",Stimuli*Value,Procedure*Item,"Procedure*Trial Type","Procedure*Max Time","Procedure*Min Time",Procedure*Text,"Procedure*Procedure Notes",Procedure*Shuffle,Response*RT,Response*Response,Response*Accuracy,Response*RTfirst,Response*RTlast,Response*strictAcc,Response*lenientAcc,Response*focus,Response*JOL,Response*Focus
J00717191IFP,znzufh50oz,"Affordance Norms_South Alabama",1,1,2022-11-19T05:35:19+00:00,12.152022123337,15,"updated stim.csv",Version15.csv,"Version 15","List 15",,,,,,0,Instruct,-,10,"In this section, you will be presented with a series of objects. Please name as many possible uses for this object as you can think of by typing them in the box below each object.",,Instruct1,12066,,,-1,-1,,,,,1
J00717191IFP,znzufh50oz,"Affordance Norms_South Alabama",1,2,2022-11-19T05:35:29+00:00,10.620480060577,15,"updated stim.csv",Version15.csv,"Version 15","List 15",,,,,,0,Instruct,-,10,"Please keep in mind that a single object will have more than one use. For example, a ball can be thrown or can be bounced or even stepped on. When listing multiple uses for one object, please separate each use with a comma (i.e., thrown, bounced, stepped on)",,Instruct2,10492,,,-1,-1,,,,,1
J00717191IFP,znzufh50oz,"Affordance Norms_South Alabama",1,3,2022-11-19T05:35:33+00:00,4.2049968242645,15,"updated stim.csv",Version15.csv,"Version 15","List 15",,,,,,0,Instruct,-,-,"Before starting the experiment, you will complete a short practice sesstion. Press ENTER when you are ready to begin.",,Instruct3,4079,,,-1,-1,,,,,1
J00717191IFP,znzufh50oz,"Affordance Norms_South Alabama",1,4,2022-11-19T05:36:08+00:00,34.537995100021,15,"updated stim.csv",Version15.csv,"Version 15","List 15",shortening,,3002,4.92,2358,3003,BOI,-,-,"Please name all of the ways you could use this object. Keep in mind that one object can have many uses. Separate your responses with a comma.",,n,34364,,,21182,27668,,,,"bake, cook, mix",1
J00717191IFP,znzufh50oz,"Affordance Norms_South Alabama",1,5,2022-11-19T05:36:48+00:00,39.962907075882,15,"updated stim.csv",Version15.csv,"Version 15","List 15",paperwork,,3001,5.625,1866,3002,BOI,-,-,"Please name all of the ways you could use this object. Keep in mind that one object can have many uses. Separate your responses with a comma.",,n,39777,,,2428,38027,,,,"file, turn in, send, tear",1
J00717191IFP,znzufh50oz,"Affordance Norms_South Alabama",1,6,2022-11-19T05:37:15+00:00,27.590636014938,15,"updated stim.csv",Version15.csv,"Version 15","List 15",grain,,3004,5.217391304,1143,3005,BOI,-,-,"Please name all of the ways you could use this object. Keep in mind that one object can have many uses. Separate your responses with a comma.",,n,27406,,,2081,23294,,,,"cook, mix, eat",1
J00717191IFP,znzufh50oz,"Affordance Norms_South Alabama",1,7,2022-11-19T05:38:04+00:00,48.418898820877,15,"updated stim.csv",Version15.csv,"Version 15","List 15",saucer,,3005,5.777777778,2249,3006,BOI,-,-,"Please name all of the ways you could use this object. Keep in mind that one object can have many uses. Separate your responses with a comma.",,n,48238,,,29982,41862,,,,"hold, put something on it",1
J00717191IFP,znzufh50oz,"Affordance Norms_South Alabama",1,8,2022-11-19T05:38:17+00:00,13.14520907402,15,"updated stim.csv",Version15.csv,"Version 15","List 15",spaghetti,,3003,6,2461,3004,BOI,-,-,"Please name all of the ways you could use this object. Keep in mind that one object can have many uses. Separate your responses with a comma.",,n,12976,,,1576,8918,,,,"eat, cook, mix, throw away",1
J00717191IFP,znzufh50oz,"Affordance Norms_South Alabama",1,9,2022-11-19T05:38:19+00:00,1.9895889759064,15,"updated stim.csv",Version15.csv,"Version 15","List 15",,,,,,0,Instruct,-,-,"You have completed this section. Press ENTER to continue",,"Instruct 5",1873,,,-1,-1,,,,,1
J00717191IFP,znzufh50oz,"Affordance Norms_South Alabama",1,10,2022-11-19T05:38:24+00:00,5.2750051021576,15,"updated stim.csv",Version15.csv,"Version 15","List 15",,,,,,0,Instruct,-,-,"You will now start the full experiment. Press ENTER when you are ready to begin.",,,5145,,,-1,-1,,,,,1
J00717191IFP,znzufh50oz,"Affordance Norms_South Alabama",1,11,2022-11-19T05:38:36+00:00,12.084219932556,15,"updated stim.csv",Version15.csv,"Version 15","List 15",newsstand,,426,5.458333333,1764,427,BOI,-,-,"Please name all of the ways you could use this object. Keep in mind that one object can have many uses. Separate your responses with a comma.",,y,11949,,,4560,9998,,,,"look, take, read",1
J00717191IFP,znzufh50oz,"Affordance Norms_South Alabama",1,12,2022-11-19T05:38:54+00:00,17.699645996094,15,"updated stim.csv",Version15.csv,"Version 15","List 15",teapot,,450,6.2,2649,451,BOI,-,-,"Please name all of the ways you could use this object. Keep in mind that one object can have many uses. Separate your responses with a comma.",,y,17554,,,3635,16527,,,,"make tea, drink",1
J00717191IFP,znzufh50oz,"Affordance Norms_South Alabama",1,13,2022-11-19T05:39:33+00:00,39.318245887756,15,"updated stim.csv",Version15.csv,"Version 15","List 15",pooch,,446,5.045454545,2031,447,BOI,-,-,"Please name all of the ways you could use this object. Keep in mind that one object can have many uses. Separate your responses with a comma.",,y,38875,,,36657,37262,,,,hold,1
J00717191IFP,znzufh50oz,"Affordance Norms_South Alabama",1,14,2022-11-19T05:39:49+00:00,15.818265199661,15,"updated stim.csv",Version15.csv,"Version 15","List 15",keyboard,,445,6.08,1412,446,BOI,-,-,"Please name all of the ways you could use this object. Keep in mind that one object can have many uses. Separate your responses with a comma.",,y,15692,,,1319,12587,,,,type,1
J00717191IFP,znzufh50oz,"Affordance Norms_South Alabama",1,15,2022-11-19T05:40:06+00:00,16.675283908844,15,"updated stim.csv",Version15.csv,"Version 15","List 15",cake,,440,6.086956522,399,441,BOI,-,-,"Please name all of the ways you could use this object. Keep in mind that one object can have many uses. Separate your responses with a comma.",,y,16309,,,1791,15651,,,,"bake, mix, eat, throw away, give to someone",1
J00717191IFP,znzufh50oz,"Affordance Norms_South Alabama",1,16,2022-11-19T05:40:37+00:00,31.035872936249,15,"updated stim.csv",Version15.csv,"Version 15","List 15",grandma,,448,5.769230769,1148,449,BOI,-,-,"Please name all of the ways you could use this object. Keep in mind that one object can have many uses. Separate your responses with a comma.",,y,30853,,,8210,29833,,,,"hug, spend time with, eat with her",1
J00717191IFP,znzufh50oz,"Affordance Norms_South Alabama",1,17,2022-11-19T05:41:03+00:00,25.876698970795,15,"updated stim.csv",Version15.csv,"Version 15","List 15",flounder,,432,4.52173913,1013,433,BOI,-,-,"Please name all of the ways you could use this object. Keep in mind that one object can have many uses. Separate your responses with a comma.",,y,25692,,,1420,23540,,,,"eat, cook, throw away, burn",1
J00717191IFP,znzufh50oz,"Affordance Norms_South Alabama",1,18,2022-11-19T05:41:17+00:00,14.609512090683,15,"updated stim.csv",Version15.csv,"Version 15","List 15",claw,,423,4.391304348,550,424,BOI,-,-,"Please name all of the ways you could use this object. Keep in mind that one object can have many uses. Separate your responses with a comma.",,y,14487,,,3893,13778,,,,"scratch, trim, paint",1
J00717191IFP,znzufh50oz,"Affordance Norms_South Alabama",1,19,2022-11-19T05:41:27+00:00,9.0736999511719,15,"updated stim.csv",Version15.csv,"Version 15","List 15",burger,,444,6.111111111,365,445,BOI,-,-,"Please name all of the ways you could use this object. Keep in mind that one object can have many uses. Separate your responses with a comma.",,y,8690,,,1226,7369,,,,"eat, cook, throw away, flip",1
J00717191IFP,znzufh50oz,"Affordance Norms_South Alabama",1,20,2022-11-19T05:42:23+00:00,56.446750164032,15,"updated stim.csv",Version15.csv,"Version 15","List 15",newlyweds,,447,4.772727273,1754,448,BOI,-,-,"Please name all of the ways you could use this object. Keep in mind that one object can have many uses. Separate your responses with a comma.",,y,56240,,,5404,54621,,,,"kiss, honeymoon, sex, buy a house, celebrate",1
J00717191IFP,znzufh50oz,"Affordance Norms_South Alabama",1,21,2022-11-19T05:42:41+00:00,17.623184919357,15,"updated stim.csv",Version15.csv,"Version 15","List 15",slut,,433,4.652173913,2420,434,BOI,-,-,"Please name all of the ways you could use this object. Keep in mind that one object can have many uses. Separate your responses with a comma.",,y,17482,,,5177,14019,,,,"kiss, hug",1
J00717191IFP,znzufh50oz,"Affordance Norms_South Alabama",1,22,2022-11-19T05:43:18+00:00,37.73668384552,15,"updated stim.csv",Version15.csv,"Version 15","List 15",sundeck,,421,4.5,2586,422,BOI,-,-,"Please name all of the ways you could use this object. Keep in mind that one object can have many uses. Separate your responses with a comma.",,y,37349,,,19109,36175,,,,"shelter, sit under, decorate",1
J00717191IFP,znzufh50oz,"Affordance Norms_South Alabama",1,23,2022-11-19T05:43:39+00:00,20.948130130768,15,"updated stim.csv",Version15.csv,"Version 15","List 15",lifeboat,,443,5.333333333,1504,444,BOI,-,-,"Please name all of the ways you could use this object. Keep in mind that one object can have many uses. Separate your responses with a comma.",,y,20386,,,7320,19199,,,,"ride, survive, clean",1
J00717191IFP,znzufh50oz,"Affordance Norms_South Alabama",1,24,2022-11-19T05:43:46+00:00,7.1101648807526,15,"updated stim.csv",Version15.csv,"Version 15","List 15",corridor,,441,4.5,651,442,BOI,-,-,"Please name all of the ways you could use this object. Keep in mind that one object can have many uses. Separate your responses with a comma.",,y,6807,,,3038,5539,,,,"walk, decorate",1
J00717191IFP,znzufh50oz,"Affordance Norms_South Alabama",1,25,2022-11-19T05:43:58+00:00,11.893103122711,15,"updated stim.csv",Version15.csv,"Version 15","List 15",racket,,436,5.24,2120,437,BOI,-,-,"Please name all of the ways you could use this object. Keep in mind that one object can have many uses. Separate your responses with a comma.",,y,11771,,,5050,10544,,,,"hit, throw, play",1
J00717191IFP,znzufh50oz,"Affordance Norms_South Alabama",1,26,2022-11-19T05:44:28+00:00,30.180409908295,15,"updated stim.csv",Version15.csv,"Version 15","List 15",trapeze,,428,4.958333333,2763,429,BOI,-,-,"Please name all of the ways you could use this object. Keep in mind that one object can have many uses. Separate your responses with a comma.",,y,29995,,,2032,28514,,,,"walk on, perform, balance",1
J00717191IFP,znzufh50oz,"Affordance Norms_South Alabama",1,27,2022-11-19T05:44:43+00:00,14.678778171539,15,"updated stim.csv",Version15.csv,"Version 15","List 15",cap,,427,5.826086957,422,428,BOI,-,-,"Please name all of the ways you could use this object. Keep in mind that one object can have many uses. Separate your responses with a comma.",,y,14522,,,2220,7279,,,,"wear, throw",1
J00717191IFP,znzufh50oz,"Affordance Norms_South Alabama",1,28,2022-11-19T05:45:17+00:00,33.752490997314,15,"updated stim.csv",Version15.csv,"Version 15","List 15",essay,,439,4.333333333,922,440,BOI,-,-,"Please name all of the ways you could use this object. Keep in mind that one object can have many uses. Separate your responses with a comma.",,y,33565,,,1433,32229,,,,"write, suffer, turn in, cry, research, type, print",1
J00717191IFP,znzufh50oz,"Affordance Norms_South Alabama",1,29,2022-11-19T05:45:47+00:00,29.81675195694,15,"updated stim.csv",Version15.csv,"Version 15","List 15",storekeeper,,442,4.75,2552,443,BOI,-,-,"Please name all of the ways you could use this object. Keep in mind that one object can have many uses. Separate your responses with a comma.",,y,29604,,,3178,27341,,,,"manage, organize, pay, order",1
J00717191IFP,znzufh50oz,"Affordance Norms_South Alabama",1,30,2022-11-19T05:46:09+00:00,22.655326843262,15,"updated stim.csv",Version15.csv,"Version 15","List 15",oceanographer,,430,4.44,1800,431,BOI,-,-,"Please name all of the ways you could use this object. Keep in mind that one object can have many uses. Separate your responses with a comma.",,y,22451,,,2220,21281,,,,"research, swim, video, boating",1
J00717191IFP,znzufh50oz,"Affordance Norms_South Alabama",1,31,2022-11-19T05:46:34+00:00,24.90274310112,15,"updated stim.csv",Version15.csv,"Version 15","List 15",investigator,,422,4.888888889,1367,423,BOI,-,-,"Please name all of the ways you could use this object. Keep in mind that one object can have many uses. Separate your responses with a comma.",,y,24715,,,1842,23530,,,,"research, find, search, interrogate",1
J00717191IFP,znzufh50oz,"Affordance Norms_South Alabama",1,32,2022-11-19T05:46:47+00:00,12.427630901337,15,"updated stim.csv",Version15.csv,"Version 15","List 15",money,,425,6.291666667,1677,426,BOI,-,-,"Please name all of the ways you could use this object. Keep in mind that one object can have many uses. Separate your responses with a comma.",,y,12301,,,1333,11205,,,,"spend, buy, trade, give, gift",1
J00717191IFP,znzufh50oz,"Affordance Norms_South Alabama",1,33,2022-11-19T05:47:47+00:00,60.072803020477,15,"updated stim.csv",Version15.csv,"Version 15","List 15",parachutist,,437,4.6,1869,438,BOI,-,-,"Please name all of the ways you could use this object. Keep in mind that one object can have many uses. Separate your responses with a comma.",,y,59875,,,39091,58539,,,,"fly, crash, run",1
J00717191IFP,znzufh50oz,"Affordance Norms_South Alabama",1,34,2022-11-19T05:48:11+00:00,23.783784151077,15,"updated stim.csv",Version15.csv,"Version 15","List 15",sibling,,424,5.04,2373,425,BOI,-,-,"Please name all of the ways you could use this object. Keep in mind that one object can have many uses. Separate your responses with a comma.",,y,23402,,,1269,20315,,,,"fight, hug, give gift",1
J00717191IFP,znzufh50oz,"Affordance Norms_South Alabama",1,35,2022-11-19T05:48:30+00:00,19.130501031876,15,"updated stim.csv",Version15.csv,"Version 15","List 15",apartment,,431,4.6,55,432,BOI,-,-,"Please name all of the ways you could use this object. Keep in mind that one object can have many uses. Separate your responses with a comma.",,y,18991,,,1219,7668,,,,"buy, rent, sell, decorate, live",1
J00717191IFP,znzufh50oz,"Affordance Norms_South Alabama",1,36,2022-11-19T05:48:43+00:00,13.181564807892,15,"updated stim.csv",Version15.csv,"Version 15","List 15",restaurant,,434,5.275862069,2159,435,BOI,-,-,"Please name all of the ways you could use this object. Keep in mind that one object can have many uses. Separate your responses with a comma.",,y,13032,,,1282,10432,,,,"eat, buy, sell, order, decorate",1
J00717191IFP,znzufh50oz,"Affordance Norms_South Alabama",1,37,2022-11-19T05:49:10+00:00,27.496335983276,15,"updated stim.csv",Version15.csv,"Version 15","List 15",thermometer,,429,5.56,2676,430,BOI,-,-,"Please name all of the ways you could use this object. Keep in mind that one object can have many uses. Separate your responses with a comma.",,y,27300,,,2686,12998,,,,"take temp, put away",1
J00717191IFP,znzufh50oz,"Affordance Norms_South Alabama",1,38,2022-11-19T05:49:32+00:00,21.745606184006,15,"updated stim.csv",Version15.csv,"Version 15","List 15",tongs,,449,5.826086957,2727,450,BOI,-,-,"Please name all of the ways you could use this object. Keep in mind that one object can have many uses. Separate your responses with a comma.",,y,21529,,,3886,20620,,,,"use to cook, eat, grill, pick up ",1
J00717191IFP,znzufh50oz,"Affordance Norms_South Alabama",1,39,2022-11-19T05:49:47+00:00,14.503593921661,15,"updated stim.csv",Version15.csv,"Version 15","List 15",refrigerator,,435,5.851851852,2152,436,BOI,-,-,"Please name all of the ways you could use this object. Keep in mind that one object can have many uses. Separate your responses with a comma.",,y,14366,,,2171,9844,,,,"store food, freeze",1
J00717191IFP,znzufh50oz,"Affordance Norms_South Alabama",1,40,2022-11-19T05:50:32+00:00,45.495022058487,15,"updated stim.csv",Version15.csv,"Version 15","List 15",rod,,438,4.454545455,2185,439,BOI,-,-,"Please name all of the ways you could use this object. Keep in mind that one object can have many uses. Separate your responses with a comma.",,y,45305,,,8286,44583,,,,"hang, decorate, store",1
J00717191IFP,znzufh50oz,"Affordance Norms_South Alabama",1,41,2022-11-19T05:50:34+00:00,2.3644280433655,15,"updated stim.csv",Version15.csv,"Version 15","List 15",,,,,,0,Instruct,,,"You will now be asked a few questions about your experience today.",,"Instruct 4",2233,,,-1,-1,,,,,1
