Username,ID,ExperimentName,Session,Trial,Date,TimeDif,"Condition Number","Stimuli File","Order File","Condition Description","Condition Notes",Stimuli*Cue,Stimuli*Answer,Stimuli*Shuffle,"Stimuli*Stimuli Notes",Stimuli*Value,Procedure*Item,"Procedure*Trial Type","Procedure*Max Time","Procedure*Min Time",Procedure*Text,"Procedure*Procedure Notes",Procedure*Shuffle,Response*RT,Response*Response,Response*Accuracy,Response*RTfirst,Response*RTlast,Response*strictAcc,Response*lenientAcc,Response*focus,Response*JOL,Response*Focus
J00718888_hal,tchj0l7zqu,"Affordance Norms_South Alabama",1,1,2022-12-01T21:11:52+00:00,17.252726078033,26,"updated stim.csv",Version26.csv,"Version 26","List 26",,,,,,0,Instruct,-,10,"In this section, you will be presented with a series of objects. Please name as many possible uses for this object as you can think of by typing them in the box below each object.",,Instruct1,17083,,,-1,-1,,,,,1
J00718888_hal,tchj0l7zqu,"Affordance Norms_South Alabama",1,2,2022-12-01T21:12:08+00:00,15.666986942291,26,"updated stim.csv",Version26.csv,"Version 26","List 26",,,,,,0,Instruct,-,10,"Please keep in mind that a single object will have more than one use. For example, a ball can be thrown or can be bounced or even stepped on. When listing multiple uses for one object, please separate each use with a comma (i.e., thrown, bounced, stepped on)",,Instruct2,15440,,,-1,-1,,,,,1
J00718888_hal,tchj0l7zqu,"Affordance Norms_South Alabama",1,3,2022-12-01T21:12:12+00:00,4.4086611270905,26,"updated stim.csv",Version26.csv,"Version 26","List 26",,,,,,0,Instruct,-,-,"Before starting the experiment, you will complete a short practice sesstion. Press ENTER when you are ready to begin.",,Instruct3,4195,,,-1,-1,,,,,1
J00718888_hal,tchj0l7zqu,"Affordance Norms_South Alabama",1,4,2022-12-01T21:12:47+00:00,34.65212392807,26,"updated stim.csv",Version26.csv,"Version 26","List 26",spaghetti,,3003,6,2461,3004,BOI,-,-,"Please name all of the ways you could use this object. Keep in mind that one object can have many uses. Separate your responses with a comma.",,n,34440,,,3076,30587,,,,"eat, twirl, throw, cook",1
J00718888_hal,tchj0l7zqu,"Affordance Norms_South Alabama",1,5,2022-12-01T21:13:05+00:00,18.687629938126,26,"updated stim.csv",Version26.csv,"Version 26","List 26",grain,,3004,5.217391304,1143,3005,BOI,-,-,"Please name all of the ways you could use this object. Keep in mind that one object can have many uses. Separate your responses with a comma.",,n,18477,,,7379,17206,,,,"look, touch, eat, cook ",1
J00718888_hal,tchj0l7zqu,"Affordance Norms_South Alabama",1,6,2022-12-01T21:13:24+00:00,18.490644216537,26,"updated stim.csv",Version26.csv,"Version 26","List 26",saucer,,3005,5.777777778,2249,3006,BOI,-,-,"Please name all of the ways you could use this object. Keep in mind that one object can have many uses. Separate your responses with a comma.",,n,18281,,,5258,15219,,,,"throw, spin",1
J00718888_hal,tchj0l7zqu,"Affordance Norms_South Alabama",1,7,2022-12-01T21:14:15+00:00,50.882287979126,26,"updated stim.csv",Version26.csv,"Version 26","List 26",paperwork,,3001,5.625,1866,3002,BOI,-,-,"Please name all of the ways you could use this object. Keep in mind that one object can have many uses. Separate your responses with a comma.",,n,50672,,,9568,44289,,,,"complete, fax, print, file, handout, submit",1
J00718888_hal,tchj0l7zqu,"Affordance Norms_South Alabama",1,8,2022-12-01T21:14:31+00:00,15.870334863663,26,"updated stim.csv",Version26.csv,"Version 26","List 26",shortening,,3002,4.92,2358,3003,BOI,-,-,"Please name all of the ways you could use this object. Keep in mind that one object can have many uses. Separate your responses with a comma.",,n,15669,,,5077,13554,,,,"cut, fold",1
J00718888_hal,tchj0l7zqu,"Affordance Norms_South Alabama",1,9,2022-12-01T21:14:33+00:00,2.2159521579742,26,"updated stim.csv",Version26.csv,"Version 26","List 26",,,,,,0,Instruct,-,-,"You have completed this section. Press ENTER to continue",,"Instruct 5",2082,,,-1,-1,,,,,1
J00718888_hal,tchj0l7zqu,"Affordance Norms_South Alabama",1,10,2022-12-01T21:14:35+00:00,2.6062908172607,26,"updated stim.csv",Version26.csv,"Version 26","List 26",,,,,,0,Instruct,-,-,"You will now start the full experiment. Press ENTER when you are ready to begin.",,,2476,,,-1,-1,,,,,1
J00718888_hal,tchj0l7zqu,"Affordance Norms_South Alabama",1,11,2022-12-01T21:14:58+00:00,22.310947179794,26,"updated stim.csv",Version26.csv,"Version 26","List 26",hatchet,,779,5.791666667,1261,780,BOI,-,-,"Please name all of the ways you could use this object. Keep in mind that one object can have many uses. Separate your responses with a comma.",,y,22097,,,6346,21096,,,,"hit things, hold, work",1
J00718888_hal,tchj0l7zqu,"Affordance Norms_South Alabama",1,12,2022-12-01T21:15:27+00:00,29.584973812103,26,"updated stim.csv",Version26.csv,"Version 26","List 26",snot,,761,5.32,2429,762,BOI,-,-,"Please name all of the ways you could use this object. Keep in mind that one object can have many uses. Separate your responses with a comma.",,y,29375,,,2466,22720,,,,"drips, blow nose, ",1
J00718888_hal,tchj0l7zqu,"Affordance Norms_South Alabama",1,13,2022-12-01T21:15:58+00:00,30.870007038116,26,"updated stim.csv",Version26.csv,"Version 26","List 26",crepe,,756,5.416666667,692,757,BOI,-,-,"Please name all of the ways you could use this object. Keep in mind that one object can have many uses. Separate your responses with a comma.",,y,30660,,,2543,29874,,,,"eat, cook, decorate, hold ",1
J00718888_hal,tchj0l7zqu,"Affordance Norms_South Alabama",1,14,2022-12-01T21:17:42+00:00,103.35101509094,26,"updated stim.csv",Version26.csv,"Version 26","List 26",wallet,,768,6.136363636,2888,769,BOI,-,-,"Please name all of the ways you could use this object. Keep in mind that one object can have many uses. Separate your responses with a comma.",,y,34460,,,5778,30790,,,,"put in pocket, holds cards, money, license, pictures, throw it",1
J00718888_hal,tchj0l7zqu,"Affordance Norms_South Alabama",1,15,2022-12-01T21:18:09+00:00,27.640874862671,26,"updated stim.csv",Version26.csv,"Version 26","List 26",pal,,765,4.333333333,1852,766,BOI,-,-,"Please name all of the ways you could use this object. Keep in mind that one object can have many uses. Separate your responses with a comma.",,y,27423,,,8768,26117,,,,"hold water, hold things, carry it, drop it",1
J00718888_hal,tchj0l7zqu,"Affordance Norms_South Alabama",1,16,2022-12-01T21:18:35+00:00,25.382443189621,26,"updated stim.csv",Version26.csv,"Version 26","List 26",paratrooper,,767,4.291666667,1872,768,BOI,-,-,"Please name all of the ways you could use this object. Keep in mind that one object can have many uses. Separate your responses with a comma.",,y,25165,,,9352,23473,,,,"to stay safe, weapon, guard",1
J00718888_hal,tchj0l7zqu,"Affordance Norms_South Alabama",1,17,2022-12-01T21:19:39+00:00,63.993476867676,26,"updated stim.csv",Version26.csv,"Version 26","List 26",revolver,,775,5.555555556,2161,776,BOI,-,-,"Please name all of the ways you could use this object. Keep in mind that one object can have many uses. Separate your responses with a comma.",,y,47726,,,3918,46820,,,,"hold it, shoot it, hit people with it, point it at people, hunt with it, rob people or stores",1
J00718888_hal,tchj0l7zqu,"Affordance Norms_South Alabama",1,18,2022-12-01T21:20:09+00:00,30.682295084,26,"updated stim.csv",Version26.csv,"Version 26","List 26",tracksuit,,766,5.653846154,2752,767,BOI,-,-,"Please name all of the ways you could use this object. Keep in mind that one object can have many uses. Separate your responses with a comma.",,y,30474,,,4151,24195,,,,"wear it, run in it, workout in it, sweat in it, jump",1
J00718888_hal,tchj0l7zqu,"Affordance Norms_South Alabama",1,19,2022-12-01T21:20:58+00:00,48.516374826431,26,"updated stim.csv",Version26.csv,"Version 26","List 26",powder,,758,5.416666667,2054,759,BOI,-,-,"Please name all of the ways you could use this object. Keep in mind that one object can have many uses. Separate your responses with a comma.",,y,48300,,,19718,43844,,,,"baby power, makeup power, cook with it, snort it",1
J00718888_hal,tchj0l7zqu,"Affordance Norms_South Alabama",1,20,2022-12-01T21:21:36+00:00,37.908322095871,26,"updated stim.csv",Version26.csv,"Version 26","List 26",slug,,751,4.434782609,2418,752,BOI,-,-,"Please name all of the ways you could use this object. Keep in mind that one object can have many uses. Separate your responses with a comma.",,y,37696,,,10065,35651,,,,"pet, bread it, use it's slime, cook it, eat ",1
J00718888_hal,tchj0l7zqu,"Affordance Norms_South Alabama",1,21,2022-12-01T21:22:01+00:00,25.503803014755,26,"updated stim.csv",Version26.csv,"Version 26","List 26",sauce,,754,5.130434783,2247,755,BOI,-,-,"Please name all of the ways you could use this object. Keep in mind that one object can have many uses. Separate your responses with a comma.",,y,25280,,,1941,23818,,,,"cook, eat, put on food, dip ",1
J00718888_hal,tchj0l7zqu,"Affordance Norms_South Alabama",1,22,2022-12-01T21:23:04+00:00,62.894067049026,26,"updated stim.csv",Version26.csv,"Version 26","List 26",citrus,,762,4.6,544,763,BOI,-,-,"Please name all of the ways you could use this object. Keep in mind that one object can have many uses. Separate your responses with a comma.",,y,62680,,,3992,55459,,,,"eat, drink, vitamins",1
J00718888_hal,tchj0l7zqu,"Affordance Norms_South Alabama",1,23,2022-12-01T21:23:15+00:00,10.981251001358,26,"updated stim.csv",Version26.csv,"Version 26","List 26",merchantman,,773,4.5,1649,774,BOI,-,-,"Please name all of the ways you could use this object. Keep in mind that one object can have many uses. Separate your responses with a comma.",,y,10772,,,4035,9872,,,,"money ",1
J00718888_hal,tchj0l7zqu,"Affordance Norms_South Alabama",1,24,2022-12-01T21:23:36+00:00,21.117663860321,26,"updated stim.csv",Version26.csv,"Version 26","List 26",prisoner,,753,4.307692308,2067,754,BOI,-,-,"Please name all of the ways you could use this object. Keep in mind that one object can have many uses. Separate your responses with a comma.",,y,20911,,,5387,20036,,,,"escape, commit a crime",1
J00718888_hal,tchj0l7zqu,"Affordance Norms_South Alabama",1,25,2022-12-01T21:24:00+00:00,23.750466108322,26,"updated stim.csv",Version26.csv,"Version 26","List 26",beverage,,771,6.208333333,206,772,BOI,-,-,"Please name all of the ways you could use this object. Keep in mind that one object can have many uses. Separate your responses with a comma.",,y,23543,,,1454,17801,,,,"drink, throw, make a smoothie",1
J00718888_hal,tchj0l7zqu,"Affordance Norms_South Alabama",1,26,2022-12-01T21:24:21+00:00,21.4252140522,26,"updated stim.csv",Version26.csv,"Version 26","List 26",pincushion,,757,5.260869565,1969,758,BOI,-,-,"Please name all of the ways you could use this object. Keep in mind that one object can have many uses. Separate your responses with a comma.",,y,21210,,,6821,20298,,,,"sewing, pins, art, fashion ",1
J00718888_hal,tchj0l7zqu,"Affordance Norms_South Alabama",1,27,2022-12-01T21:25:10+00:00,48.759299993515,26,"updated stim.csv",Version26.csv,"Version 26","List 26",caretaker,,770,5.071428571,433,771,BOI,-,-,"Please name all of the ways you could use this object. Keep in mind that one object can have many uses. Separate your responses with a comma.",,y,48554,,,4089,47730,,,,"take car of old people, mentally ill people, children, cook, clean, work",1
J00718888_hal,tchj0l7zqu,"Affordance Norms_South Alabama",1,28,2022-12-01T21:25:21+00:00,10.379399061203,26,"updated stim.csv",Version26.csv,"Version 26","List 26",steelworker,,778,4.44,2518,779,BOI,-,-,"Please name all of the ways you could use this object. Keep in mind that one object can have many uses. Separate your responses with a comma.",,y,10170,,,6339,9485,,,,"make things",1
J00718888_hal,tchj0l7zqu,"Affordance Norms_South Alabama",1,29,2022-12-01T21:25:41+00:00,20.7475938797,26,"updated stim.csv",Version26.csv,"Version 26","List 26",mistletoe,,774,4.592592593,1668,775,BOI,-,-,"Please name all of the ways you could use this object. Keep in mind that one object can have many uses. Separate your responses with a comma.",,y,20535,,,3321,16146,,,,"hang it up, kiss under it, Christmas",1
J00718888_hal,tchj0l7zqu,"Affordance Norms_South Alabama",1,30,2022-12-01T21:26:23+00:00,41.424041032791,26,"updated stim.csv",Version26.csv,"Version 26","List 26",lamb,,769,4.444444444,1453,770,BOI,-,-,"Please name all of the ways you could use this object. Keep in mind that one object can have many uses. Separate your responses with a comma.",,y,41218,,,1055,36469,,,,"skin it, shear it, make a blanket, food, pet",1
J00718888_hal,tchj0l7zqu,"Affordance Norms_South Alabama",1,31,2022-12-01T21:26:38+00:00,15.699761867523,26,"updated stim.csv",Version26.csv,"Version 26","List 26",roast,,759,4.821428571,2179,760,BOI,-,-,"Please name all of the ways you could use this object. Keep in mind that one object can have many uses. Separate your responses with a comma.",,y,15484,,,4789,14645,,,,"eat, cook, fire",1
J00718888_hal,tchj0l7zqu,"Affordance Norms_South Alabama",1,32,2022-12-01T21:27:03+00:00,24.296966075897,26,"updated stim.csv",Version26.csv,"Version 26","List 26",poster,,764,5.583333333,2043,765,BOI,-,-,"Please name all of the ways you could use this object. Keep in mind that one object can have many uses. Separate your responses with a comma.",,y,24089,,,1762,20051,,,,"hang, decorate, make, design, sell",1
J00718888_hal,tchj0l7zqu,"Affordance Norms_South Alabama",1,33,2022-12-01T21:27:19+00:00,16.095705986023,26,"updated stim.csv",Version26.csv,"Version 26","List 26",magazine,,752,6.166666667,1569,753,BOI,-,-,"Please name all of the ways you could use this object. Keep in mind that one object can have many uses. Separate your responses with a comma.",,y,15888,,,1535,14851,,,,"read, decoration, art",1
J00718888_hal,tchj0l7zqu,"Affordance Norms_South Alabama",1,34,2022-12-01T21:27:39+00:00,20.241086959839,26,"updated stim.csv",Version26.csv,"Version 26","List 26",marble,,776,5.48,1602,777,BOI,-,-,"Please name all of the ways you could use this object. Keep in mind that one object can have many uses. Separate your responses with a comma.",,y,20022,,,1509,17480,,,,"roll, throw, step on, play, game",1
J00718888_hal,tchj0l7zqu,"Affordance Norms_South Alabama",1,35,2022-12-01T21:28:05+00:00,26.036683082581,26,"updated stim.csv",Version26.csv,"Version 26","List 26",mat,,772,5.814814815,1619,773,BOI,-,-,"Please name all of the ways you could use this object. Keep in mind that one object can have many uses. Separate your responses with a comma.",,y,25822,,,2593,24218,,,,"step on, put away, change, clean",1
J00718888_hal,tchj0l7zqu,"Affordance Norms_South Alabama",1,36,2022-12-01T21:28:36+00:00,30.948004961014,26,"updated stim.csv",Version26.csv,"Version 26","List 26",insect,,777,5.125,1357,778,BOI,-,-,"Please name all of the ways you could use this object. Keep in mind that one object can have many uses. Separate your responses with a comma.",,y,30717,,,2444,29828,,,,"eat, kill, cook, put outside ",1
J00718888_hal,tchj0l7zqu,"Affordance Norms_South Alabama",1,37,2022-12-01T21:29:06+00:00,29.677664995193,26,"updated stim.csv",Version26.csv,"Version 26","List 26",head,,780,5.48,1263,781,BOI,-,-,"Please name all of the ways you could use this object. Keep in mind that one object can have many uses. Separate your responses with a comma.",,y,29465,,,5959,26684,,,,"touch, wiggle, shake, ",1
J00718888_hal,tchj0l7zqu,"Affordance Norms_South Alabama",1,38,2022-12-01T21:29:15+00:00,9.7267689704895,26,"updated stim.csv",Version26.csv,"Version 26","List 26",thumbscrew,,760,5.173913043,2689,761,BOI,-,-,"Please name all of the ways you could use this object. Keep in mind that one object can have many uses. Separate your responses with a comma.",,y,9502,,,7573,8835,,,,screw,1
J00718888_hal,tchj0l7zqu,"Affordance Norms_South Alabama",1,39,2022-12-01T21:29:51+00:00,35.926743984222,26,"updated stim.csv",Version26.csv,"Version 26","List 26",rucksack,,755,5.041666667,2203,756,BOI,-,-,"Please name all of the ways you could use this object. Keep in mind that one object can have many uses. Separate your responses with a comma.",,y,35700,,,20063,34917,,,,"carry, hold, throw, put things in",1
J00718888_hal,tchj0l7zqu,"Affordance Norms_South Alabama",1,40,2022-12-01T21:30:28+00:00,36.962321996689,26,"updated stim.csv",Version26.csv,"Version 26","List 26",weapon,,763,5.52173913,2914,764,BOI,-,-,"Please name all of the ways you could use this object. Keep in mind that one object can have many uses. Separate your responses with a comma.",,y,36741,,,3477,32383,,,,"hit someone, kill someone, give to police, carry, hurt",1
J00718888_hal,tchj0l7zqu,"Affordance Norms_South Alabama",1,41,2022-12-01T21:30:32+00:00,3.6032330989838,26,"updated stim.csv",Version26.csv,"Version 26","List 26",,,,,,0,Instruct,,,"You will now be asked a few questions about your experience today.",,"Instruct 4",3465,,,-1,-1,,,,,1
