Username,ID,ExperimentName,Session,Trial,Date,TimeDif,"Condition Number","Stimuli File","Order File","Condition Description","Condition Notes",Stimuli*Cue,Stimuli*Answer,Stimuli*Shuffle,"Stimuli*Stimuli Notes",Stimuli*Value,Stimuli*Rand,Procedure*Item,"Procedure*Trial Type","Procedure*Max Time","Procedure*Min Time",Procedure*Text,"Procedure*Procedure Notes",Procedure*Shuffle,Response*RT,Response*Response,Response*Accuracy,Response*RTfirst,Response*RTlast,Response*strictAcc,Response*lenientAcc,Response*focus,Response*JOL,Response*Focus
w10045458_kdmc,cncgw1fbev,"Affordance Norms_USM",1,1,2023-07-26T04:11:47+00:00,10.36677312851,5,"updated stim.csv",Version5.csv,"Version 5","List 5",,,,,,,0,Instruct,-,10,"In this section, you will be presented with a series of objects. Please name as many possible uses for this object as you can think of by typing them in the box below each object.",,Instruct1,10241,,,-1,-1,,,,,1
w10045458_kdmc,cncgw1fbev,"Affordance Norms_USM",1,2,2023-07-26T04:12:02+00:00,15.060632944107,5,"updated stim.csv",Version5.csv,"Version 5","List 5",,,,,,,0,Instruct,-,10,"Please keep in mind that a single object will have more than one use. For example, a ball can be thrown or can be bounced or even stepped on. When listing multiple uses for one object, please separate each use with a comma (i.e., thrown, bounced, stepped on)",,Instruct2,14884,,,-1,-1,,,,,1
w10045458_kdmc,cncgw1fbev,"Affordance Norms_USM",1,3,2023-07-26T04:12:05+00:00,3.4667410850525,5,"updated stim.csv",Version5.csv,"Version 5","List 5",,,,,,,0,Instruct,-,-,"Before starting the experiment, you will complete a short practice sesstion. Press ENTER when you are ready to begin.",,Instruct3,3293,,,-1,-1,,,,,1
w10045458_kdmc,cncgw1fbev,"Affordance Norms_USM",1,4,2023-07-26T04:12:33+00:00,28.204555034637,5,"updated stim.csv",Version5.csv,"Version 5","List 5",spaghetti,,634,4.608695652,2807,0.295026168,635,BOI,-,-,"Please name all of the ways you could use this object. Keep in mind that one object can have many uses. Separate your responses with a comma.",,n,28011,,,8963,26967,,,,"can be eaten, can be cooked, can be thrown away",1
w10045458_kdmc,cncgw1fbev,"Affordance Norms_USM",1,5,2023-07-26T04:12:55+00:00,21.1221139431,5,"updated stim.csv",Version5.csv,"Version 5","List 5",grain,,635,4.708333333,1700,0.685106443,636,BOI,-,-,"Please name all of the ways you could use this object. Keep in mind that one object can have many uses. Separate your responses with a comma.",,n,20930,,,1777,20117,,,,"can be healthy, can be grew on a farm",1
w10045458_kdmc,cncgw1fbev,"Affordance Norms_USM",1,6,2023-07-26T04:13:07+00:00,12.800956964493,5,"updated stim.csv",Version5.csv,"Version 5","List 5",paperwork,,632,4.28,439,0.557499565,633,BOI,-,-,"Please name all of the ways you could use this object. Keep in mind that one object can have many uses. Separate your responses with a comma.",,n,12621,,,1811,11807,,,,"can be shredded, can be printed, can be filed ",1
w10045458_kdmc,cncgw1fbev,"Affordance Norms_USM",1,7,2023-07-26T04:13:49+00:00,41.356566905975,5,"updated stim.csv",Version5.csv,"Version 5","List 5",glove,,631,5.217391304,2788,0.288599309,632,BOI,-,-,"Please name all of the ways you could use this object. Keep in mind that one object can have many uses. Separate your responses with a comma.",,n,41168,,,2121,40885,,,,"can be worn, can be used as protection, can be used at the hospital, can be used to catch baseball/softball",1
w10045458_kdmc,cncgw1fbev,"Affordance Norms_USM",1,8,2023-07-26T04:14:10+00:00,21.070586204529,5,"updated stim.csv",Version5.csv,"Version 5","List 5",shortening,,633,4.961538462,2303,0.081957919,634,BOI,-,-,"Please name all of the ways you could use this object. Keep in mind that one object can have many uses. Separate your responses with a comma.",,n,20888,,,1928,20726,,,,"can be used to cut off something, to make something shorter",1
w10045458_kdmc,cncgw1fbev,"Affordance Norms_USM",1,9,2023-07-26T04:14:13+00:00,2.8084189891815,5,"updated stim.csv",Version5.csv,"Version 5","List 5",,,,,,,0,Instruct,-,-,"You have completed this section. Press ENTER to continue",,"Instruct 5",2628,,,-1,-1,,,,,1
w10045458_kdmc,cncgw1fbev,"Affordance Norms_USM",1,10,2023-07-26T04:14:17+00:00,4.1743488311768,5,"updated stim.csv",Version5.csv,"Version 5","List 5",,,,,,,0,Instruct,-,-,"You will now start the full experiment. Press ENTER when you are ready to begin.",,,4003,,,-1,-1,,,,,1
w10045458_kdmc,cncgw1fbev,"Affordance Norms_USM",1,11,2023-07-26T04:14:37+00:00,20.087727069855,5,"updated stim.csv",Version5.csv,"Version 5","List 5",globe,,140,4.68,51,0.461950375,141,BOI,-,-,"Please name all of the ways you could use this object. Keep in mind that one object can have many uses. Separate your responses with a comma.",,y,19901,,,4170,9946,,,,"to view the world",1
w10045458_kdmc,cncgw1fbev,"Affordance Norms_USM",1,12,2023-07-26T04:15:12+00:00,35.330764055252,5,"updated stim.csv",Version5.csv,"Version 5","List 5",ballot,,148,6.434782609,814,0.883086008,149,BOI,-,-,"Please name all of the ways you could use this object. Keep in mind that one object can have many uses. Separate your responses with a comma.",,y,35130,,,1977,34846,,,,"to vote for something, can list something for an election",1
w10045458_kdmc,cncgw1fbev,"Affordance Norms_USM",1,13,2023-07-26T04:15:36+00:00,23.343720912933,5,"updated stim.csv",Version5.csv,"Version 5","List 5",eclair,,124,4.833333333,638,0.549670749,125,BOI,-,-,"Please name all of the ways you could use this object. Keep in mind that one object can have many uses. Separate your responses with a comma.",,y,23152,,,18483,22484,,,,"can be eaten",1
w10045458_kdmc,cncgw1fbev,"Affordance Norms_USM",1,14,2023-07-26T04:16:05+00:00,29.121693134308,5,"updated stim.csv",Version5.csv,"Version 5","List 5",parchment,,141,4.375,2495,0.024282326,142,BOI,-,-,"Please name all of the ways you could use this object. Keep in mind that one object can have many uses. Separate your responses with a comma.",,y,27774,,,4255,24204,,,,"used to imprison inmates, used as punishment ",1
w10045458_kdmc,cncgw1fbev,"Affordance Norms_USM",1,15,2023-07-26T04:16:09+00:00,3.8439018726349,5,"updated stim.csv",Version5.csv,"Version 5","List 5",fawn,,138,5.12,2966,0.663344397,139,BOI,-,-,"Please name all of the ways you could use this object. Keep in mind that one object can have many uses. Separate your responses with a comma.",,y,3633,,,1993,3059,,,,n/a,1
w10045458_kdmc,cncgw1fbev,"Affordance Norms_USM",1,16,2023-07-26T04:16:43+00:00,34.516119003296,5,"updated stim.csv",Version5.csv,"Version 5","List 5",torso,,128,4.782608696,2910,0.65261601,129,BOI,-,-,"Please name all of the ways you could use this object. Keep in mind that one object can have many uses. Separate your responses with a comma.",,y,34324,,,13417,33630,,,,"used to connect top half and bottom half of human body",1
w10045458_kdmc,cncgw1fbev,"Affordance Norms_USM",1,17,2023-07-26T04:17:07+00:00,24.202507019043,5,"updated stim.csv",Version5.csv,"Version 5","List 5",horseman,,132,5.608695652,386,0.325095127,133,BOI,-,-,"Please name all of the ways you could use this object. Keep in mind that one object can have many uses. Separate your responses with a comma.",,y,23898,,,18211,23601,,,,"men who tames horses",1
w10045458_kdmc,cncgw1fbev,"Affordance Norms_USM",1,18,2023-07-26T04:17:49+00:00,42.065033912659,5,"updated stim.csv",Version5.csv,"Version 5","List 5",barrette,,149,5.8,717,0.131827503,150,BOI,-,-,"Please name all of the ways you could use this object. Keep in mind that one object can have many uses. Separate your responses with a comma.",,y,41871,,,19766,41417,,,,"used to hold hair in place, used as decoration in hair",1
w10045458_kdmc,cncgw1fbev,"Affordance Norms_USM",1,19,2023-07-26T04:17:52+00:00,2.5203402042389,5,"updated stim.csv",Version5.csv,"Version 5","List 5",frankfurter,,139,5.391304348,2026,0.369576509,140,BOI,-,-,"Please name all of the ways you could use this object. Keep in mind that one object can have many uses. Separate your responses with a comma.",,y,2340,,,1558,2233,,,,n/a,1
w10045458_kdmc,cncgw1fbev,"Affordance Norms_USM",1,20,2023-07-26T04:18:44+00:00,52.240666866302,5,"updated stim.csv",Version5.csv,"Version 5","List 5",optician,,125,5.04,1900,0.012619648,126,BOI,-,-,"Please name all of the ways you could use this object. Keep in mind that one object can have many uses. Separate your responses with a comma.",,y,52033,,,13825,51523,,,,"eye doctor, subscribes eyeglasses and contacts, checks vision",1
w10045458_kdmc,cncgw1fbev,"Affordance Norms_USM",1,21,2023-07-26T04:19:12+00:00,27.974944114685,5,"updated stim.csv",Version5.csv,"Version 5","List 5",bankbook,,130,,3002,0.356895476,131,BOI,-,-,"Please name all of the ways you could use this object. Keep in mind that one object can have many uses. Separate your responses with a comma.",,y,27776,,,12800,26464,,,,"passport, used to enter another country",1
w10045458_kdmc,cncgw1fbev,"Affordance Norms_USM",1,22,2023-07-26T04:19:31+00:00,19.137912988663,5,"updated stim.csv",Version5.csv,"Version 5","List 5",wiper,,136,5.44,1413,0.406137653,137,BOI,-,-,"Please name all of the ways you could use this object. Keep in mind that one object can have many uses. Separate your responses with a comma.",,y,18950,,,12074,18483,,,,"used to clean windshield",1
w10045458_kdmc,cncgw1fbev,"Affordance Norms_USM",1,23,2023-07-26T04:20:11+00:00,39.939558982849,5,"updated stim.csv",Version5.csv,"Version 5","List 5",piss,,121,5.791666667,973,0.03998685,122,BOI,-,-,"Please name all of the ways you could use this object. Keep in mind that one object can have many uses. Separate your responses with a comma.",,y,39744,,,3271,39127,,,,"known as urine, used as an adjective or verb of being or describing how angry you areangry",1
w10045458_kdmc,cncgw1fbev,"Affordance Norms_USM",1,24,2023-07-26T04:20:37+00:00,25.421074867249,5,"updated stim.csv",Version5.csv,"Version 5","List 5",teakwood,,127,4.607142857,2761,0.821162254,128,BOI,-,-,"Please name all of the ways you could use this object. Keep in mind that one object can have many uses. Separate your responses with a comma.",,y,25228,,,16655,24942,,,,"a scent, a type of wood",1
w10045458_kdmc,cncgw1fbev,"Affordance Norms_USM",1,25,2023-07-26T04:21:21+00:00,44.937824010849,5,"updated stim.csv",Version5.csv,"Version 5","List 5",nursemaid,,133,5.086956522,2971,0.589394286,134,BOI,-,-,"Please name all of the ways you could use this object. Keep in mind that one object can have many uses. Separate your responses with a comma.",,y,44738,,,32722,42729,,,,"used to babysit",1
w10045458_kdmc,cncgw1fbev,"Affordance Norms_USM",1,26,2023-07-26T04:21:41+00:00,19.647120952606,5,"updated stim.csv",Version5.csv,"Version 5","List 5",worksheet,,147,4.428571429,1867,0.923363889,148,BOI,-,-,"Please name all of the ways you could use this object. Keep in mind that one object can have many uses. Separate your responses with a comma.",,y,19459,,,2064,12953,,,,"used to give instructions on something ",1
w10045458_kdmc,cncgw1fbev,"Affordance Norms_USM",1,27,2023-07-26T04:22:06+00:00,24.583013057709,5,"updated stim.csv",Version5.csv,"Version 5","List 5",teacup,,143,4.583333333,470,0.107709949,144,BOI,-,-,"Please name all of the ways you could use this object. Keep in mind that one object can have many uses. Separate your responses with a comma.",,y,24389,,,1680,23891,,,,"used to drink tea out of, could also be used as a adjective for a dog meaning small",1
w10045458_kdmc,cncgw1fbev,"Affordance Norms_USM",1,28,2023-07-26T04:23:07+00:00,60.826024055481,5,"updated stim.csv",Version5.csv,"Version 5","List 5",thumbnail,,134,5.296296296,1310,0.74583685,135,BOI,-,-,"Please name all of the ways you could use this object. Keep in mind that one object can have many uses. Separate your responses with a comma.",,y,60396,,,7804,58165,,,,"used as a nail to place in wall, used as a representation of images ",1
w10045458_kdmc,cncgw1fbev,"Affordance Norms_USM",1,29,2023-07-26T04:23:09+00:00,2.2920589447021,5,"updated stim.csv",Version5.csv,"Version 5","List 5",ore,,126,4.52,2234,0.16035416,127,BOI,-,-,"Please name all of the ways you could use this object. Keep in mind that one object can have many uses. Separate your responses with a comma.",,y,2114,,,1477,2011,,,,n/s,1
w10045458_kdmc,cncgw1fbev,"Affordance Norms_USM",1,30,2023-07-26T04:23:29+00:00,19.747550010681,5,"updated stim.csv",Version5.csv,"Version 5","List 5",wheat,,129,5.041666667,175,0.357199657,130,BOI,-,-,"Please name all of the ways you could use this object. Keep in mind that one object can have many uses. Separate your responses with a comma.",,y,19573,,,3176,19323,,,,"used in bread, or food "" healthy choice""",1
w10045458_kdmc,cncgw1fbev,"Affordance Norms_USM",1,31,2023-07-26T04:23:32+00:00,3.428906917572,5,"updated stim.csv",Version5.csv,"Version 5","List 5",urn,,135,4.411764706,1467,0.485337296,136,BOI,-,-,"Please name all of the ways you could use this object. Keep in mind that one object can have many uses. Separate your responses with a comma.",,y,3248,,,1500,2509,,,,n/a,1
w10045458_kdmc,cncgw1fbev,"Affordance Norms_USM",1,32,2023-07-26T04:24:18+00:00,46.242963075638,5,"updated stim.csv",Version5.csv,"Version 5","List 5",workroom,,146,4.64,2078,0.373078665,147,BOI,-,-,"Please name all of the ways you could use this object. Keep in mind that one object can have many uses. Separate your responses with a comma.",,y,46052,,,6919,44254,,,,"used as a job station, store room ",1
w10045458_kdmc,cncgw1fbev,"Affordance Norms_USM",1,33,2023-07-26T04:24:28+00:00,9.8122651576996,5,"updated stim.csv",Version5.csv,"Version 5","List 5",tablecloth,,142,4.913043478,2044,0.01460871,143,BOI,-,-,"Please name all of the ways you could use this object. Keep in mind that one object can have many uses. Separate your responses with a comma.",,y,9625,,,1995,9382,,,,"used to cover table to keep from getting dirty",1
w10045458_kdmc,cncgw1fbev,"Affordance Norms_USM",1,34,2023-07-26T04:25:30+00:00,62.388898849487,5,"updated stim.csv",Version5.csv,"Version 5","List 5",applicator,,137,4.928571429,2330,0.621252368,138,BOI,-,-,"Please name all of the ways you could use this object. Keep in mind that one object can have many uses. Separate your responses with a comma.",,y,61934,,,3728,61747,,,,"used to apply something without physically touching with hands",1
w10045458_kdmc,cncgw1fbev,"Affordance Norms_USM",1,35,2023-07-26T04:25:33+00:00,2.9681150913239,5,"updated stim.csv",Version5.csv,"Version 5","List 5",bodice,,131,5.36,2003,0.404603014,132,BOI,-,-,"Please name all of the ways you could use this object. Keep in mind that one object can have many uses. Separate your responses with a comma.",,y,2786,,,1154,2018,,,,n/a,1
w10045458_kdmc,cncgw1fbev,"Affordance Norms_USM",1,36,2023-07-26T04:27:16+00:00,102.84718990326,5,"updated stim.csv",Version5.csv,"Version 5","List 5",trainer,,144,5.428571429,2984,0.95091675,145,BOI,-,-,"Please name all of the ways you could use this object. Keep in mind that one object can have many uses. Separate your responses with a comma.",,y,102583,,,3476,17887,,,,"someone who helps achieve goals",1
w10045458_kdmc,cncgw1fbev,"Affordance Norms_USM",1,37,2023-07-26T04:27:45+00:00,28.702099084854,5,"updated stim.csv",Version5.csv,"Version 5","List 5",building,,150,5.8,937,0.594546173,151,BOI,-,-,"Please name all of the ways you could use this object. Keep in mind that one object can have many uses. Separate your responses with a comma.",,y,28485,,,2119,26960,,,,"used to store thing, where businesses are located",1
w10045458_kdmc,cncgw1fbev,"Affordance Norms_USM",1,38,2023-07-26T04:27:54+00:00,9.2469120025635,5,"updated stim.csv",Version5.csv,"Version 5","List 5",trench,,123,4.318181818,2903,0.192088069,124,BOI,-,-,"Please name all of the ways you could use this object. Keep in mind that one object can have many uses. Separate your responses with a comma.",,y,9059,,,6917,8433,,,,n/a,1
w10045458_kdmc,cncgw1fbev,"Affordance Norms_USM",1,39,2023-07-26T04:27:58+00:00,3.6310288906097,5,"updated stim.csv",Version5.csv,"Version 5","List 5",tonic,,122,6.28,1637,0.689498349,123,BOI,-,-,"Please name all of the ways you could use this object. Keep in mind that one object can have many uses. Separate your responses with a comma.",,y,3461,,,1721,2726,,,,n/a,1
w10045458_kdmc,cncgw1fbev,"Affordance Norms_USM",1,40,2023-07-26T04:28:05+00:00,7.675320148468,5,"updated stim.csv",Version5.csv,"Version 5","List 5",walrus,,145,4.923076923,2055,0.604936304,146,BOI,-,-,"Please name all of the ways you could use this object. Keep in mind that one object can have many uses. Separate your responses with a comma.",,y,7492,,,4436,6878,,,,animal,1
w10045458_kdmc,cncgw1fbev,"Affordance Norms_USM",1,41,2023-07-26T04:28:09+00:00,3.1870620250702,5,"updated stim.csv",Version5.csv,"Version 5","List 5",,,,,,,0,Instruct,,,"You will now be asked a few questions about your experience today.",,"Instruct 4",3005,,,-1,-1,,,,,1
