"Username","ID","ExperimentName","Session","Trial","Date","TimeDif","Condition.Number","Stimuli.File","Order.File","Condition.Description","Condition.Notes","Stimuli.Cue","Stimuli.Answer","Stimuli.Shuffle","Stimuli.Stimuli.Notes","Stimuli.Value","Procedure.Item","Procedure.Trial.Type","Procedure.Max.Time","Procedure.Min.Time","Procedure.Text","Procedure.Procedure.Notes","Procedure.Shuffle","Response.RT","Response.Response","Response.Accuracy","Response.RTfirst","Response.RTlast","Response.strictAcc","Response.lenientAcc","Response.focus","Response.JOL","Response.Focus"
"ClairePigeon","ax4gtee322","Affordance Norms_clemson",1,11,"2022-12-12T17:47:49+00:00",31.463162899017,16,"updated stim.csv","Version16.csv","Version 16","List 16","pole",NA,475,5.32,2020,476,"BOI","-","-","Please name all of the ways you could use this object. Keep in mind that one object can have many uses. Separate your responses with a comma.",NA,"y",31127,NA,NA,8660,23704,NA,NA,NA,"dance, hang, drill",1
"ClairePigeon","ax4gtee322","Affordance Norms_clemson",1,12,"2022-12-12T17:48:12+00:00",22.308794021606,16,"updated stim.csv","Version16.csv","Version 16","List 16","policewoman",NA,479,4.904761905,2023,480,"BOI","-","-","Please name all of the ways you could use this object. Keep in mind that one object can have many uses. Separate your responses with a comma.",NA,"y",22071,NA,NA,4982,21214,NA,NA,NA,"arrest, check, protect, testify, kill",1
"ClairePigeon","ax4gtee322","Affordance Norms_clemson",1,13,"2022-12-12T17:48:34+00:00",22.148536920547,16,"updated stim.csv","Version16.csv","Version 16","List 16","paintbox",NA,478,4.44,1848,479,"BOI","-","-","Please name all of the ways you could use this object. Keep in mind that one object can have many uses. Separate your responses with a comma.",NA,"y",21901,NA,NA,6383,19286,NA,NA,NA,"draw, create, mix",1
"ClairePigeon","ax4gtee322","Affordance Norms_clemson",1,14,"2022-12-12T17:48:52+00:00",18.141710042953,16,"updated stim.csv","Version16.csv","Version 16","List 16","lake",NA,465,5.035714286,1452,466,"BOI","-","-","Please name all of the ways you could use this object. Keep in mind that one object can have many uses. Separate your responses with a comma.",NA,"y",17974,NA,NA,1513,16845,NA,NA,NA,"swim, tube, ski, fish",1
"ClairePigeon","ax4gtee322","Affordance Norms_clemson",1,15,"2022-12-12T17:49:01+00:00",8.8482611179352,16,"updated stim.csv","Version16.csv","Version 16","List 16","cocaine",NA,468,5.913043478,585,469,"BOI","-","-","Please name all of the ways you could use this object. Keep in mind that one object can have many uses. Separate your responses with a comma.",NA,"y",8720,NA,NA,1721,7870,NA,NA,NA,"snort, ingest, smoke",1
"ClairePigeon","ax4gtee322","Affordance Norms_clemson",1,16,"2022-12-12T17:49:10+00:00",8.7173588275909,16,"updated stim.csv","Version16.csv","Version 16","List 16","bayonet",NA,471,4.916666667,174,472,"BOI","-","-","Please name all of the ways you could use this object. Keep in mind that one object can have many uses. Separate your responses with a comma.",NA,"y",8511,NA,NA,2614,6192,NA,NA,NA,"stab, kill, defend",1
"ClairePigeon","ax4gtee322","Affordance Norms_clemson",1,17,"2022-12-12T17:49:24+00:00",14.332810163498,16,"updated stim.csv","Version16.csv","Version 16","List 16","rupee",NA,480,4.826086957,2208,481,"BOI","-","-","Please name all of the ways you could use this object. Keep in mind that one object can have many uses. Separate your responses with a comma.",NA,"y",14102,NA,NA,1727,13330,NA,NA,NA,"pay, invest, trade",1
"ClairePigeon","ax4gtee322","Affordance Norms_clemson",1,18,"2022-12-12T17:49:31+00:00",7.2390458583832,16,"updated stim.csv","Version16.csv","Version 16","List 16","apprentice",NA,466,4.321428571,65,467,"BOI","-","-","Please name all of the ways you could use this object. Keep in mind that one object can have many uses. Separate your responses with a comma.",NA,"y",7063,NA,NA,2001,5268,NA,NA,NA,"follow, learn, train",1
"ClairePigeon","ax4gtee322","Affordance Norms_clemson",1,19,"2022-12-12T17:49:44+00:00",13.231168031693,16,"updated stim.csv","Version16.csv","Version 16","List 16","checklist",NA,457,4.464285714,501,458,"BOI","-","-","Please name all of the ways you could use this object. Keep in mind that one object can have many uses. Separate your responses with a comma.",NA,"y",13084,NA,NA,2069,12162,NA,NA,NA,"check off, complete, finish, create",1
"ClairePigeon","ax4gtee322","Affordance Norms_clemson",1,20,"2022-12-12T17:50:08+00:00",23.70978307724,16,"updated stim.csv","Version16.csv","Version 16","List 16","raindrop",NA,460,5.208333333,2131,461,"BOI","-","-","Please name all of the ways you could use this object. Keep in mind that one object can have many uses. Separate your responses with a comma.",NA,"y",23468,NA,NA,1808,23270,NA,NA,NA,"fall, precipitate, replenish, fill",1
"ClairePigeon","ax4gtee322","Affordance Norms_clemson",1,21,"2022-12-12T17:50:16+00:00",7.6311550140381,16,"updated stim.csv","Version16.csv","Version 16","List 16","genital",NA,464,5.826086957,1095,465,"BOI","-","-","Please name all of the ways you could use this object. Keep in mind that one object can have many uses. Separate your responses with a comma.",NA,"y",7331,NA,NA,3083,5069,NA,NA,NA,"procreate",1
"ClairePigeon","ax4gtee322","Affordance Norms_clemson",1,22,"2022-12-12T17:50:33+00:00",17.311877012253,16,"updated stim.csv","Version16.csv","Version 16","List 16","collar",NA,469,5.12,600,470,"BOI","-","-","Please name all of the ways you could use this object. Keep in mind that one object can have many uses. Separate your responses with a comma.",NA,"y",17145,NA,NA,5644,16359,NA,NA,NA,"design, wear, sell",1
"ClairePigeon","ax4gtee322","Affordance Norms_clemson",1,23,"2022-12-12T17:50:44+00:00",11.06464099884,16,"updated stim.csv","Version16.csv","Version 16","List 16","linen",NA,462,5.875,1517,463,"BOI","-","-","Please name all of the ways you could use this object. Keep in mind that one object can have many uses. Separate your responses with a comma.",NA,"y",10889,NA,NA,1553,10777,NA,NA,NA,"sew, decorate, sleep, wear",1
"ClairePigeon","ax4gtee322","Affordance Norms_clemson",1,24,"2022-12-12T17:51:07+00:00",23.243787050247,16,"updated stim.csv","Version16.csv","Version 16","List 16","mutton",NA,474,5,1729,475,"BOI","-","-","Please name all of the ways you could use this object. Keep in mind that one object can have many uses. Separate your responses with a comma.",NA,"y",23009,NA,NA,16853,22858,NA,NA,NA,"eat, cook, consume, digest",1
"ClairePigeon","ax4gtee322","Affordance Norms_clemson",1,25,"2022-12-12T17:51:18+00:00",10.192533016205,16,"updated stim.csv","Version16.csv","Version 16","List 16","coal",NA,458,4.875,579,459,"BOI","-","-","Please name all of the ways you could use this object. Keep in mind that one object can have many uses. Separate your responses with a comma.",NA,"y",10011,NA,NA,1333,8771,NA,NA,NA,"burn, mine, clean",1
"ClairePigeon","ax4gtee322","Affordance Norms_clemson",1,26,"2022-12-12T17:51:28+00:00",10.156407833099,16,"updated stim.csv","Version16.csv","Version 16","List 16","note",NA,459,5.434782609,1781,460,"BOI","-","-","Please name all of the ways you could use this object. Keep in mind that one object can have many uses. Separate your responses with a comma.",NA,"y",10017,NA,NA,1445,9866,NA,NA,NA,"write, send, receive, remind",1
"ClairePigeon","ax4gtee322","Affordance Norms_clemson",1,27,"2022-12-12T17:51:39+00:00",10.860057115555,16,"updated stim.csv","Version16.csv","Version 16","List 16","satin",NA,455,5.125,2246,456,"BOI","-","-","Please name all of the ways you could use this object. Keep in mind that one object can have many uses. Separate your responses with a comma.",NA,"y",10719,NA,NA,1322,9890,NA,NA,NA,"wear, buy, sleep, design",1
"ClairePigeon","ax4gtee322","Affordance Norms_clemson",1,28,"2022-12-12T17:52:04+00:00",25.234467029572,16,"updated stim.csv","Version16.csv","Version 16","List 16","spatula",NA,461,5.708333333,2463,462,"BOI","-","-","Please name all of the ways you could use this object. Keep in mind that one object can have many uses. Separate your responses with a comma.",NA,"y",24803,NA,NA,2497,21270,NA,NA,NA,"serve, flip, separate",1
"ClairePigeon","ax4gtee322","Affordance Norms_clemson",1,29,"2022-12-12T17:52:11+00:00",7.215322971344,16,"updated stim.csv","Version16.csv","Version 16","List 16","soap",NA,452,6.434782609,2437,453,"BOI","-","-","Please name all of the ways you could use this object. Keep in mind that one object can have many uses. Separate your responses with a comma.",NA,"y",7056,NA,NA,1248,6905,NA,NA,NA,"clean, wash, rinse",1
"ClairePigeon","ax4gtee322","Affordance Norms_clemson",1,30,"2022-12-12T17:52:23+00:00",11.814571857452,16,"updated stim.csv","Version16.csv","Version 16","List 16","jean",NA,477,5.956521739,1378,478,"BOI","-","-","Please name all of the ways you could use this object. Keep in mind that one object can have many uses. Separate your responses with a comma.",NA,"y",11682,NA,NA,1442,11520,NA,NA,NA,"wear, sell, washed",1
"ClairePigeon","ax4gtee322","Affordance Norms_clemson",1,31,"2022-12-12T17:52:29+00:00",6.5168039798737,16,"updated stim.csv","Version16.csv","Version 16","List 16","nickel",NA,467,5.814814815,1766,468,"BOI","-","-","Please name all of the ways you could use this object. Keep in mind that one object can have many uses. Separate your responses with a comma.",NA,"y",6356,NA,NA,1272,6260,NA,NA,NA,"sell, trade, invest",1
"ClairePigeon","ax4gtee322","Affordance Norms_clemson",1,32,"2022-12-12T17:52:42+00:00",13.028341054916,16,"updated stim.csv","Version16.csv","Version 16","List 16","stoop",NA,473,4.5,2548,474,"BOI","-","-","Please name all of the ways you could use this object. Keep in mind that one object can have many uses. Separate your responses with a comma.",NA,"y",12887,NA,NA,3611,12355,NA,NA,NA,"sit, stand, decorate, walk",1
"ClairePigeon","ax4gtee322","Affordance Norms_clemson",1,33,"2022-12-12T17:52:50+00:00",8.0294561386108,16,"updated stim.csv","Version16.csv","Version 16","List 16","easel",NA,470,4.72,885,471,"BOI","-","-","Please name all of the ways you could use this object. Keep in mind that one object can have many uses. Separate your responses with a comma.",NA,"y",7879,NA,NA,1376,7592,NA,NA,NA,"paint, create, hold, prop",1
"ClairePigeon","ax4gtee322","Affordance Norms_clemson",1,34,"2022-12-12T17:52:59+00:00",9.0011858940125,16,"updated stim.csv","Version16.csv","Version 16","List 16","sardine",NA,453,4.869565217,2242,454,"BOI","-","-","Please name all of the ways you could use this object. Keep in mind that one object can have many uses. Separate your responses with a comma.",NA,"y",8814,NA,NA,2014,7654,NA,NA,NA,"eat, digest, cook",1
"ClairePigeon","ax4gtee322","Affordance Norms_clemson",1,35,"2022-12-12T17:53:11+00:00",11.278536081314,16,"updated stim.csv","Version16.csv","Version 16","List 16","paraphernalia",NA,472,4.5,1871,473,"BOI","-","-","Please name all of the ways you could use this object. Keep in mind that one object can have many uses. Separate your responses with a comma.",NA,"y",11136,NA,NA,2999,10636,NA,NA,NA,"decorate, sell, trade, keep",1
"ClairePigeon","ax4gtee322","Affordance Norms_clemson",1,36,"2022-12-12T17:53:33+00:00",22.392150878906,16,"updated stim.csv","Version16.csv","Version 16","List 16","lip",NA,463,5.52173913,1521,464,"BOI","-","-","Please name all of the ways you could use this object. Keep in mind that one object can have many uses. Separate your responses with a comma.",NA,"y",22164,NA,NA,5195,22027,NA,NA,NA,"bite, chew, kiss",1
"ClairePigeon","ax4gtee322","Affordance Norms_clemson",1,37,"2022-12-12T17:53:56+00:00",22.440176010132,16,"updated stim.csv","Version16.csv","Version 16","List 16","mortician",NA,451,4.833333333,1686,452,"BOI","-","-","Please name all of the ways you could use this object. Keep in mind that one object can have many uses. Separate your responses with a comma.",NA,"y",22219,NA,NA,4657,22139,NA,NA,NA,"keep, care for, investigate",1
"ClairePigeon","ax4gtee322","Affordance Norms_clemson",1,38,"2022-12-12T17:54:16+00:00",20.466313123703,16,"updated stim.csv","Version16.csv","Version 16","List 16","thigh",NA,454,5.76,2680,455,"BOI","-","-","Please name all of the ways you could use this object. Keep in mind that one object can have many uses. Separate your responses with a comma.",NA,"y",20237,NA,NA,2893,19044,NA,NA,NA,"touch, stretch, work out",1
"ClairePigeon","ax4gtee322","Affordance Norms_clemson",1,39,"2022-12-12T17:54:28+00:00",12.228554964066,16,"updated stim.csv","Version16.csv","Version 16","List 16","scientist",NA,456,4.47826087,2274,457,"BOI","-","-","Please name all of the ways you could use this object. Keep in mind that one object can have many uses. Separate your responses with a comma.",NA,"y",12013,NA,NA,4440,11874,NA,NA,NA,"create, invent, research, experiment",1
"ClairePigeon","ax4gtee322","Affordance Norms_clemson",1,40,"2022-12-12T17:54:38+00:00",10.110715866089,16,"updated stim.csv","Version16.csv","Version 16","List 16","cellar",NA,476,4.6,472,477,"BOI","-","-","Please name all of the ways you could use this object. Keep in mind that one object can have many uses. Separate your responses with a comma.",NA,"y",9935,NA,NA,2886,5901,NA,NA,NA,"store, hide",1
"MaryKahler","0i7fgtf792","Affordance Norms_clemson",1,11,"2022-12-13T04:43:57+00:00",18.066896915436,18,"updated stim.csv","Version18.csv","Version 18","List 18","bellboy",NA,535,4.8,197,536,"BOI","-","-","Please name all of the ways you could use this object. Keep in mind that one object can have many uses. Separate your responses with a comma.",NA,"y",17191,NA,NA,2403,16833,NA,NA,NA,"ring the bell, alert, acknowledge",1
"MaryKahler","0i7fgtf792","Affordance Norms_clemson",1,12,"2022-12-13T04:44:07+00:00",10.3034491539,18,"updated stim.csv","Version18.csv","Version 18","List 18","inventor",NA,529,4.391304348,1366,530,"BOI","-","-","Please name all of the ways you could use this object. Keep in mind that one object can have many uses. Separate your responses with a comma.",NA,"y",9870,NA,NA,1638,9684,NA,NA,NA,"create, make, inspire, come up with ",1
"MaryKahler","0i7fgtf792","Affordance Norms_clemson",1,13,"2022-12-13T04:44:25+00:00",17.965131998062,18,"updated stim.csv","Version18.csv","Version 18","List 18","chimpanzee",NA,512,4.260869565,525,513,"BOI","-","-","Please name all of the ways you could use this object. Keep in mind that one object can have many uses. Separate your responses with a comma.",NA,"y",17626,NA,NA,3599,16328,NA,NA,NA,"monkey, play, eat, ",1
"MaryKahler","0i7fgtf792","Affordance Norms_clemson",1,14,"2022-12-13T04:44:31+00:00",6.1168839931488,18,"updated stim.csv","Version18.csv","Version 18","List 18","croissant",NA,518,6,699,519,"BOI","-","-","Please name all of the ways you could use this object. Keep in mind that one object can have many uses. Separate your responses with a comma.",NA,"y",5799,NA,NA,1185,5335,NA,NA,NA,"eat, throw",1
"MaryKahler","0i7fgtf792","Affordance Norms_clemson",1,15,"2022-12-13T04:44:38+00:00",7.536239862442,18,"updated stim.csv","Version18.csv","Version 18","List 18","cosmetician",NA,520,4.8,655,521,"BOI","-","-","Please name all of the ways you could use this object. Keep in mind that one object can have many uses. Separate your responses with a comma.",NA,"y",7227,NA,NA,2680,6621,NA,NA,NA,"do make up ",1
"MaryKahler","0i7fgtf792","Affordance Norms_clemson",1,16,"2022-12-13T04:44:49+00:00",10.259543180466,18,"updated stim.csv","Version18.csv","Version 18","List 18","packaging",NA,524,5.038461538,1838,525,"BOI","-","-","Please name all of the ways you could use this object. Keep in mind that one object can have many uses. Separate your responses with a comma.",NA,"y",9953,NA,NA,2802,9806,NA,NA,NA,"to send, mail, protect",1
"MaryKahler","0i7fgtf792","Affordance Norms_clemson",1,17,"2022-12-13T04:45:07+00:00",17.918852806091,18,"updated stim.csv","Version18.csv","Version 18","List 18","croquet",NA,517,4.84,701,518,"BOI","-","-","Please name all of the ways you could use this object. Keep in mind that one object can have many uses. Separate your responses with a comma.",NA,"y",17552,NA,NA,2643,17163,NA,NA,NA,"to knit, keep warm, entertain ",1
"MaryKahler","0i7fgtf792","Affordance Norms_clemson",1,18,"2022-12-13T04:45:27+00:00",20.453605175018,18,"updated stim.csv","Version18.csv","Version 18","List 18","adapter",NA,532,4.583333333,13,533,"BOI","-","-","Please name all of the ways you could use this object. Keep in mind that one object can have many uses. Separate your responses with a comma.",NA,"y",20012,NA,NA,2285,19509,NA,NA,NA,"power source, charger, someone who is able to change",1
"MaryKahler","0i7fgtf792","Affordance Norms_clemson",1,19,"2022-12-13T04:45:36+00:00",8.8351130485535,18,"updated stim.csv","Version18.csv","Version 18","List 18","armor",NA,530,5.333333333,74,531,"BOI","-","-","Please name all of the ways you could use this object. Keep in mind that one object can have many uses. Separate your responses with a comma.",NA,"y",8142,NA,NA,1226,7905,NA,NA,NA,"to protect, to wear, to look good ",1
"MaryKahler","0i7fgtf792","Affordance Norms_clemson",1,20,"2022-12-13T04:45:51+00:00",14.897575855255,18,"updated stim.csv","Version18.csv","Version 18","List 18","guard",NA,515,5,1184,516,"BOI","-","-","Please name all of the ways you could use this object. Keep in mind that one object can have many uses. Separate your responses with a comma.",NA,"y",14350,NA,NA,3035,11980,NA,NA,NA,"protect, keep safe, a person who stands out ",1
"MaryKahler","0i7fgtf792","Affordance Norms_clemson",1,21,"2022-12-13T04:46:11+00:00",19.944446086884,18,"updated stim.csv","Version18.csv","Version 18","List 18","boy",NA,521,4.962962963,296,522,"BOI","-","-","Please name all of the ways you could use this object. Keep in mind that one object can have many uses. Separate your responses with a comma.",NA,"y",19311,NA,NA,3778,18252,NA,NA,NA,"to play, protect, eat, hang out, work",1
"MaryKahler","0i7fgtf792","Affordance Norms_clemson",1,22,"2022-12-13T04:46:19+00:00",8.7248020172119,18,"updated stim.csv","Version18.csv","Version 18","List 18","capacitor",NA,527,4.375,423,528,"BOI","-","-","Please name all of the ways you could use this object. Keep in mind that one object can have many uses. Separate your responses with a comma.",NA,"y",8087,NA,NA,6522,7792,NA,NA,NA,"breathing ",1
"MaryKahler","0i7fgtf792","Affordance Norms_clemson",1,23,"2022-12-13T04:46:31+00:00",11.423320055008,18,"updated stim.csv","Version18.csv","Version 18","List 18","sweater",NA,531,6.592592593,2604,532,"BOI","-","-","Please name all of the ways you could use this object. Keep in mind that one object can have many uses. Separate your responses with a comma.",NA,"y",11025,NA,NA,2175,9876,NA,NA,NA,"to wear, to keep warm, knit",1
"MaryKahler","0i7fgtf792","Affordance Norms_clemson",1,24,"2022-12-13T04:46:43+00:00",12.137654781342,18,"updated stim.csv","Version18.csv","Version 18","List 18","espresso",NA,533,5.24,921,534,"BOI","-","-","Please name all of the ways you could use this object. Keep in mind that one object can have many uses. Separate your responses with a comma.",NA,"y",11502,NA,NA,1102,11305,NA,NA,NA,"to drink, make coffee, keep awake",1
"MaryKahler","0i7fgtf792","Affordance Norms_clemson",1,25,"2022-12-13T04:46:51+00:00",8.2885320186615,18,"updated stim.csv","Version18.csv","Version 18","List 18","dishwasher",NA,522,5.592592593,803,523,"BOI","-","-","Please name all of the ways you could use this object. Keep in mind that one object can have many uses. Separate your responses with a comma.",NA,"y",7958,NA,NA,1225,7718,NA,NA,NA,"to clean your dishes ",1
"MaryKahler","0i7fgtf792","Affordance Norms_clemson",1,26,"2022-12-13T04:47:06+00:00",14.349344968796,18,"updated stim.csv","Version18.csv","Version 18","List 18","upholstery",NA,526,5.461538462,2827,527,"BOI","-","-","Please name all of the ways you could use this object. Keep in mind that one object can have many uses. Separate your responses with a comma.",NA,"y",13837,NA,NA,1415,13627,NA,NA,NA,"to sit on, to furnish, to look nice ",1
"MaryKahler","0i7fgtf792","Affordance Norms_clemson",1,27,"2022-12-13T04:47:15+00:00",9.2358381748199,18,"updated stim.csv","Version18.csv","Version 18","List 18","appetizer",NA,513,6.12,60,514,"BOI","-","-","Please name all of the ways you could use this object. Keep in mind that one object can have many uses. Separate your responses with a comma.",NA,"y",8397,NA,NA,1076,8211,NA,NA,NA,"to eat, to start the meal ",1
"MaryKahler","0i7fgtf792","Affordance Norms_clemson",1,28,"2022-12-13T04:47:27+00:00",11.660102844238,18,"updated stim.csv","Version18.csv","Version 18","List 18","basin",NA,538,4.818181818,161,539,"BOI","-","-","Please name all of the ways you could use this object. Keep in mind that one object can have many uses. Separate your responses with a comma.",NA,"y",10642,NA,NA,1250,10068,NA,NA,NA,"to wash, to put things in, to hold",1
"MaryKahler","0i7fgtf792","Affordance Norms_clemson",1,29,"2022-12-13T04:47:41+00:00",14.151014089584,18,"updated stim.csv","Version18.csv","Version 18","List 18","girlfriend",NA,536,5.730769231,1109,537,"BOI","-","-","Please name all of the ways you could use this object. Keep in mind that one object can have many uses. Separate your responses with a comma.",NA,"y",13762,NA,NA,1226,12047,NA,NA,NA,"to have fun with, to date, to kiss",1
"MaryKahler","0i7fgtf792","Affordance Norms_clemson",1,30,"2022-12-13T04:47:49+00:00",8.7002809047699,18,"updated stim.csv","Version18.csv","Version 18","List 18","tenderloin",NA,539,4.962962963,2663,540,"BOI","-","-","Please name all of the ways you could use this object. Keep in mind that one object can have many uses. Separate your responses with a comma.",NA,"y",8152,NA,NA,2134,7625,NA,NA,NA,"to eat a piece of meat ",1
"MaryKahler","0i7fgtf792","Affordance Norms_clemson",1,31,"2022-12-13T04:47:56+00:00",7.0199570655823,18,"updated stim.csv","Version18.csv","Version 18","List 18","Elevator",NA,537,5.486522911,901,538,"BOI","-","-","Please name all of the ways you could use this object. Keep in mind that one object can have many uses. Separate your responses with a comma.",NA,"y",6159,NA,NA,1374,5444,NA,NA,NA,"to go up or down, to move ",1
"MaryKahler","0i7fgtf792","Affordance Norms_clemson",1,32,"2022-12-13T04:48:08+00:00",11.217333078384,18,"updated stim.csv","Version18.csv","Version 18","List 18","skewer",NA,525,4.5,2396,526,"BOI","-","-","Please name all of the ways you could use this object. Keep in mind that one object can have many uses. Separate your responses with a comma.",NA,"y",10618,NA,NA,2298,10009,NA,NA,NA,"to stab, to hold something, to put throw",1
"MaryKahler","0i7fgtf792","Affordance Norms_clemson",1,33,"2022-12-13T04:48:24+00:00",16.607485055923,18,"updated stim.csv","Version18.csv","Version 18","List 18","orphan",NA,514,5.259259259,1824,515,"BOI","-","-","Please name all of the ways you could use this object. Keep in mind that one object can have many uses. Separate your responses with a comma.",NA,"y",16314,NA,NA,2015,16061,NA,NA,NA,"to love, to adpot, to bring",1
"MaryKahler","0i7fgtf792","Affordance Norms_clemson",1,34,"2022-12-13T04:48:38+00:00",13.273575782776,18,"updated stim.csv","Version18.csv","Version 18","List 18","breastplate",NA,519,5.136363636,314,520,"BOI","-","-","Please name all of the ways you could use this object. Keep in mind that one object can have many uses. Separate your responses with a comma.",NA,"y",12811,NA,NA,1752,12533,NA,NA,NA,"to protect, to wear",1
"MaryKahler","0i7fgtf792","Affordance Norms_clemson",1,35,"2022-12-13T04:48:46+00:00",8.127613067627,18,"updated stim.csv","Version18.csv","Version 18","List 18","eyeball",NA,516,5.555555556,930,517,"BOI","-","-","Please name all of the ways you could use this object. Keep in mind that one object can have many uses. Separate your responses with a comma.",NA,"y",7396,NA,NA,3388,6440,NA,NA,NA,"to see",1
"MaryKahler","0i7fgtf792","Affordance Norms_clemson",1,36,"2022-12-13T04:48:57+00:00",11.245525121689,18,"updated stim.csv","Version18.csv","Version 18","List 18","coupon",NA,540,4.821428571,667,541,"BOI","-","-","Please name all of the ways you could use this object. Keep in mind that one object can have many uses. Separate your responses with a comma.",NA,"y",10782,NA,NA,1038,10595,NA,NA,NA,"to get money off, to save money, to cut out ",1
"MaryKahler","0i7fgtf792","Affordance Norms_clemson",1,37,"2022-12-13T04:49:10+00:00",13.286520957947,18,"updated stim.csv","Version18.csv","Version 18","List 18","programmer",NA,511,4.695652174,2071,512,"BOI","-","-","Please name all of the ways you could use this object. Keep in mind that one object can have many uses. Separate your responses with a comma.",NA,"y",12734,NA,NA,3061,12436,NA,NA,NA,"to code, to make something, computers",1
"MaryKahler","0i7fgtf792","Affordance Norms_clemson",1,38,"2022-12-13T04:49:27+00:00",16.946672916412,18,"updated stim.csv","Version18.csv","Version 18","List 18","thread",NA,528,4.76,2684,529,"BOI","-","-","Please name all of the ways you could use this object. Keep in mind that one object can have many uses. Separate your responses with a comma.",NA,"y",16584,NA,NA,1041,15899,NA,NA,NA,"to sow, to keep together, to use in clothes",1
"MaryKahler","0i7fgtf792","Affordance Norms_clemson",1,39,"2022-12-13T04:49:37+00:00",9.3576800823212,18,"updated stim.csv","Version18.csv","Version 18","List 18","leopard",NA,534,5.260869565,1492,535,"BOI","-","-","Please name all of the ways you could use this object. Keep in mind that one object can have many uses. Separate your responses with a comma.",NA,"y",8978,NA,NA,1270,8846,NA,NA,NA,"to hunt, to kill, to eat ",1
"MaryKahler","0i7fgtf792","Affordance Norms_clemson",1,40,"2022-12-13T04:49:42+00:00",5.9443869590759,18,"updated stim.csv","Version18.csv","Version 18","List 18","semen",NA,523,5.269230769,2310,524,"BOI","-","-","Please name all of the ways you could use this object. Keep in mind that one object can have many uses. Separate your responses with a comma.",NA,"y",5513,NA,NA,2753,5336,NA,NA,NA,"to fertilize ",1
"MatthewPitts","9grn3o1khj","Affordance Norms_clemson",1,11,"2022-12-13T05:29:47+00:00",20.575921058655,19,"updated stim.csv","Version19.csv","Version 19","List 19","steak",NA,554,5.75,2515,555,"BOI","-","-","Please name all of the ways you could use this object. Keep in mind that one object can have many uses. Separate your responses with a comma.",NA,"y",20316,NA,NA,1158,19366,NA,NA,NA,"eat, cook, feed animals, ice pack",1
"MatthewPitts","9grn3o1khj","Affordance Norms_clemson",1,12,"2022-12-13T05:30:10+00:00",23.048322916031,19,"updated stim.csv","Version19.csv","Version 19","List 19","woodcutter",NA,560,4.44,2960,561,"BOI","-","-","Please name all of the ways you could use this object. Keep in mind that one object can have many uses. Separate your responses with a comma.",NA,"y",22787,NA,NA,2400,21834,NA,NA,NA,"make fire wood, cut branches, make mulch, cut trees",1
"MatthewPitts","9grn3o1khj","Affordance Norms_clemson",1,13,"2022-12-13T05:30:25+00:00",14.637830018997,19,"updated stim.csv","Version19.csv","Version 19","List 19","silkworm",NA,570,5.208333333,2382,571,"BOI","-","-","Please name all of the ways you could use this object. Keep in mind that one object can have many uses. Separate your responses with a comma.",NA,"y",14492,NA,NA,2358,13587,NA,NA,NA,"clothes, make silk",1
"MatthewPitts","9grn3o1khj","Affordance Norms_clemson",1,14,"2022-12-13T05:30:53+00:00",27.946863174438,19,"updated stim.csv","Version19.csv","Version 19","List 19","goose",NA,553,5.260869565,1138,554,"BOI","-","-","Please name all of the ways you could use this object. Keep in mind that one object can have many uses. Separate your responses with a comma.",NA,"y",27678,NA,NA,1901,26498,NA,NA,NA,"eat, shoot, feed, play with, hold, kick a goose",1
"MatthewPitts","9grn3o1khj","Affordance Norms_clemson",1,15,"2022-12-13T05:31:20+00:00",26.64953994751,19,"updated stim.csv","Version19.csv","Version 19","List 19","raft",NA,564,5.36,2125,565,"BOI","-","-","Please name all of the ways you could use this object. Keep in mind that one object can have many uses. Separate your responses with a comma.",NA,"y",26380,NA,NA,6602,7586,NA,NA,NA,"float",1
"MatthewPitts","9grn3o1khj","Affordance Norms_clemson",1,16,"2022-12-13T05:32:06+00:00",46.685956001282,19,"updated stim.csv","Version19.csv","Version 19","List 19","lubrication",NA,549,4.333333333,1555,550,"BOI","-","-","Please name all of the ways you could use this object. Keep in mind that one object can have many uses. Separate your responses with a comma.",NA,"y",46418,NA,NA,10422,44925,NA,NA,NA,"sex, slip and slide, remove things that are stuck, reduce friction",1
"MatthewPitts","9grn3o1khj","Affordance Norms_clemson",1,17,"2022-12-13T05:32:12+00:00",5.2126040458679,19,"updated stim.csv","Version19.csv","Version 19","List 19","treadmill",NA,568,6,2769,569,"BOI","-","-","Please name all of the ways you could use this object. Keep in mind that one object can have many uses. Separate your responses with a comma.",NA,"y",5065,NA,NA,1099,2659,NA,NA,NA,"run on",1
"MatthewPitts","9grn3o1khj","Affordance Norms_clemson",1,18,"2022-12-13T05:32:40+00:00",27.936746835709,19,"updated stim.csv","Version19.csv","Version 19","List 19","splinter",NA,563,4.652173913,2478,564,"BOI","-","-","Please name all of the ways you could use this object. Keep in mind that one object can have many uses. Separate your responses with a comma.",NA,"y",27670,NA,NA,4316,24581,NA,NA,NA,"throw out, pick out of hand",1
"MatthewPitts","9grn3o1khj","Affordance Norms_clemson",1,19,"2022-12-13T05:32:49+00:00",9.67351603508,19,"updated stim.csv","Version19.csv","Version 19","List 19","vulva",NA,561,5.16,2876,562,"BOI","-","-","Please name all of the ways you could use this object. Keep in mind that one object can have many uses. Separate your responses with a comma.",NA,"y",9526,NA,NA,4226,5609,NA,NA,NA,"sex",1
"MatthewPitts","9grn3o1khj","Affordance Norms_clemson",1,20,"2022-12-13T05:33:14+00:00",24.84023308754,19,"updated stim.csv","Version19.csv","Version 19","List 19","toe",NA,565,5.954545455,2715,566,"BOI","-","-","Please name all of the ways you could use this object. Keep in mind that one object can have many uses. Separate your responses with a comma.",NA,"y",24590,NA,NA,2934,19683,NA,NA,NA,"walk, stand, run, play sports, balance on, ",1
"MatthewPitts","9grn3o1khj","Affordance Norms_clemson",1,21,"2022-12-13T05:33:37+00:00",23.088824987411,19,"updated stim.csv","Version19.csv","Version 19","List 19","plaster",NA,542,4.4,1993,543,"BOI","-","-","Please name all of the ways you could use this object. Keep in mind that one object can have many uses. Separate your responses with a comma.",NA,"y",22825,NA,NA,2633,19177,NA,NA,NA,"fix walls, build structures, art, ",1
"MatthewPitts","9grn3o1khj","Affordance Norms_clemson",1,22,"2022-12-13T05:34:15+00:00",37.751406908035,19,"updated stim.csv","Version19.csv","Version 19","List 19","switchblade",NA,557,5.869565217,2609,558,"BOI","-","-","Please name all of the ways you could use this object. Keep in mind that one object can have many uses. Separate your responses with a comma.",NA,"y",37485,NA,NA,1742,36238,NA,NA,NA,"cut boxes, carve wood, cut rope, open packages, open bottles, shave",1
"MatthewPitts","9grn3o1khj","Affordance Norms_clemson",1,23,"2022-12-13T05:34:33+00:00",17.866760969162,19,"updated stim.csv","Version19.csv","Version 19","List 19","goggles",NA,543,6.125,1131,544,"BOI","-","-","Please name all of the ways you could use this object. Keep in mind that one object can have many uses. Separate your responses with a comma.",NA,"y",17715,NA,NA,1163,8722,NA,NA,NA,"swim, laboratory experiments",1
"MatthewPitts","9grn3o1khj","Affordance Norms_clemson",1,24,"2022-12-13T05:34:57+00:00",24.204222202301,19,"updated stim.csv","Version19.csv","Version 19","List 19","backpack",NA,555,5.72,116,556,"BOI","-","-","Please name all of the ways you could use this object. Keep in mind that one object can have many uses. Separate your responses with a comma.",NA,"y",23943,NA,NA,1292,22468,NA,NA,NA,"carry things in, school, pack clothes, style, hide things",1
"MatthewPitts","9grn3o1khj","Affordance Norms_clemson",1,25,"2022-12-13T05:35:41+00:00",44.374820947647,19,"updated stim.csv","Version19.csv","Version 19","List 19","letterbox",NA,559,4.56,1496,560,"BOI","-","-","Please name all of the ways you could use this object. Keep in mind that one object can have many uses. Separate your responses with a comma.",NA,"y",44109,NA,NA,2300,43256,NA,NA,NA,"put mail in, sit on",1
"MatthewPitts","9grn3o1khj","Affordance Norms_clemson",1,26,"2022-12-13T05:36:09+00:00",27.814254045486,19,"updated stim.csv","Version19.csv","Version 19","List 19","kitchen",NA,566,5.625,1425,567,"BOI","-","-","Please name all of the ways you could use this object. Keep in mind that one object can have many uses. Separate your responses with a comma.",NA,"y",27541,NA,NA,1320,26546,NA,NA,NA,"cook, hang out, throw parties, clean, rebuild, decorate, eat, drink, storage",1
"MatthewPitts","9grn3o1khj","Affordance Norms_clemson",1,27,"2022-12-13T05:36:47+00:00",37.683005809784,19,"updated stim.csv","Version19.csv","Version 19","List 19","yardstick",NA,569,5.956521739,2990,570,"BOI","-","-","Please name all of the ways you could use this object. Keep in mind that one object can have many uses. Separate your responses with a comma.",NA,"y",37422,NA,NA,1629,36160,NA,NA,NA,"measure things, use like a sword for fun, to help draw straight lines",1
"MatthewPitts","9grn3o1khj","Affordance Norms_clemson",1,28,"2022-12-13T05:37:15+00:00",27.814424991608,19,"updated stim.csv","Version19.csv","Version 19","List 19","lantern",NA,558,5.653846154,1463,559,"BOI","-","-","Please name all of the ways you could use this object. Keep in mind that one object can have many uses. Separate your responses with a comma.",NA,"y",27549,NA,NA,1396,24646,NA,NA,NA,"light rooms, use while camping, hang, hold, ",1
"MatthewPitts","9grn3o1khj","Affordance Norms_clemson",1,29,"2022-12-13T05:37:48+00:00",33.365958213806,19,"updated stim.csv","Version19.csv","Version 19","List 19","cage",NA,562,5.291666667,398,563,"BOI","-","-","Please name all of the ways you could use this object. Keep in mind that one object can have many uses. Separate your responses with a comma.",NA,"y",33101,NA,NA,1313,32077,NA,NA,NA,"put animals in, create distance from danger, cage fighting, house pets training",1
"MatthewPitts","9grn3o1khj","Affordance Norms_clemson",1,30,"2022-12-13T05:37:52+00:00",3.9920928478241,19,"updated stim.csv","Version19.csv","Version 19","List 19","enamel",NA,552,4.652173913,905,553,"BOI","-","-","Please name all of the ways you could use this object. Keep in mind that one object can have many uses. Separate your responses with a comma.",NA,"y",3840,NA,NA,-1,-1,NA,NA,NA,"",1
"MatthewPitts","9grn3o1khj","Affordance Norms_clemson",1,31,"2022-12-13T05:38:07+00:00",15.054774045944,19,"updated stim.csv","Version19.csv","Version 19","List 19","kerchief",NA,541,5.666666667,1406,542,"BOI","-","-","Please name all of the ways you could use this object. Keep in mind that one object can have many uses. Separate your responses with a comma.",NA,"y",14911,NA,NA,2181,14070,NA,NA,NA,"blow nose, wipe tears, clean things, magic tricks",1
"MatthewPitts","9grn3o1khj","Affordance Norms_clemson",1,32,"2022-12-13T05:38:09+00:00",1.7058000564575,19,"updated stim.csv","Version19.csv","Version 19","List 19","derriere",NA,548,5.5,778,549,"BOI","-","-","Please name all of the ways you could use this object. Keep in mind that one object can have many uses. Separate your responses with a comma.",NA,"y",1560,NA,NA,-1,-1,NA,NA,NA,"",1
"MatthewPitts","9grn3o1khj","Affordance Norms_clemson",1,33,"2022-12-13T05:38:26+00:00",17.111934900284,19,"updated stim.csv","Version19.csv","Version 19","List 19","saltwater",NA,545,5.192307692,2229,546,"BOI","-","-","Please name all of the ways you could use this object. Keep in mind that one object can have many uses. Separate your responses with a comma.",NA,"y",16958,NA,NA,3341,15588,NA,NA,NA,"help toothaches, swim in, helps hydration",1
"MatthewPitts","9grn3o1khj","Affordance Norms_clemson",1,34,"2022-12-13T05:39:15+00:00",48.814852952957,19,"updated stim.csv","Version19.csv","Version 19","List 19","couch",NA,544,6.260869565,661,545,"BOI","-","-","Please name all of the ways you could use this object. Keep in mind that one object can have many uses. Separate your responses with a comma.",NA,"y",48549,NA,NA,1039,14084,NA,NA,NA,"sit on, sleep on, jump on, store things on",1
"MatthewPitts","9grn3o1khj","Affordance Norms_clemson",1,35,"2022-12-13T05:39:49+00:00",33.850890159607,19,"updated stim.csv","Version19.csv","Version 19","List 19","godparent",NA,551,5.260869565,1129,552,"BOI","-","-","Please name all of the ways you could use this object. Keep in mind that one object can have many uses. Separate your responses with a comma.",NA,"y",33396,NA,NA,4765,32547,NA,NA,NA,"carpool, teach life skills, play games with, travel with, play sports with",1
"MatthewPitts","9grn3o1khj","Affordance Norms_clemson",1,36,"2022-12-13T05:39:52+00:00",3.865247964859,19,"updated stim.csv","Version19.csv","Version 19","List 19","barley",NA,546,4.541666667,149,547,"BOI","-","-","Please name all of the ways you could use this object. Keep in mind that one object can have many uses. Separate your responses with a comma.",NA,"y",3716,NA,NA,-1,-1,NA,NA,NA,"",1
"MatthewPitts","9grn3o1khj","Affordance Norms_clemson",1,37,"2022-12-13T05:40:12+00:00",19.965293884277,19,"updated stim.csv","Version19.csv","Version 19","List 19","tray",NA,547,5.166666667,2768,548,"BOI","-","-","Please name all of the ways you could use this object. Keep in mind that one object can have many uses. Separate your responses with a comma.",NA,"y",19694,NA,NA,1964,18814,NA,NA,NA,"put food on, put medical devices on, carry things, organization tool",1
"MatthewPitts","9grn3o1khj","Affordance Norms_clemson",1,38,"2022-12-13T05:40:35+00:00",22.331809997559,19,"updated stim.csv","Version19.csv","Version 19","List 19","tear",NA,556,4.44,2650,557,"BOI","-","-","Please name all of the ways you could use this object. Keep in mind that one object can have many uses. Separate your responses with a comma.",NA,"y",22074,NA,NA,7899,20516,NA,NA,NA,"wipe away, cry tears, store tears",1
"MatthewPitts","9grn3o1khj","Affordance Norms_clemson",1,39,"2022-12-13T05:41:04+00:00",28.865818023682,19,"updated stim.csv","Version19.csv","Version 19","List 19","cookie",NA,567,6.5,633,568,"BOI","-","-","Please name all of the ways you could use this object. Keep in mind that one object can have many uses. Separate your responses with a comma.",NA,"y",28598,NA,NA,1552,27762,NA,NA,NA,"eat, throw, bake, decorate, show off, crush, bargaining tool",1
"MatthewPitts","9grn3o1khj","Affordance Norms_clemson",1,40,"2022-12-13T05:41:09+00:00",5.3605530261993,19,"updated stim.csv","Version19.csv","Version 19","List 19","bagpipes",NA,550,5,124,551,"BOI","-","-","Please name all of the ways you could use this object. Keep in mind that one object can have many uses. Separate your responses with a comma.",NA,"y",5212,NA,NA,1746,4109,NA,NA,NA,"play music",1
"SarahHouk","n3be5ggv0y","Affordance Norms_clemson",1,11,"2022-12-12T20:56:19+00:00",16.704970836639,17,"updated stim.csv","Version17.csv","Version 17","List 17","doorknob",NA,508,6.518518519,824,509,"BOI","-","-","Please name all of the ways you could use this object. Keep in mind that one object can have many uses. Separate your responses with a comma.",NA,"y",16343,NA,NA,2186,10621,NA,NA,NA,"turning, opening",1
"SarahHouk","n3be5ggv0y","Affordance Norms_clemson",1,12,"2022-12-12T20:56:43+00:00",23.164504051208,17,"updated stim.csv","Version17.csv","Version 17","List 17","bookseller",NA,483,5,278,484,"BOI","-","-","Please name all of the ways you could use this object. Keep in mind that one object can have many uses. Separate your responses with a comma.",NA,"y",22856,NA,NA,6384,21915,NA,NA,NA,"buying, talking, recommending, guidance",1
"SarahHouk","n3be5ggv0y","Affordance Norms_clemson",1,13,"2022-12-12T20:57:23+00:00",40.776741981506,17,"updated stim.csv","Version17.csv","Version 17","List 17","drill",NA,485,5.739130435,848,486,"BOI","-","-","Please name all of the ways you could use this object. Keep in mind that one object can have many uses. Separate your responses with a comma.",NA,"y",40315,NA,NA,7449,37119,NA,NA,NA,"screwing, drilling, building",1
"SarahHouk","n3be5ggv0y","Affordance Norms_clemson",1,14,"2022-12-12T20:58:04+00:00",40.984493017197,17,"updated stim.csv","Version17.csv","Version 17","List 17","wastebasket",NA,484,6.217391304,2904,485,"BOI","-","-","Please name all of the ways you could use this object. Keep in mind that one object can have many uses. Separate your responses with a comma.",NA,"y",40662,NA,NA,3098,29124,NA,NA,NA,"gathering trash, storage",1
"SarahHouk","n3be5ggv0y","Affordance Norms_clemson",1,15,"2022-12-12T20:58:22+00:00",17.317603111267,17,"updated stim.csv","Version17.csv","Version 17","List 17","headphones",NA,486,6.083333333,1269,487,"BOI","-","-","Please name all of the ways you could use this object. Keep in mind that one object can have many uses. Separate your responses with a comma.",NA,"y",16969,NA,NA,1705,15841,NA,NA,NA,"listening, muffling, plugging",1
"SarahHouk","n3be5ggv0y","Affordance Norms_clemson",1,16,"2022-12-12T20:58:44+00:00",22.463456869125,17,"updated stim.csv","Version17.csv","Version 17","List 17","parka",NA,481,5.875,1876,482,"BOI","-","-","Please name all of the ways you could use this object. Keep in mind that one object can have many uses. Separate your responses with a comma.",NA,"y",22135,NA,NA,1811,17652,NA,NA,NA,"wearing, blanketing",1
"SarahHouk","n3be5ggv0y","Affordance Norms_clemson",1,17,"2022-12-12T20:59:09+00:00",25.301264047623,17,"updated stim.csv","Version17.csv","Version 17","List 17","chapel",NA,497,4.52,494,498,"BOI","-","-","Please name all of the ways you could use this object. Keep in mind that one object can have many uses. Separate your responses with a comma.",NA,"y",24868,NA,NA,2416,23470,NA,NA,NA,"sitting, singing, standing, walking, sermoning",1
"SarahHouk","n3be5ggv0y","Affordance Norms_clemson",1,18,"2022-12-12T20:59:24+00:00",14.106600046158,17,"updated stim.csv","Version17.csv","Version 17","List 17","kitten",NA,492,6.4,1428,493,"BOI","-","-","Please name all of the ways you could use this object. Keep in mind that one object can have many uses. Separate your responses with a comma.",NA,"y",13792,NA,NA,1937,12537,NA,NA,NA,"petting, feeding, brushing, bathing",1
"SarahHouk","n3be5ggv0y","Affordance Norms_clemson",1,19,"2022-12-12T20:59:41+00:00",17.312916040421,17,"updated stim.csv","Version17.csv","Version 17","List 17","mincemeat",NA,504,5.083333333,1662,505,"BOI","-","-","Please name all of the ways you could use this object. Keep in mind that one object can have many uses. Separate your responses with a comma.",NA,"y",17009,NA,NA,5213,15430,NA,NA,NA,"feeding, baiting",1
"SarahHouk","n3be5ggv0y","Affordance Norms_clemson",1,20,"2022-12-12T21:00:38+00:00",57.381333827972,17,"updated stim.csv","Version17.csv","Version 17","List 17","wart",NA,503,4.56,2894,504,"BOI","-","-","Please name all of the ways you could use this object. Keep in mind that one object can have many uses. Separate your responses with a comma.",NA,"y",57029,NA,NA,13893,53690,NA,NA,NA,"costuming",1
"SarahHouk","n3be5ggv0y","Affordance Norms_clemson",1,21,"2022-12-12T21:01:02+00:00",23.651302099228,17,"updated stim.csv","Version17.csv","Version 17","List 17","bubble",NA,495,4.64,339,496,"BOI","-","-","Please name all of the ways you could use this object. Keep in mind that one object can have many uses. Separate your responses with a comma.",NA,"y",23316,NA,NA,1458,21477,NA,NA,NA,"blowing, poking, popping",1
"SarahHouk","n3be5ggv0y","Affordance Norms_clemson",1,22,"2022-12-12T21:01:14+00:00",11.805502891541,17,"updated stim.csv","Version17.csv","Version 17","List 17","sleigh",NA,507,4.84,2410,508,"BOI","-","-","Please name all of the ways you could use this object. Keep in mind that one object can have many uses. Separate your responses with a comma.",NA,"y",11422,NA,NA,2175,8996,NA,NA,NA,"skiing, riding, travelling",1
"SarahHouk","n3be5ggv0y","Affordance Norms_clemson",1,23,"2022-12-12T21:01:30+00:00",16.15478014946,17,"updated stim.csv","Version17.csv","Version 17","List 17","washerwoman",NA,510,4.55,2900,511,"BOI","-","-","Please name all of the ways you could use this object. Keep in mind that one object can have many uses. Separate your responses with a comma.",NA,"y",15840,NA,NA,3210,13958,NA,NA,NA,"washing, scrubbing, rinsing",1
"SarahHouk","n3be5ggv0y","Affordance Norms_clemson",1,24,"2022-12-12T21:02:08+00:00",38.486954927444,17,"updated stim.csv","Version17.csv","Version 17","List 17","kid",NA,496,5.68,1414,497,"BOI","-","-","Please name all of the ways you could use this object. Keep in mind that one object can have many uses. Separate your responses with a comma.",NA,"y",37938,NA,NA,2290,36961,NA,NA,NA,"playing, feeding, caregiving",1
"SarahHouk","n3be5ggv0y","Affordance Norms_clemson",1,25,"2022-12-12T21:02:44+00:00",35.565828084946,17,"updated stim.csv","Version17.csv","Version 17","List 17","gingersnap",NA,488,4.703703704,1106,489,"BOI","-","-","Please name all of the ways you could use this object. Keep in mind that one object can have many uses. Separate your responses with a comma.",NA,"y",35058,NA,NA,11726,34031,NA,NA,NA,"eating, gifting, tasting",1
"SarahHouk","n3be5ggv0y","Affordance Norms_clemson",1,26,"2022-12-12T21:02:53+00:00",8.8613300323486,17,"updated stim.csv","Version17.csv","Version 17","List 17","memorabilia",NA,490,4.434782609,1643,491,"BOI","-","-","Please name all of the ways you could use this object. Keep in mind that one object can have many uses. Separate your responses with a comma.",NA,"y",8533,NA,NA,2203,6947,NA,NA,NA,"collecting, selling",1
"SarahHouk","n3be5ggv0y","Affordance Norms_clemson",1,27,"2022-12-12T21:03:23+00:00",30.550647974014,17,"updated stim.csv","Version17.csv","Version 17","List 17","gearbox",NA,487,5.041666667,1092,488,"BOI","-","-","Please name all of the ways you could use this object. Keep in mind that one object can have many uses. Separate your responses with a comma.",NA,"y",30187,NA,NA,17943,27752,NA,NA,NA,"reducing, increasing, speeding, driving",1
"SarahHouk","n3be5ggv0y","Affordance Norms_clemson",1,28,"2022-12-12T21:03:43+00:00",19.490130901337,17,"updated stim.csv","Version17.csv","Version 17","List 17","colander",NA,501,6,598,502,"BOI","-","-","Please name all of the ways you could use this object. Keep in mind that one object can have many uses. Separate your responses with a comma.",NA,"y",19124,NA,NA,1924,18611,NA,NA,NA,"sifting, cooking, straining",1
"SarahHouk","n3be5ggv0y","Affordance Norms_clemson",1,29,"2022-12-12T21:04:02+00:00",19.232747077942,17,"updated stim.csv","Version17.csv","Version 17","List 17","leech",NA,498,4.291666667,1484,499,"BOI","-","-","Please name all of the ways you could use this object. Keep in mind that one object can have many uses. Separate your responses with a comma.",NA,"y",18866,NA,NA,1357,18711,NA,NA,NA,"sucking, attaching",1
"SarahHouk","n3be5ggv0y","Affordance Norms_clemson",1,30,"2022-12-12T21:04:29+00:00",27.392920017242,17,"updated stim.csv","Version17.csv","Version 17","List 17","spice",NA,509,5.125,2470,510,"BOI","-","-","Please name all of the ways you could use this object. Keep in mind that one object can have many uses. Separate your responses with a comma.",NA,"y",27080,NA,NA,2427,22412,NA,NA,NA,"tasting, seasoning, cooking",1
"SarahHouk","n3be5ggv0y","Affordance Norms_clemson",1,31,"2022-12-12T21:04:55+00:00",25.04686498642,17,"updated stim.csv","Version17.csv","Version 17","List 17","fingerboard",NA,506,5.15,978,507,"BOI","-","-","Please name all of the ways you could use this object. Keep in mind that one object can have many uses. Separate your responses with a comma.",NA,"y",24701,NA,NA,10980,23892,NA,NA,NA,"flipping, tricking, entertaining, playing",1
"SarahHouk","n3be5ggv0y","Affordance Norms_clemson",1,32,"2022-12-12T21:05:16+00:00",21.109875917435,17,"updated stim.csv","Version17.csv","Version 17","List 17","nutshell",NA,500,4.375,1793,501,"BOI","-","-","Please name all of the ways you could use this object. Keep in mind that one object can have many uses. Separate your responses with a comma.",NA,"y",20733,NA,NA,2825,20491,NA,NA,NA,"protecting, casing, grinding",1
"SarahHouk","n3be5ggv0y","Affordance Norms_clemson",1,33,"2022-12-12T21:05:32+00:00",16.111772060394,17,"updated stim.csv","Version17.csv","Version 17","List 17","handbook",NA,499,5.782608696,1231,500,"BOI","-","-","Please name all of the ways you could use this object. Keep in mind that one object can have many uses. Separate your responses with a comma.",NA,"y",15771,NA,NA,3764,12770,NA,NA,NA,"following, guidance, advice",1
"SarahHouk","n3be5ggv0y","Affordance Norms_clemson",1,34,"2022-12-12T21:06:06+00:00",34.260660886765,17,"updated stim.csv","Version17.csv","Version 17","List 17","feline",NA,494,5.458333333,959,495,"BOI","-","-","Please name all of the ways you could use this object. Keep in mind that one object can have many uses. Separate your responses with a comma.",NA,"y",33926,NA,NA,3383,30961,NA,NA,NA,"jumping, hiding, clawing, meowing, hissing",1
"SarahHouk","n3be5ggv0y","Affordance Norms_clemson",1,35,"2022-12-12T21:06:25+00:00",19.111399173737,17,"updated stim.csv","Version17.csv","Version 17","List 17","frame",NA,502,4.956521739,1053,503,"BOI","-","-","Please name all of the ways you could use this object. Keep in mind that one object can have many uses. Separate your responses with a comma.",NA,"y",18730,NA,NA,9070,17745,NA,NA,NA,"guiding, stabilizing",1
"SarahHouk","n3be5ggv0y","Affordance Norms_clemson",1,36,"2022-12-12T21:06:54+00:00",28.766753911972,17,"updated stim.csv","Version17.csv","Version 17","List 17","groom",NA,482,5,1181,483,"BOI","-","-","Please name all of the ways you could use this object. Keep in mind that one object can have many uses. Separate your responses with a comma.",NA,"y",28455,NA,NA,2261,27644,NA,NA,NA,"marrying, washing, brushing, cutting",1
"SarahHouk","n3be5ggv0y","Affordance Norms_clemson",1,37,"2022-12-12T21:07:05+00:00",11.416996955872,17,"updated stim.csv","Version17.csv","Version 17","List 17","rum",NA,491,5.64,2206,492,"BOI","-","-","Please name all of the ways you could use this object. Keep in mind that one object can have many uses. Separate your responses with a comma.",NA,"y",11077,NA,NA,1807,9379,NA,NA,NA,"drinking, aging, cooking",1
"SarahHouk","n3be5ggv0y","Affordance Norms_clemson",1,38,"2022-12-12T21:07:23+00:00",17.741634130478,17,"updated stim.csv","Version17.csv","Version 17","List 17","aftershave",NA,505,5.375,18,506,"BOI","-","-","Please name all of the ways you could use this object. Keep in mind that one object can have many uses. Separate your responses with a comma.",NA,"y",17397,NA,NA,3038,13648,NA,NA,NA,"grooming, washing, shaving",1
"SarahHouk","n3be5ggv0y","Affordance Norms_clemson",1,39,"2022-12-12T21:07:42+00:00",19.163530826569,17,"updated stim.csv","Version17.csv","Version 17","List 17","caddy",NA,489,4.913043478,393,490,"BOI","-","-","Please name all of the ways you could use this object. Keep in mind that one object can have many uses. Separate your responses with a comma.",NA,"y",18835,NA,NA,1501,16799,NA,NA,NA,"holding, organizing",1
"SarahHouk","n3be5ggv0y","Affordance Norms_clemson",1,40,"2022-12-12T21:07:58+00:00",15.88910317421,17,"updated stim.csv","Version17.csv","Version 17","List 17","jacket",NA,493,6.333333333,1370,494,"BOI","-","-","Please name all of the ways you could use this object. Keep in mind that one object can have many uses. Separate your responses with a comma.",NA,"y",15525,NA,NA,1440,14369,NA,NA,NA,"wearing, warmth, fashion",1
