Username,ID,ExperimentName,Session,Trial,Date,TimeDif,"Condition Number","Stimuli File","Order File","Condition Description","Condition Notes",Stimuli*Cue,Stimuli*Answer,Stimuli*Shuffle,"Stimuli*Stimuli Notes",Stimuli*Value,Procedure*Item,"Procedure*Trial Type","Procedure*Max Time","Procedure*Min Time",Procedure*Text,"Procedure*Procedure Notes",Procedure*Shuffle,Response*RT,Response*Response,Response*Accuracy,Response*RTfirst,Response*RTlast,Response*strictAcc,Response*lenientAcc,Response*focus,Response*JOL,Response*Focus
w10075440OH,fuplvkryc9,"BOI Norms",1,1,2021-11-25T18:10:30+00:00,12.504498004913,3,"updated stim.csv",Version78.csv,"Version 78","List 78",,,,,,0,Instruct,-,10,"In this section, you will be presented with a series of objects. Please name as many possible uses for this object as you can think of by typing them in the box below each object.",,Instruct1,12299,,,-1,-1,,,,,1
w10075440OH,fuplvkryc9,"BOI Norms",1,2,2021-11-25T18:10:45+00:00,14.730669975281,3,"updated stim.csv",Version78.csv,"Version 78","List 78",,,,,,0,Instruct,-,10,"Please keep in mind that a single object will have more than one use. For example, a ball can be thrown or can be bounced or even stepped on. When listing multiple uses for one object, please separate each use with a comma (i.e., thrown, bounced, stepped on)",,Instruct2,14474,,,-1,-1,,,,,1
w10075440OH,fuplvkryc9,"BOI Norms",1,3,2021-11-25T18:10:49+00:00,3.9642338752747,3,"updated stim.csv",Version78.csv,"Version 78","List 78",,,,,,0,Instruct,-,-,"Before starting the experiment, you will complete a short practice sesstion. Press ENTER when you are ready to begin.",,Instruct3,3666,,,-1,-1,,,,,1
w10075440OH,fuplvkryc9,"BOI Norms",1,4,2021-11-25T18:11:20+00:00,31.187232017517,3,"updated stim.csv",Version78.csv,"Version 78","List 78",Cheeseburger,,Practice,,3001,3003,BOI,-,-,"Please name all of the ways you could use this object. Keep in mind that one object can have many uses. Separate your responses with a comma.",,n,30983,,,3692,29666,,,,"eat, cooked, served",1
w10075440OH,fuplvkryc9,"BOI Norms",1,5,2021-11-25T18:12:08+00:00,47.625520944595,3,"updated stim.csv",Version78.csv,"Version 78","List 78",Donut,,Practice,,3003,3002,BOI,-,-,"Please name all of the ways you could use this object. Keep in mind that one object can have many uses. Separate your responses with a comma.",,n,47387,,,10329,46014,,,,"eaten, thrown, cooked, ",1
w10075440OH,fuplvkryc9,"BOI Norms",1,6,2021-11-25T18:12:15+00:00,7.005686044693,3,"updated stim.csv",Version78.csv,"Version 78","List 78",Taco,,Practice,,3005,3005,BOI,-,-,"Please name all of the ways you could use this object. Keep in mind that one object can have many uses. Separate your responses with a comma.",,n,6759,,,1317,2877,,,,eaten,1
w10075440OH,fuplvkryc9,"BOI Norms",1,7,2021-11-25T18:12:42+00:00,27.128610134125,3,"updated stim.csv",Version78.csv,"Version 78","List 78","Picture Frame",,Practice,,3002,3006,BOI,-,-,"Please name all of the ways you could use this object. Keep in mind that one object can have many uses. Separate your responses with a comma.",,n,26934,,,2066,18650,,,,"hung, put on surface, used for memories, ",1
w10075440OH,fuplvkryc9,"BOI Norms",1,8,2021-11-25T18:13:06+00:00,23.809450864792,3,"updated stim.csv",Version78.csv,"Version 78","List 78",Swan,,Practice,,3004,3004,BOI,-,-,"Please name all of the ways you could use this object. Keep in mind that one object can have many uses. Separate your responses with a comma.",,n,23600,,,6396,21078,,,,"towel art, can be painted, picture",1
w10075440OH,fuplvkryc9,"BOI Norms",1,9,2021-11-25T18:13:07+00:00,1.4483950138092,3,"updated stim.csv",Version78.csv,"Version 78","List 78",,,,,,0,Instruct,-,-,"You have completed this section. Press ENTER to continue",,"Instruct 5",1221,,,-1,-1,,,,,1
w10075440OH,fuplvkryc9,"BOI Norms",1,10,2021-11-25T18:13:09+00:00,1.3860931396484,3,"updated stim.csv",Version78.csv,"Version 78","List 78",,,,,,0,Instruct,-,-,"You will now start the full experiment. Press ENTER when you are ready to begin.",,,1133,,,-1,-1,,,,,1
w10075440OH,fuplvkryc9,"BOI Norms",1,11,2021-11-25T18:13:40+00:00,31.709199905396,3,"updated stim.csv",Version78.csv,"Version 78","List 78",environment,,ON,4.52173913,914,2340,BOI,-,-,"Please name all of the ways you could use this object. Keep in mind that one object can have many uses. Separate your responses with a comma.",,y,31499,,,8246,14020,,,,"live, exercise, ",1
w10075440OH,fuplvkryc9,"BOI Norms",1,12,2021-11-25T18:13:49+00:00,8.6117050647736,3,"updated stim.csv",Version78.csv,"Version 78","List 78",tepee,,ON,4.916666667,2665,2321,BOI,-,-,"Please name all of the ways you could use this object. Keep in mind that one object can have many uses. Separate your responses with a comma.",,y,8427,,,3401,7930,,,,"camp, play",1
w10075440OH,fuplvkryc9,"BOI Norms",1,13,2021-11-25T18:14:07+00:00,17.880631923676,3,"updated stim.csv",Version78.csv,"Version 78","List 78",iguana,,ON,5.166666667,1350,2313,BOI,-,-,"Please name all of the ways you could use this object. Keep in mind that one object can have many uses. Separate your responses with a comma.",,y,17554,,,4931,17459,,,,"zoo, paint, picture, entertainment, pet",1
w10075440OH,fuplvkryc9,"BOI Norms",1,14,2021-11-25T18:14:15+00:00,8.4472370147705,3,"updated stim.csv",Version78.csv,"Version 78","List 78",bellboy,,ON,4.8,197,2333,BOI,-,-,"Please name all of the ways you could use this object. Keep in mind that one object can have many uses. Separate your responses with a comma.",,y,8051,,,2216,5371,,,,"help, assistance, ",1
w10075440OH,fuplvkryc9,"BOI Norms",1,15,2021-11-25T18:14:29+00:00,13.14755487442,3,"updated stim.csv",Version78.csv,"Version 78","List 78",candlestick,,ON,6,411,2329,BOI,-,-,"Please name all of the ways you could use this object. Keep in mind that one object can have many uses. Separate your responses with a comma.",,y,12920,,,2810,12671,,,,"aroma, light, smell, decor",1
w10075440OH,fuplvkryc9,"BOI Norms",1,16,2021-11-25T18:14:45+00:00,16.18995308876,3,"updated stim.csv",Version78.csv,"Version 78","List 78",balloon,,ON,5.523809524,130,2337,BOI,-,-,"Please name all of the ways you could use this object. Keep in mind that one object can have many uses. Separate your responses with a comma.",,y,15994,,,1914,15746,,,,"decor, gender reveal, party, celebration",1
w10075440OH,fuplvkryc9,"BOI Norms",1,17,2021-11-25T18:14:56+00:00,11.499841928482,3,"updated stim.csv",Version78.csv,"Version 78","List 78",cradle,,ON,5.652173913,678,2339,BOI,-,-,"Please name all of the ways you could use this object. Keep in mind that one object can have many uses. Separate your responses with a comma.",,y,11312,,,2456,8838,,,,"sleep, comfort, ",1
w10075440OH,fuplvkryc9,"BOI Norms",1,18,2021-11-25T18:15:08+00:00,11.46581196785,3,"updated stim.csv",Version78.csv,"Version 78","List 78",casebook,,ON,5.391304348,446,2328,BOI,-,-,"Please name all of the ways you could use this object. Keep in mind that one object can have many uses. Separate your responses with a comma.",,y,4960,,,3674,4844,,,,"i dont know",1
w10075440OH,fuplvkryc9,"BOI Norms",1,19,2021-11-25T18:15:14+00:00,6.0131571292877,3,"updated stim.csv",Version78.csv,"Version 78","List 78",eyepiece,,ON,5.8,937,2334,BOI,-,-,"Please name all of the ways you could use this object. Keep in mind that one object can have many uses. Separate your responses with a comma.",,y,5832,,,2080,5144,,,,"magnify, costume",1
w10075440OH,fuplvkryc9,"BOI Norms",1,20,2021-11-25T18:15:17+00:00,3.6811330318451,3,"updated stim.csv",Version78.csv,"Version 78","List 78",chili,,ON,5.291666667,523,2322,BOI,-,-,"Please name all of the ways you could use this object. Keep in mind that one object can have many uses. Separate your responses with a comma.",,y,3465,,,1244,1447,,,,eat,1
w10075440OH,fuplvkryc9,"BOI Norms",1,21,2021-11-25T18:15:26+00:00,8.9552419185638,3,"updated stim.csv",Version78.csv,"Version 78","List 78",eggshell,,ON,5.791666667,895,2332,BOI,-,-,"Please name all of the ways you could use this object. Keep in mind that one object can have many uses. Separate your responses with a comma.",,y,8674,,,2243,8467,,,,"bake, decore",1
w10075440OH,fuplvkryc9,"BOI Norms",1,22,2021-11-25T18:15:31+00:00,4.3019120693207,3,"updated stim.csv",Version78.csv,"Version 78","List 78",greenback,,ON,4.904761905,1169,2336,BOI,-,-,"Please name all of the ways you could use this object. Keep in mind that one object can have many uses. Separate your responses with a comma.",,y,3970,,,1622,3868,,,,"i dont know",1
w10075440OH,fuplvkryc9,"BOI Norms",1,23,2021-11-25T18:15:43+00:00,12.202689886093,3,"updated stim.csv",Version78.csv,"Version 78","List 78",advisor,,ON,4.347826087,16,2327,BOI,-,-,"Please name all of the ways you could use this object. Keep in mind that one object can have many uses. Separate your responses with a comma.",,y,12027,,,1406,11170,,,,"assitance, counsel, advice",1
w10075440OH,fuplvkryc9,"BOI Norms",1,24,2021-11-25T18:15:54+00:00,10.621070146561,3,"updated stim.csv",Version78.csv,"Version 78","List 78",suitcase,,ON,6.08,2583,2323,BOI,-,-,"Please name all of the ways you could use this object. Keep in mind that one object can have many uses. Separate your responses with a comma.",,y,10409,,,1503,10173,,,,"travel, transport",1
w10075440OH,fuplvkryc9,"BOI Norms",1,25,2021-11-25T18:15:56+00:00,2.2752509117126,3,"updated stim.csv",Version78.csv,"Version 78","List 78",celery,,ON,6.086956522,471,2312,BOI,-,-,"Please name all of the ways you could use this object. Keep in mind that one object can have many uses. Separate your responses with a comma.",,y,2088,,,1739,1944,,,,eat,1
w10075440OH,fuplvkryc9,"BOI Norms",1,26,2021-11-25T18:16:10+00:00,13.932454109192,3,"updated stim.csv",Version78.csv,"Version 78","List 78",sideburns,,ON,5.166666667,2375,2319,BOI,-,-,"Please name all of the ways you could use this object. Keep in mind that one object can have many uses. Separate your responses with a comma.",,y,13756,,,3516,13553,,,,appearance,1
w10075440OH,fuplvkryc9,"BOI Norms",1,27,2021-11-25T18:16:34+00:00,24.225404024124,3,"updated stim.csv",Version78.csv,"Version 78","List 78",plant,,ON,5.652173913,1989,2326,BOI,-,-,"Please name all of the ways you could use this object. Keep in mind that one object can have many uses. Separate your responses with a comma.",,y,23998,,,1983,23483,,,,"health, feed, aroma, decor",1
w10075440OH,fuplvkryc9,"BOI Norms",1,28,2021-11-25T18:16:44+00:00,10.228296995163,3,"updated stim.csv",Version78.csv,"Version 78","List 78",soccer,,ON,4.64,2438,2338,BOI,-,-,"Please name all of the ways you could use this object. Keep in mind that one object can have many uses. Separate your responses with a comma.",,y,9965,,,1708,9675,,,,"exercise, competition, play",1
w10075440OH,fuplvkryc9,"BOI Norms",1,29,2021-11-25T18:16:54+00:00,9.8053147792816,3,"updated stim.csv",Version78.csv,"Version 78","List 78",footpath,,ON,4.592592593,1037,2320,BOI,-,-,"Please name all of the ways you could use this object. Keep in mind that one object can have many uses. Separate your responses with a comma.",,y,9579,,,3907,9442,,,,"guidance, cleanliness",1
w10075440OH,fuplvkryc9,"BOI Norms",1,30,2021-11-25T18:17:01+00:00,7.4547891616821,3,"updated stim.csv",Version78.csv,"Version 78","List 78",poncho,,ON,5.458333333,2028,2318,BOI,-,-,"Please name all of the ways you could use this object. Keep in mind that one object can have many uses. Separate your responses with a comma.",,y,7275,,,3754,7022,,,,"wardrobe, protectin",1
w10075440OH,fuplvkryc9,"BOI Norms",1,31,2021-11-25T18:17:18+00:00,16.788266897202,3,"updated stim.csv",Version78.csv,"Version 78","List 78",kit,,ON,4.739130435,1424,2335,BOI,-,-,"Please name all of the ways you could use this object. Keep in mind that one object can have many uses. Separate your responses with a comma.",,y,16593,,,9153,16326,,,,"prevention, assitance, health",1
w10075440OH,fuplvkryc9,"BOI Norms",1,32,2021-11-25T18:17:29+00:00,11.064656019211,3,"updated stim.csv",Version78.csv,"Version 78","List 78",storybook,,ON,5.703703704,2554,2317,BOI,-,-,"Please name all of the ways you could use this object. Keep in mind that one object can have many uses. Separate your responses with a comma.",,y,10881,,,2923,10729,,,,"entertainment, relaxation, leisure",1
w10075440OH,fuplvkryc9,"BOI Norms",1,33,2021-11-25T18:17:38+00:00,8.2360451221466,3,"updated stim.csv",Version78.csv,"Version 78","List 78",cab,,ON,5.6,385,2325,BOI,-,-,"Please name all of the ways you could use this object. Keep in mind that one object can have many uses. Separate your responses with a comma.",,y,8041,,,3971,6255,,,,transportation,1
w10075440OH,fuplvkryc9,"BOI Norms",1,34,2021-11-25T18:17:42+00:00,4.8940010070801,3,"updated stim.csv",Version78.csv,"Version 78","List 78",tenderloin,,ON,4.962962963,2663,2324,BOI,-,-,"Please name all of the ways you could use this object. Keep in mind that one object can have many uses. Separate your responses with a comma.",,y,4628,,,1205,3476,,,,"eat, feed, ",1
w10075440OH,fuplvkryc9,"BOI Norms",1,35,2021-11-25T18:17:53+00:00,10.176365852356,3,"updated stim.csv",Version78.csv,"Version 78","List 78",underpants,,ON,6,2823,2330,BOI,-,-,"Please name all of the ways you could use this object. Keep in mind that one object can have many uses. Separate your responses with a comma.",,y,9908,,,8550,9520,,,,garment,1
w10075440OH,fuplvkryc9,"BOI Norms",1,36,2021-11-25T18:18:00+00:00,7.8183419704437,3,"updated stim.csv",Version78.csv,"Version 78","List 78",pharmacist,,ON,5.041666667,1938,2341,BOI,-,-,"Please name all of the ways you could use this object. Keep in mind that one object can have many uses. Separate your responses with a comma.",,y,7609,,,2573,6834,,,,"prevention, health",1
w10075440OH,fuplvkryc9,"BOI Norms",1,37,2021-11-25T18:18:09+00:00,8.1584050655365,3,"updated stim.csv",Version78.csv,"Version 78","List 78",crayon,,ON,6.36,687,2316,BOI,-,-,"Please name all of the ways you could use this object. Keep in mind that one object can have many uses. Separate your responses with a comma.",,y,7890,,,2207,7545,,,,"art, leisure, fun",1
w10075440OH,fuplvkryc9,"BOI Norms",1,38,2021-11-25T18:18:24+00:00,15.758381128311,3,"updated stim.csv",Version78.csv,"Version 78","List 78",mountain,,ON,4.307692308,1699,2315,BOI,-,-,"Please name all of the ways you could use this object. Keep in mind that one object can have many uses. Separate your responses with a comma.",,y,15551,,,2530,15332,,,,"camping, exercise, views, vacation",1
w10075440OH,fuplvkryc9,"BOI Norms",1,39,2021-11-25T18:18:46+00:00,21.585330963135,3,"updated stim.csv",Version78.csv,"Version 78","List 78",headgear,,ON,5.625,1266,2331,BOI,-,-,"Please name all of the ways you could use this object. Keep in mind that one object can have many uses. Separate your responses with a comma.",,y,21362,,,2189,21056,,,,"orthodontic care, safety, protection",1
w10075440OH,fuplvkryc9,"BOI Norms",1,40,2021-11-25T18:18:51+00:00,5.2220480442047,3,"updated stim.csv",Version78.csv,"Version 78","List 78",woodcarver,,ON,4.625,2958,2314,BOI,-,-,"Please name all of the ways you could use this object. Keep in mind that one object can have many uses. Separate your responses with a comma.",,y,4907,,,4023,4768,,,,decore,1
w10075440OH,fuplvkryc9,"BOI Norms",1,41,2021-11-25T18:18:53+00:00,2.0557408332825,3,"updated stim.csv",Version78.csv,"Version 78","List 78",,,,,,0,Instruct,,,"You will now be asked a few questions about your experience today.",,"Instruct 4",1771,,,-1,-1,,,,,1
