Username,ID,ExperimentName,Session,Trial,Date,TimeDif,"Condition Number","Stimuli File","Order File","Condition Description","Condition Notes",Stimuli*Cue,Stimuli*Answer,Stimuli*Shuffle,"Stimuli*Stimuli Notes",Stimuli*Value,Procedure*Item,"Procedure*Trial Type","Procedure*Max Time","Procedure*Min Time",Procedure*Text,"Procedure*Procedure Notes",Procedure*Shuffle,Response*RT,Response*Response,Response*Accuracy,Response*RTfirst,Response*RTlast,Response*strictAcc,Response*lenientAcc,Response*focus,Response*JOL,Response*Focus
w10068861_VW,lgcvucj6bp,"BOI Norms",1,1,2021-12-01T16:46:22+00:00,13.431215047836,20,"updated stim.csv",Version20.csv,"Version 20","List 20",,,,,,0,Instruct,-,10,"In this section, you will be presented with a series of objects. Please name as many possible uses for this object as you can think of by typing them in the box below each object.",,Instruct1,13267,,,-1,-1,,,,,1
w10068861_VW,lgcvucj6bp,"BOI Norms",1,2,2021-12-01T16:46:34+00:00,11.612427949905,20,"updated stim.csv",Version20.csv,"Version 20","List 20",,,,,,0,Instruct,-,10,"Please keep in mind that a single object will have more than one use. For example, a ball can be thrown or can be bounced or even stepped on. When listing multiple uses for one object, please separate each use with a comma (i.e., thrown, bounced, stepped on)",,Instruct2,11414,,,-1,-1,,,,,1
w10068861_VW,lgcvucj6bp,"BOI Norms",1,3,2021-12-01T16:46:38+00:00,4.0576891899109,20,"updated stim.csv",Version20.csv,"Version 20","List 20",,,,,,0,Instruct,-,-,"Before starting the experiment, you will complete a short practice sesstion. Press ENTER when you are ready to begin.",,Instruct3,3866,,,-1,-1,,,,,1
w10068861_VW,lgcvucj6bp,"BOI Norms",1,4,2021-12-01T16:46:53+00:00,14.438972949982,20,"updated stim.csv",Version20.csv,"Version 20","List 20",spaghetti,,3003,6,2461,3004,BOI,-,-,"Please name all of the ways you could use this object. Keep in mind that one object can have many uses. Separate your responses with a comma.",,n,14230,,,1998,12176,,,,"eaten, cooked, thrown, stepped on",1
w10068861_VW,lgcvucj6bp,"BOI Norms",1,5,2021-12-01T16:47:24+00:00,31.942921876907,20,"updated stim.csv",Version20.csv,"Version 20","List 20",shortening,,3002,4.92,2358,3003,BOI,-,-,"Please name all of the ways you could use this object. Keep in mind that one object can have many uses. Separate your responses with a comma.",,n,30449,,,5006,17867,,,,"melted, used to fry, ",1
w10068861_VW,lgcvucj6bp,"BOI Norms",1,6,2021-12-01T16:47:42+00:00,17.177141189575,20,"updated stim.csv",Version20.csv,"Version 20","List 20",paperwork,,3001,5.625,1866,3002,BOI,-,-,"Please name all of the ways you could use this object. Keep in mind that one object can have many uses. Separate your responses with a comma.",,n,16959,,,2372,16154,,,,"written, shredded, torn up, read",1
w10068861_VW,lgcvucj6bp,"BOI Norms",1,7,2021-12-01T16:47:57+00:00,15.484031915665,20,"updated stim.csv",Version20.csv,"Version 20","List 20",saucer,,3005,5.777777778,2249,3006,BOI,-,-,"Please name all of the ways you could use this object. Keep in mind that one object can have many uses. Separate your responses with a comma.",,n,15271,,,4653,15093,,,,"washed, put food on, licked",1
w10068861_VW,lgcvucj6bp,"BOI Norms",1,8,2021-12-01T16:48:05+00:00,7.9472870826721,20,"updated stim.csv",Version20.csv,"Version 20","List 20",grain,,3004,5.217391304,1143,3005,BOI,-,-,"Please name all of the ways you could use this object. Keep in mind that one object can have many uses. Separate your responses with a comma.",,n,7747,,,1957,7642,,,,"make bread",1
w10068861_VW,lgcvucj6bp,"BOI Norms",1,9,2021-12-01T16:48:07+00:00,1.8335089683533,20,"updated stim.csv",Version20.csv,"Version 20","List 20",,,,,,0,Instruct,-,-,"You have completed this section. Press ENTER to continue",,"Instruct 5",1655,,,-1,-1,,,,,1
w10068861_VW,lgcvucj6bp,"BOI Norms",1,10,2021-12-01T16:48:09+00:00,2.2092928886414,20,"updated stim.csv",Version20.csv,"Version 20","List 20",,,,,,0,Instruct,-,-,"You will now start the full experiment. Press ENTER when you are ready to begin.",,,2025,,,-1,-1,,,,,1
w10068861_VW,lgcvucj6bp,"BOI Norms",1,11,2021-12-01T16:48:13+00:00,3.9625470638275,20,"updated stim.csv",Version20.csv,"Version 20","List 20",hashish,,584,4.909090909,1257,585,BOI,-,-,"Please name all of the ways you could use this object. Keep in mind that one object can have many uses. Separate your responses with a comma.",,y,3773,,,-1,-1,,,,,1
w10068861_VW,lgcvucj6bp,"BOI Norms",1,12,2021-12-01T16:48:19+00:00,5.8540358543396,20,"updated stim.csv",Version20.csv,"Version 20","List 20",seedling,,582,5.083333333,2309,583,BOI,-,-,"Please name all of the ways you could use this object. Keep in mind that one object can have many uses. Separate your responses with a comma.",,y,5672,,,2111,4829,,,,"making a plant",1
w10068861_VW,lgcvucj6bp,"BOI Norms",1,13,2021-12-01T16:48:25+00:00,6.5402150154114,20,"updated stim.csv",Version20.csv,"Version 20","List 20",pastry,,590,6.086956522,1886,591,BOI,-,-,"Please name all of the ways you could use this object. Keep in mind that one object can have many uses. Separate your responses with a comma.",,y,6348,,,3093,6224,,,,"bake, sell",1
w10068861_VW,lgcvucj6bp,"BOI Norms",1,14,2021-12-01T16:48:47+00:00,21.595714092255,20,"updated stim.csv",Version20.csv,"Version 20","List 20",buddy,,588,4.916666667,344,589,BOI,-,-,"Please name all of the ways you could use this object. Keep in mind that one object can have many uses. Separate your responses with a comma.",,y,21393,,,4497,21241,,,,"confide in, cry with, have fun, cook, eat, drink",1
w10068861_VW,lgcvucj6bp,"BOI Norms",1,15,2021-12-01T16:48:58+00:00,10.651799917221,20,"updated stim.csv",Version20.csv,"Version 20","List 20",flapjack,,571,5.2,1000,572,BOI,-,-,"Please name all of the ways you could use this object. Keep in mind that one object can have many uses. Separate your responses with a comma.",,y,10449,,,1739,10152,,,,"eat, flipped, throw",1
w10068861_VW,lgcvucj6bp,"BOI Norms",1,16,2021-12-01T16:49:04+00:00,6.233959197998,20,"updated stim.csv",Version20.csv,"Version 20","List 20",sedan,,586,5.565217391,2306,587,BOI,-,-,"Please name all of the ways you could use this object. Keep in mind that one object can have many uses. Separate your responses with a comma.",,y,6049,,,1682,5792,,,,"drive, travel",1
w10068861_VW,lgcvucj6bp,"BOI Norms",1,17,2021-12-01T16:49:14+00:00,10.45105099678,20,"updated stim.csv",Version20.csv,"Version 20","List 20",stepladder,,599,6.130434783,2527,600,BOI,-,-,"Please name all of the ways you could use this object. Keep in mind that one object can have many uses. Separate your responses with a comma.",,y,10267,,,2361,10112,,,,"reach things, feel taller",1
w10068861_VW,lgcvucj6bp,"BOI Norms",1,18,2021-12-01T16:49:24+00:00,9.3648719787598,20,"updated stim.csv",Version20.csv,"Version 20","List 20",gem,,597,5.517241379,1093,598,BOI,-,-,"Please name all of the ways you could use this object. Keep in mind that one object can have many uses. Separate your responses with a comma.",,y,9170,,,1475,8975,,,,"put in ring, sell, give away",1
w10068861_VW,lgcvucj6bp,"BOI Norms",1,19,2021-12-01T16:49:25+00:00,1.3330619335175,20,"updated stim.csv",Version20.csv,"Version 20","List 20",smock,,594,5.08,2421,595,BOI,-,-,"Please name all of the ways you could use this object. Keep in mind that one object can have many uses. Separate your responses with a comma.",,y,1124,,,-1,-1,,,,,1
w10068861_VW,lgcvucj6bp,"BOI Norms",1,20,2021-12-01T16:49:34+00:00,8.5030109882355,20,"updated stim.csv",Version20.csv,"Version 20","List 20",jam,,573,5.173913043,1372,574,BOI,-,-,"Please name all of the ways you could use this object. Keep in mind that one object can have many uses. Separate your responses with a comma.",,y,8312,,,1285,4275,,,,"put on bread, ",1
w10068861_VW,lgcvucj6bp,"BOI Norms",1,21,2021-12-01T16:50:08+00:00,34.391680955887,20,"updated stim.csv",Version20.csv,"Version 20","List 20",neurologist,,595,4.384615385,1753,596,BOI,-,-,"Please name all of the ways you could use this object. Keep in mind that one object can have many uses. Separate your responses with a comma.",,y,34161,,,1731,33904,,,,"study the brain, study irregular behaviors, find solutions that may be going on dealing with the brain",1
w10068861_VW,lgcvucj6bp,"BOI Norms",1,22,2021-12-01T16:50:22+00:00,14.274799108505,20,"updated stim.csv",Version20.csv,"Version 20","List 20",rodent,,591,5.041666667,2186,592,BOI,-,-,"Please name all of the ways you could use this object. Keep in mind that one object can have many uses. Separate your responses with a comma.",,y,13929,,,1621,13728,,,,"eat other rodents, invade homes, be killed ",1
w10068861_VW,lgcvucj6bp,"BOI Norms",1,23,2021-12-01T16:50:36+00:00,13.734030008316,20,"updated stim.csv",Version20.csv,"Version 20","List 20",poinsettia,,576,5.347826087,2018,577,BOI,-,-,"Please name all of the ways you could use this object. Keep in mind that one object can have many uses. Separate your responses with a comma.",,y,13536,,,6880,13405,,,,"decorate, give to ",1
w10068861_VW,lgcvucj6bp,"BOI Norms",1,24,2021-12-01T16:50:42+00:00,6.1000239849091,20,"updated stim.csv",Version20.csv,"Version 20","List 20",oilcloth,,600,5.125,1803,601,BOI,-,-,"Please name all of the ways you could use this object. Keep in mind that one object can have many uses. Separate your responses with a comma.",,y,5905,,,3093,5769,,,,"wipe oil",1
w10068861_VW,lgcvucj6bp,"BOI Norms",1,25,2021-12-01T16:50:48+00:00,5.6634080410004,20,"updated stim.csv",Version20.csv,"Version 20","List 20",crosswalk,,596,4.714285714,706,597,BOI,-,-,"Please name all of the ways you could use this object. Keep in mind that one object can have many uses. Separate your responses with a comma.",,y,5483,,,1149,5307,,,,"walk, stop ",1
w10068861_VW,lgcvucj6bp,"BOI Norms",1,26,2021-12-01T16:50:55+00:00,7.6868019104004,20,"updated stim.csv",Version20.csv,"Version 20","List 20",dinner,,572,5.545454545,795,573,BOI,-,-,"Please name all of the ways you could use this object. Keep in mind that one object can have many uses. Separate your responses with a comma.",,y,7494,,,1353,7232,,,,"eat, get full, feel happy",1
w10068861_VW,lgcvucj6bp,"BOI Norms",1,27,2021-12-01T16:51:03+00:00,7.8108079433441,20,"updated stim.csv",Version20.csv,"Version 20","List 20",tambourine,,579,5.916666667,2628,580,BOI,-,-,"Please name all of the ways you could use this object. Keep in mind that one object can have many uses. Separate your responses with a comma.",,y,7622,,,2647,7482,,,,"play, throw",1
w10068861_VW,lgcvucj6bp,"BOI Norms",1,28,2021-12-01T16:51:15+00:00,11.761775970459,20,"updated stim.csv",Version20.csv,"Version 20","List 20",firewood,,593,5.72,987,594,BOI,-,-,"Please name all of the ways you could use this object. Keep in mind that one object can have many uses. Separate your responses with a comma.",,y,11563,,,1219,10837,,,,"burn, make food, stay warm",1
w10068861_VW,lgcvucj6bp,"BOI Norms",1,29,2021-12-01T16:51:23+00:00,7.6084551811218,20,"updated stim.csv",Version20.csv,"Version 20","List 20",shack,,583,5.125,2317,584,BOI,-,-,"Please name all of the ways you could use this object. Keep in mind that one object can have many uses. Separate your responses with a comma.",,y,7352,,,1495,6788,,,,"live in, sleep, ",1
w10068861_VW,lgcvucj6bp,"BOI Norms",1,30,2021-12-01T16:51:29+00:00,6.8472068309784,20,"updated stim.csv",Version20.csv,"Version 20","List 20",craftsman,,585,4.833333333,679,586,BOI,-,-,"Please name all of the ways you could use this object. Keep in mind that one object can have many uses. Separate your responses with a comma.",,y,6662,,,1459,6507,,,,"create different things needed",1
w10068861_VW,lgcvucj6bp,"BOI Norms",1,31,2021-12-01T16:51:45+00:00,15.115020036697,20,"updated stim.csv",Version20.csv,"Version 20","List 20",theatergoer,,581,5,2673,582,BOI,-,-,"Please name all of the ways you could use this object. Keep in mind that one object can have many uses. Separate your responses with a comma.",,y,14912,,,1646,14729,,,,"watch plays, use barnoculors",1
w10068861_VW,lgcvucj6bp,"BOI Norms",1,32,2021-12-01T16:51:53+00:00,8.2455990314484,20,"updated stim.csv",Version20.csv,"Version 20","List 20",breasts,,589,6.173913043,315,590,BOI,-,-,"Please name all of the ways you could use this object. Keep in mind that one object can have many uses. Separate your responses with a comma.",,y,8034,,,3374,5927,,,,"make milk",1
w10068861_VW,lgcvucj6bp,"BOI Norms",1,33,2021-12-01T16:52:03+00:00,10.489096879959,20,"updated stim.csv",Version20.csv,"Version 20","List 20",sketchbook,,592,5.833333333,2394,593,BOI,-,-,"Please name all of the ways you could use this object. Keep in mind that one object can have many uses. Separate your responses with a comma.",,y,10295,,,1554,10118,,,,"draw, throw, step on ",1
w10068861_VW,lgcvucj6bp,"BOI Norms",1,34,2021-12-01T16:52:18+00:00,14.951925992966,20,"updated stim.csv",Version20.csv,"Version 20","List 20",antennae,,587,4.538461538,47,588,BOI,-,-,"Please name all of the ways you could use this object. Keep in mind that one object can have many uses. Separate your responses with a comma.",,y,14755,,,2521,14542,,,,"get signal, connect and talk, use as a weapon",1
w10068861_VW,lgcvucj6bp,"BOI Norms",1,35,2021-12-01T16:52:40+00:00,22.093605995178,20,"updated stim.csv",Version20.csv,"Version 20","List 20",cocoa,,574,5.625,589,575,BOI,-,-,"Please name all of the ways you could use this object. Keep in mind that one object can have many uses. Separate your responses with a comma.",,y,21851,,,1718,21304,,,,"chocolate, hot cocoa, teeth",1
w10068861_VW,lgcvucj6bp,"BOI Norms",1,36,2021-12-01T16:52:54+00:00,13.79629611969,20,"updated stim.csv",Version20.csv,"Version 20","List 20",garage,,575,4.96,1073,576,BOI,-,-,"Please name all of the ways you could use this object. Keep in mind that one object can have many uses. Separate your responses with a comma.",,y,13574,,,1453,13389,,,,"protect from outside, protect cars, have party",1
w10068861_VW,lgcvucj6bp,"BOI Norms",1,37,2021-12-01T16:53:15+00:00,21.067132949829,20,"updated stim.csv",Version20.csv,"Version 20","List 20",instructor,,580,4.583333333,1360,581,BOI,-,-,"Please name all of the ways you could use this object. Keep in mind that one object can have many uses. Separate your responses with a comma.",,y,20857,,,1211,20038,,,,"teach, ask and answer questions, help, explain, reward",1
w10068861_VW,lgcvucj6bp,"BOI Norms",1,38,2021-12-01T16:53:26+00:00,10.383034944534,20,"updated stim.csv",Version20.csv,"Version 20","List 20",skittle,,577,5,2401,578,BOI,-,-,"Please name all of the ways you could use this object. Keep in mind that one object can have many uses. Separate your responses with a comma.",,y,10180,,,1131,10002,,,,"eat, throw, use for math help",1
w10068861_VW,lgcvucj6bp,"BOI Norms",1,39,2021-12-01T16:53:27+00:00,1.1883471012115,20,"updated stim.csv",Version20.csv,"Version 20","List 20",obstetrician,,598,5.04,1798,599,BOI,-,-,"Please name all of the ways you could use this object. Keep in mind that one object can have many uses. Separate your responses with a comma.",,y,997,,,-1,-1,,,,,1
w10068861_VW,lgcvucj6bp,"BOI Norms",1,40,2021-12-01T16:53:35+00:00,7.9272570610046,20,"updated stim.csv",Version20.csv,"Version 20","List 20",novel,,578,5.4,1783,579,BOI,-,-,"Please name all of the ways you could use this object. Keep in mind that one object can have many uses. Separate your responses with a comma.",,y,7733,,,1151,7130,,,,"read, throw ",1
w10068861_VW,lgcvucj6bp,"BOI Norms",1,41,2021-12-01T16:53:37+00:00,2.0909178256989,20,"updated stim.csv",Version20.csv,"Version 20","List 20",,,,,,0,Instruct,,,"You will now be asked a few questions about your experience today.",,"Instruct 4",1911,,,-1,-1,,,,,1
