Username,ID,ExperimentName,Session,Trial,Date,TimeDif,"Condition Number","Stimuli File","Order File","Condition Description","Condition Notes",Stimuli*Cue,Stimuli*Answer,Stimuli*Shuffle,"Stimuli*Stimuli Notes",Stimuli*Value,Procedure*Item,"Procedure*Trial Type","Procedure*Max Time","Procedure*Min Time",Procedure*Text,"Procedure*Procedure Notes",Procedure*Shuffle,Response*RT,Response*Response,Response*Accuracy,Response*RTfirst,Response*RTlast,Response*strictAcc,Response*lenientAcc,Response*focus,Response*JOL,Response*Focus
emily.doty@hope.edu,elzje4re73,Affordances_Hope,1,1,2023-01-12T14:15:21+00:00,12.515148162842,19,"updated stim.csv",Version44.csv,"Version 44","List 44",,,,,,0,Instruct,-,10,"In this section, you will be presented with a series of objects. Please name as many possible uses for this object as you can think of by typing them in the box below each object.",,Instruct1,12244,,,-1,-1,,,,,1
emily.doty@hope.edu,elzje4re73,Affordances_Hope,1,2,2023-01-12T14:15:36+00:00,14.564502954483,19,"updated stim.csv",Version44.csv,"Version 44","List 44",,,,,,0,Instruct,-,10,"Please keep in mind that a single object will have more than one use. For example, a ball can be thrown or can be bounced or even stepped on. When listing multiple uses for one object, please separate each use with a comma (i.e., thrown, bounced, stepped on)",,Instruct2,14208,,,-1,-1,,,,,1
emily.doty@hope.edu,elzje4re73,Affordances_Hope,1,3,2023-01-12T14:15:44+00:00,7.9513630867004,19,"updated stim.csv",Version44.csv,"Version 44","List 44",,,,,,0,Instruct,-,-,"Before starting the experiment, you will complete a short practice sesstion. Press ENTER when you are ready to begin.",,Instruct3,7604,,,-1,-1,,,,,1
emily.doty@hope.edu,elzje4re73,Affordances_Hope,1,4,2023-01-12T14:16:31+00:00,47.648749828339,19,"updated stim.csv",Version44.csv,"Version 44","List 44",paperwork,,3001,5.625,1866,3002,BOI,-,-,"Please name all of the ways you could use this object. Keep in mind that one object can have many uses. Separate your responses with a comma.",,n,47288,,,19793,45990,,,,"Start a fire, draw on, filled out, someone’s job to do",1
emily.doty@hope.edu,elzje4re73,Affordances_Hope,1,5,2023-01-12T14:17:03+00:00,31.45464015007,19,"updated stim.csv",Version44.csv,"Version 44","List 44",saucer,,3005,5.777777778,2249,3006,BOI,-,-,"Please name all of the ways you could use this object. Keep in mind that one object can have many uses. Separate your responses with a comma.",,n,31085,,,5472,28172,,,,"Thrown, stepped on, hold something",1
emily.doty@hope.edu,elzje4re73,Affordances_Hope,1,6,2023-01-12T14:17:22+00:00,18.938099861145,19,"updated stim.csv",Version44.csv,"Version 44","List 44",spaghetti,,3003,6,2461,3004,BOI,-,-,"Please name all of the ways you could use this object. Keep in mind that one object can have many uses. Separate your responses with a comma.",,n,18550,,,2522,17438,,,,"Eaten, thrown, art project",1
emily.doty@hope.edu,elzje4re73,Affordances_Hope,1,7,2023-01-12T14:18:15+00:00,53.460978031158,19,"updated stim.csv",Version44.csv,"Version 44","List 44",shortening,,3002,4.92,2358,3003,BOI,-,-,"Please name all of the ways you could use this object. Keep in mind that one object can have many uses. Separate your responses with a comma.",,n,53054,,,47122,52214,,,,"Something you can eat",0.956
emily.doty@hope.edu,elzje4re73,Affordances_Hope,1,8,2023-01-12T14:18:34+00:00,19.0375020504,19,"updated stim.csv",Version44.csv,"Version 44","List 44",grain,,3004,5.217391304,1143,3005,BOI,-,-,"Please name all of the ways you could use this object. Keep in mind that one object can have many uses. Separate your responses with a comma.",,n,18615,,,3468,17755,,,,"Used to make flour, feed it to animals",1
emily.doty@hope.edu,elzje4re73,Affordances_Hope,1,9,2023-01-12T14:18:38+00:00,3.5766739845276,19,"updated stim.csv",Version44.csv,"Version 44","List 44",,,,,,0,Instruct,-,-,"You have completed this section. Press ENTER to continue",,"Instruct 5",3341,,,-1,-1,,,,,1
emily.doty@hope.edu,elzje4re73,Affordances_Hope,1,10,2023-01-12T14:18:44+00:00,6.3900730609894,19,"updated stim.csv",Version44.csv,"Version 44","List 44",,,,,,0,Instruct,-,-,"You will now start the full experiment. Press ENTER when you are ready to begin.",,,6041,,,-1,-1,,,,,1
emily.doty@hope.edu,elzje4re73,Affordances_Hope,1,11,2023-01-12T14:19:16+00:00,31.347118854523,19,"updated stim.csv",Version44.csv,"Version 44","List 44",watermelon,,1291,5.869565217,2911,1292,BOI,-,-,"Please name all of the ways you could use this object. Keep in mind that one object can have many uses. Separate your responses with a comma.",,y,30981,,,2301,28751,,,,"Eaten, shared, grow more watermelons, sold",1
emily.doty@hope.edu,elzje4re73,Affordances_Hope,1,12,2023-01-12T14:19:27+00:00,11.74018406868,19,"updated stim.csv",Version44.csv,"Version 44","List 44",headdress,,1305,5.541666667,1265,1306,BOI,-,-,"Please name all of the ways you could use this object. Keep in mind that one object can have many uses. Separate your responses with a comma.",,y,11374,,,3013,3577,,,,Worn,1
emily.doty@hope.edu,elzje4re73,Affordances_Hope,1,13,2023-01-12T14:19:42+00:00,14.472438097,19,"updated stim.csv",Version44.csv,"Version 44","List 44",extinguisher,,1296,5.043478261,928,1297,BOI,-,-,"Please name all of the ways you could use this object. Keep in mind that one object can have many uses. Separate your responses with a comma.",,y,14113,,,2667,12418,,,,"To put out a fire, used a a weapon",1
emily.doty@hope.edu,elzje4re73,Affordances_Hope,1,14,2023-01-12T14:20:24+00:00,42.589820861816,19,"updated stim.csv",Version44.csv,"Version 44","List 44",cow,,1320,5.434782609,671,1321,BOI,-,-,"Please name all of the ways you could use this object. Keep in mind that one object can have many uses. Separate your responses with a comma.",,y,42236,,,4688,39772,,,,"Obtain milk, used for meat, used as a pet, potentially ride the cow, to make more cows",1
emily.doty@hope.edu,elzje4re73,Affordances_Hope,1,15,2023-01-12T14:21:07+00:00,42.370720148087,19,"updated stim.csv",Version44.csv,"Version 44","List 44",beer,,1309,5.791666667,192,1310,BOI,-,-,"Please name all of the ways you could use this object. Keep in mind that one object can have many uses. Separate your responses with a comma.",,y,42009,,,2209,41029,,,,"Drink, mix with other things to eat or drink, to get drunk with or make others drunk",1
emily.doty@hope.edu,elzje4re73,Affordances_Hope,1,16,2023-01-12T14:21:29+00:00,22.706070899963,19,"updated stim.csv",Version44.csv,"Version 44","List 44",cabin,,1316,4.56,388,1317,BOI,-,-,"Please name all of the ways you could use this object. Keep in mind that one object can have many uses. Separate your responses with a comma.",,y,22352,,,2624,20274,,,,"A place to stay, a place to do outdoor activities ",1
emily.doty@hope.edu,elzje4re73,Affordances_Hope,1,17,2023-01-12T14:22:44+00:00,74.719342947006,19,"updated stim.csv",Version44.csv,"Version 44","List 44",braid,,1318,5.64,301,1319,BOI,-,-,"Please name all of the ways you could use this object. Keep in mind that one object can have many uses. Separate your responses with a comma.",,y,74345,,,2835,15745,,,,"Used to make a rope, used to put hair up",1
emily.doty@hope.edu,elzje4re73,Affordances_Hope,1,18,2023-01-12T14:27:50+00:00,305.59892702103,19,"updated stim.csv",Version44.csv,"Version 44","List 44",newsman,,1310,4.285714286,1759,1311,BOI,-,-,"Please name all of the ways you could use this object. Keep in mind that one object can have many uses. Separate your responses with a comma.",,y,305229,,,296428,304621,,,,"Someone who delivers news",1
emily.doty@hope.edu,elzje4re73,Affordances_Hope,1,19,2023-01-12T14:28:35+00:00,45.501867055893,19,"updated stim.csv",Version44.csv,"Version 44","List 44",cradle,,1306,5.652173913,678,1307,BOI,-,-,"Please name all of the ways you could use this object. Keep in mind that one object can have many uses. Separate your responses with a comma.",,y,45071,,,22605,41174,,,,"A bed for babies",0.741
emily.doty@hope.edu,elzje4re73,Affordances_Hope,1,20,2023-01-12T14:29:29+00:00,53.573824882507,19,"updated stim.csv",Version44.csv,"Version 44","List 44",handbag,,1293,6,1229,1294,BOI,-,-,"Please name all of the ways you could use this object. Keep in mind that one object can have many uses. Separate your responses with a comma.",,y,53148,,,2452,48532,,,,"A bag to hold objects, something to carry around, a thing that can show social status",1
emily.doty@hope.edu,elzje4re73,Affordances_Hope,1,21,2023-01-12T14:29:56+00:00,27.016928195953,19,"updated stim.csv",Version44.csv,"Version 44","List 44",yearbook,,1294,5.56,2992,1295,BOI,-,-,"Please name all of the ways you could use this object. Keep in mind that one object can have many uses. Separate your responses with a comma.",,y,26655,,,4431,24698,,,,"Used to show pictures, portrays memories and ideas from the year, tells a story ",1
emily.doty@hope.edu,elzje4re73,Affordances_Hope,1,22,2023-01-12T14:30:16+00:00,20.239620923996,19,"updated stim.csv",Version44.csv,"Version 44","List 44",pepper,,1298,5.875,1921,1299,BOI,-,-,"Please name all of the ways you could use this object. Keep in mind that one object can have many uses. Separate your responses with a comma.",,y,19846,,,2073,18935,,,,"Used as a spice, also can be eaten straight up",1
emily.doty@hope.edu,elzje4re73,Affordances_Hope,1,23,2023-01-12T14:30:32+00:00,15.69814991951,19,"updated stim.csv",Version44.csv,"Version 44","List 44",racehorse,,1292,5.208333333,2118,1293,BOI,-,-,"Please name all of the ways you could use this object. Keep in mind that one object can have many uses. Separate your responses with a comma.",,y,15307,,,3354,13570,,,,"Used to race, you can bet on a racehorse",1
emily.doty@hope.edu,elzje4re73,Affordances_Hope,1,24,2023-01-12T14:30:41+00:00,9.0810971260071,19,"updated stim.csv",Version44.csv,"Version 44","List 44",shortbread,,1314,5.416666667,2356,1315,BOI,-,-,"Please name all of the ways you could use this object. Keep in mind that one object can have many uses. Separate your responses with a comma.",,y,8639,,,3417,7714,,,,"Eaten, thrown",1
emily.doty@hope.edu,elzje4re73,Affordances_Hope,1,25,2023-01-12T14:30:59+00:00,17.806278944016,19,"updated stim.csv",Version44.csv,"Version 44","List 44",vodka,,1312,5.56,2872,1313,BOI,-,-,"Please name all of the ways you could use this object. Keep in mind that one object can have many uses. Separate your responses with a comma.",,y,17418,,,2493,16624,,,,"Used to drink casually with friends, used to get drunk",1
emily.doty@hope.edu,elzje4re73,Affordances_Hope,1,26,2023-01-12T14:31:35+00:00,36.376133918762,19,"updated stim.csv",Version44.csv,"Version 44","List 44",divorcee,,1301,4.5,807,1302,BOI,-,-,"Please name all of the ways you could use this object. Keep in mind that one object can have many uses. Separate your responses with a comma.",,y,35943,,,2867,33693,,,,"Use this person to relate to if you are also divorced ",0.937
emily.doty@hope.edu,elzje4re73,Affordances_Hope,1,27,2023-01-12T14:31:47+00:00,11.851672172546,19,"updated stim.csv",Version44.csv,"Version 44","List 44",caviar,,1307,4.818181818,468,1308,BOI,-,-,"Please name all of the ways you could use this object. Keep in mind that one object can have many uses. Separate your responses with a comma.",,y,11420,,,2651,5601,,,,"to eat",1
emily.doty@hope.edu,elzje4re73,Affordances_Hope,1,28,2023-01-12T14:32:13+00:00,26.503820896149,19,"updated stim.csv",Version44.csv,"Version 44","List 44",porch,,1313,4.44,2036,1314,BOI,-,-,"Please name all of the ways you could use this object. Keep in mind that one object can have many uses. Separate your responses with a comma.",,y,26128,,,1918,25150,,,,"Sit on, stand on, eat on top of, look out",1
emily.doty@hope.edu,elzje4re73,Affordances_Hope,1,29,2023-01-12T14:32:42+00:00,29.056766986847,19,"updated stim.csv",Version44.csv,"Version 44","List 44",carpeting,,1297,5.115384615,438,1298,BOI,-,-,"Please name all of the ways you could use this object. Keep in mind that one object can have many uses. Separate your responses with a comma.",,y,28695,,,4443,27838,,,,"Used as a place to sit, to soften where you walk, decoration",1
emily.doty@hope.edu,elzje4re73,Affordances_Hope,1,30,2023-01-12T14:32:48+00:00,5.1421461105347,19,"updated stim.csv",Version44.csv,"Version 44","List 44",oregano,,1302,5.64,1819,1303,BOI,-,-,"Please name all of the ways you could use this object. Keep in mind that one object can have many uses. Separate your responses with a comma.",,y,4797,,,2938,3819,,,,Spice,1
emily.doty@hope.edu,elzje4re73,Affordances_Hope,1,31,2023-01-12T14:33:19+00:00,31.772462844849,19,"updated stim.csv",Version44.csv,"Version 44","List 44",pliers,,1300,6.086956522,2007,1301,BOI,-,-,"Please name all of the ways you could use this object. Keep in mind that one object can have many uses. Separate your responses with a comma.",,y,31363,,,18978,30561,,,,"Bend wires, grab or twist a small object",0.838
emily.doty@hope.edu,elzje4re73,Affordances_Hope,1,32,2023-01-12T14:33:46+00:00,26.728358030319,19,"updated stim.csv",Version44.csv,"Version 44","List 44",sauna,,1295,5.363636364,2251,1296,BOI,-,-,"Please name all of the ways you could use this object. Keep in mind that one object can have many uses. Separate your responses with a comma.",,y,26305,,,2680,25178,,,,"Used to distress, relaxation",1
emily.doty@hope.edu,elzje4re73,Affordances_Hope,1,33,2023-01-12T14:34:13+00:00,26.498517990112,19,"updated stim.csv",Version44.csv,"Version 44","List 44",glassware,,1303,5.964285714,1113,1304,BOI,-,-,"Please name all of the ways you could use this object. Keep in mind that one object can have many uses. Separate your responses with a comma.",,y,26142,,,3049,24345,,,,"Used as a tool for eating and drinking, used as a weapon potentially ",1
emily.doty@hope.edu,elzje4re73,Affordances_Hope,1,34,2023-01-12T14:34:35+00:00,22.37618303299,19,"updated stim.csv",Version44.csv,"Version 44","List 44",footstool,,1311,6.304347826,1039,1312,BOI,-,-,"Please name all of the ways you could use this object. Keep in mind that one object can have many uses. Separate your responses with a comma.",,y,22023,,,4031,20514,,,,"Used for leg and foot support, comfort while sitting ",1
emily.doty@hope.edu,elzje4re73,Affordances_Hope,1,35,2023-01-12T14:35:00+00:00,24.69547700882,19,"updated stim.csv",Version44.csv,"Version 44","List 44",cellophane,,1315,4.703703704,475,1316,BOI,-,-,"Please name all of the ways you could use this object. Keep in mind that one object can have many uses. Separate your responses with a comma.",,y,24290,,,17899,22319,,,,"Used to keep food fresh",0.803
emily.doty@hope.edu,elzje4re73,Affordances_Hope,1,36,2023-01-12T14:35:13+00:00,13.807280063629,19,"updated stim.csv",Version44.csv,"Version 44","List 44",barricade,,1319,4.28,155,1320,BOI,-,-,"Please name all of the ways you could use this object. Keep in mind that one object can have many uses. Separate your responses with a comma.",,y,13368,,,2988,7202,,,,"Used to block off something",1
emily.doty@hope.edu,elzje4re73,Affordances_Hope,1,37,2023-01-12T14:35:33+00:00,19.969892024994,19,"updated stim.csv",Version44.csv,"Version 44","List 44",pillar,,1299,5.041666667,1961,1300,BOI,-,-,"Please name all of the ways you could use this object. Keep in mind that one object can have many uses. Separate your responses with a comma.",,y,19584,,,2257,17957,,,,"Used for support of a structure, also used as decoration ",1
emily.doty@hope.edu,elzje4re73,Affordances_Hope,1,38,2023-01-12T14:35:42+00:00,8.756217956543,19,"updated stim.csv",Version44.csv,"Version 44","List 44",lyre,,1317,4.45,1561,1318,BOI,-,-,"Please name all of the ways you could use this object. Keep in mind that one object can have many uses. Separate your responses with a comma.",,y,8390,,,4045,7613,,,,Music,1
emily.doty@hope.edu,elzje4re73,Affordances_Hope,1,39,2023-01-12T14:36:01+00:00,18.838235855103,19,"updated stim.csv",Version44.csv,"Version 44","List 44",compass,,1308,5.538461538,612,1309,BOI,-,-,"Please name all of the ways you could use this object. Keep in mind that one object can have many uses. Separate your responses with a comma.",,y,18470,,,2970,16268,,,,"To show direction, help people find there way",1
emily.doty@hope.edu,elzje4re73,Affordances_Hope,1,40,2023-01-12T14:36:27+00:00,26.394453048706,19,"updated stim.csv",Version44.csv,"Version 44","List 44",residence,,1304,4.333333333,2157,1305,BOI,-,-,"Please name all of the ways you could use this object. Keep in mind that one object can have many uses. Separate your responses with a comma.",,y,25974,,,18287,25221,,,,"A place to live, a place to work",0.92
emily.doty@hope.edu,elzje4re73,Affordances_Hope,1,41,2023-01-12T14:36:31+00:00,3.4090960025787,19,"updated stim.csv",Version44.csv,"Version 44","List 44",,,,,,0,Instruct,,,"You will now be asked a few questions about your experience today.",,"Instruct 4",3134,,,-1,-1,,,,,1
