Username,ID,ExperimentName,Session,Trial,Date,TimeDif,"Condition Number","Stimuli File","Order File","Condition Description","Condition Notes",Stimuli*Cue,Stimuli*Answer,Stimuli*Shuffle,"Stimuli*Stimuli Notes",Stimuli*Value,Procedure*Item,"Procedure*Trial Type","Procedure*Max Time","Procedure*Min Time",Procedure*Text,"Procedure*Procedure Notes",Procedure*Shuffle,Response*RT,Response*Response,Response*Accuracy,Response*RTfirst,Response*RTlast,Response*strictAcc,Response*lenientAcc,Response*focus,Response*JOL,Response*Focus
allison.dumler@hope.edu,k4q3a5ywnu,Affordances_Hope,1,1,2023-01-30T19:20:16+00:00,13.485474824905,12,"updated stim.csv",Version37.csv,"Version 37","List 37",,,,,,0,Instruct,-,10,"In this section, you will be presented with a series of objects. Please name as many possible uses for this object as you can think of by typing them in the box below each object.",,Instruct1,11479,,,-1,-1,,,,,1
allison.dumler@hope.edu,k4q3a5ywnu,Affordances_Hope,1,2,2023-01-30T19:20:29+00:00,12.785795211792,12,"updated stim.csv",Version37.csv,"Version 37","List 37",,,,,,0,Instruct,-,10,"Please keep in mind that a single object will have more than one use. For example, a ball can be thrown or can be bounced or even stepped on. When listing multiple uses for one object, please separate each use with a comma (i.e., thrown, bounced, stepped on)",,Instruct2,12630,,,-1,-1,,,,,1
allison.dumler@hope.edu,k4q3a5ywnu,Affordances_Hope,1,3,2023-01-30T19:20:33+00:00,3.9807829856873,12,"updated stim.csv",Version37.csv,"Version 37","List 37",,,,,,0,Instruct,-,-,"Before starting the experiment, you will complete a short practice sesstion. Press ENTER when you are ready to begin.",,Instruct3,3753,,,-1,-1,,,,,1
allison.dumler@hope.edu,k4q3a5ywnu,Affordances_Hope,1,4,2023-01-30T19:20:49+00:00,15.883072853088,12,"updated stim.csv",Version37.csv,"Version 37","List 37",shortening,,3002,4.92,2358,3003,BOI,-,-,"Please name all of the ways you could use this object. Keep in mind that one object can have many uses. Separate your responses with a comma.",,n,15676,,,2738,14702,,,,"baking, cooking, greasing",1
allison.dumler@hope.edu,k4q3a5ywnu,Affordances_Hope,1,5,2023-01-30T19:21:05+00:00,16.415785074234,12,"updated stim.csv",Version37.csv,"Version 37","List 37",saucer,,3005,5.777777778,2249,3006,BOI,-,-,"Please name all of the ways you could use this object. Keep in mind that one object can have many uses. Separate your responses with a comma.",,n,15914,,,2327,15065,,,,"flying, cooking, drinking, playing",1
allison.dumler@hope.edu,k4q3a5ywnu,Affordances_Hope,1,6,2023-01-30T19:21:15+00:00,9.3848719596863,12,"updated stim.csv",Version37.csv,"Version 37","List 37",spaghetti,,3003,6,2461,3004,BOI,-,-,"Please name all of the ways you could use this object. Keep in mind that one object can have many uses. Separate your responses with a comma.",,n,9090,,,1604,3890,,,,"eating, art",1
allison.dumler@hope.edu,k4q3a5ywnu,Affordances_Hope,1,7,2023-01-30T19:21:30+00:00,15.665003061295,12,"updated stim.csv",Version37.csv,"Version 37","List 37",paperwork,,3001,5.625,1866,3002,BOI,-,-,"Please name all of the ways you could use this object. Keep in mind that one object can have many uses. Separate your responses with a comma.",,n,15374,,,8420,14565,,,,"grading, working",1
allison.dumler@hope.edu,k4q3a5ywnu,Affordances_Hope,1,8,2023-01-30T19:21:39+00:00,8.2432570457458,12,"updated stim.csv",Version37.csv,"Version 37","List 37",grain,,3004,5.217391304,1143,3005,BOI,-,-,"Please name all of the ways you could use this object. Keep in mind that one object can have many uses. Separate your responses with a comma.",,n,8093,,,4350,6551,,,,eating,1
allison.dumler@hope.edu,k4q3a5ywnu,Affordances_Hope,1,9,2023-01-30T19:21:40+00:00,1.7544169425964,12,"updated stim.csv",Version37.csv,"Version 37","List 37",,,,,,0,Instruct,-,-,"You have completed this section. Press ENTER to continue",,"Instruct 5",1623,,,-1,-1,,,,,1
allison.dumler@hope.edu,k4q3a5ywnu,Affordances_Hope,1,10,2023-01-30T19:21:42+00:00,1.8797469139099,12,"updated stim.csv",Version37.csv,"Version 37","List 37",,,,,,0,Instruct,-,-,"You will now start the full experiment. Press ENTER when you are ready to begin.",,,1632,,,-1,-1,,,,,1
allison.dumler@hope.edu,k4q3a5ywnu,Affordances_Hope,1,11,2023-01-30T19:22:20+00:00,37.742427110672,12,"updated stim.csv",Version37.csv,"Version 37","List 37",greenery,,1103,4.375,1170,1104,BOI,-,-,"Please name all of the ways you could use this object. Keep in mind that one object can have many uses. Separate your responses with a comma.",,y,36949,,,4992,36001,,,,"aesthetic, eating, feeding animals, decorating",1
allison.dumler@hope.edu,k4q3a5ywnu,Affordances_Hope,1,12,2023-01-30T19:22:37+00:00,17.180103063583,12,"updated stim.csv",Version37.csv,"Version 37","List 37",lotion,,1097,6.28,1548,1098,BOI,-,-,"Please name all of the ways you could use this object. Keep in mind that one object can have many uses. Separate your responses with a comma.",,y,17029,,,9718,14451,,,,"make your body smooth",1
allison.dumler@hope.edu,k4q3a5ywnu,Affordances_Hope,1,13,2023-01-30T19:22:48+00:00,10.481212854385,12,"updated stim.csv",Version37.csv,"Version 37","List 37",dressing,,1098,5.08,845,1099,BOI,-,-,"Please name all of the ways you could use this object. Keep in mind that one object can have many uses. Separate your responses with a comma.",,y,10240,,,2313,9361,,,,"salad, turkey, clothes",1
allison.dumler@hope.edu,k4q3a5ywnu,Affordances_Hope,1,14,2023-01-30T19:22:54+00:00,6.4151589870453,12,"updated stim.csv",Version37.csv,"Version 37","List 37",rag,,1085,5.666666667,2126,1086,BOI,-,-,"Please name all of the ways you could use this object. Keep in mind that one object can have many uses. Separate your responses with a comma.",,y,5969,,,1673,5056,,,,"drying, cleaning",1
allison.dumler@hope.edu,k4q3a5ywnu,Affordances_Hope,1,15,2023-01-30T19:23:03+00:00,8.3946599960327,12,"updated stim.csv",Version37.csv,"Version 37","List 37",forklift,,1094,5.541666667,1048,1095,BOI,-,-,"Please name all of the ways you could use this object. Keep in mind that one object can have many uses. Separate your responses with a comma.",,y,8222,,,1755,7389,,,,"lifting, construction, building",1
allison.dumler@hope.edu,k4q3a5ywnu,Affordances_Hope,1,16,2023-01-30T19:23:16+00:00,13.212955951691,12,"updated stim.csv",Version37.csv,"Version 37","List 37",toffee,,1091,5.608695652,2716,1092,BOI,-,-,"Please name all of the ways you could use this object. Keep in mind that one object can have many uses. Separate your responses with a comma.",,y,13007,,,1672,11585,,,,"eating, chocolate, coffee, candy",1
allison.dumler@hope.edu,k4q3a5ywnu,Affordances_Hope,1,17,2023-01-30T19:23:37+00:00,20.930891990662,12,"updated stim.csv",Version37.csv,"Version 37","List 37",glue,,1106,5.043478261,1118,1107,BOI,-,-,"Please name all of the ways you could use this object. Keep in mind that one object can have many uses. Separate your responses with a comma.",,y,20146,,,3952,16847,,,,"school, art, making, fixing ",1
allison.dumler@hope.edu,k4q3a5ywnu,Affordances_Hope,1,18,2023-01-30T19:23:44+00:00,7.5387120246887,12,"updated stim.csv",Version37.csv,"Version 37","List 37",elephant,,1108,4.36,900,1109,BOI,-,-,"Please name all of the ways you could use this object. Keep in mind that one object can have many uses. Separate your responses with a comma.",,y,7390,,,2799,6537,,,,"zoo, pet, safari",1
allison.dumler@hope.edu,k4q3a5ywnu,Affordances_Hope,1,19,2023-01-30T19:23:57+00:00,12.73419213295,12,"updated stim.csv",Version37.csv,"Version 37","List 37",tub,,1099,6.086956522,2789,1100,BOI,-,-,"Please name all of the ways you could use this object. Keep in mind that one object can have many uses. Separate your responses with a comma.",,y,12499,,,2084,12003,,,,"showering, bathing, shaving, cleaning",1
allison.dumler@hope.edu,k4q3a5ywnu,Affordances_Hope,1,20,2023-01-30T19:24:08+00:00,10.679278850555,12,"updated stim.csv",Version37.csv,"Version 37","List 37",clover,,1089,4.695652174,574,1090,BOI,-,-,"Please name all of the ways you could use this object. Keep in mind that one object can have many uses. Separate your responses with a comma.",,y,10395,,,5035,9638,,,,"luck, spice, food",1
allison.dumler@hope.edu,k4q3a5ywnu,Affordances_Hope,1,21,2023-01-30T19:24:23+00:00,15.614023208618,12,"updated stim.csv",Version37.csv,"Version 37","List 37",pistachio,,1101,5.541666667,1978,1102,BOI,-,-,"Please name all of the ways you could use this object. Keep in mind that one object can have many uses. Separate your responses with a comma.",,y,15477,,,1528,14539,,,,"pudding, eating, snack, cookie, macaroon, ice cream",1
allison.dumler@hope.edu,k4q3a5ywnu,Affordances_Hope,1,22,2023-01-30T19:24:36+00:00,12.680927991867,12,"updated stim.csv",Version37.csv,"Version 37","List 37",jeweler,,1100,4.695652174,1385,1101,BOI,-,-,"Please name all of the ways you could use this object. Keep in mind that one object can have many uses. Separate your responses with a comma.",,y,12531,,,3906,11584,,,,"rings, necklaces, bracelet, engagement",1
allison.dumler@hope.edu,k4q3a5ywnu,Affordances_Hope,1,23,2023-01-30T19:24:53+00:00,16.968900918961,12,"updated stim.csv",Version37.csv,"Version 37","List 37",locket,,1088,5.333333333,1537,1089,BOI,-,-,"Please name all of the ways you could use this object. Keep in mind that one object can have many uses. Separate your responses with a comma.",,y,16830,,,2042,15941,,,,"pictures, family members, dead person, necklace",1
allison.dumler@hope.edu,k4q3a5ywnu,Affordances_Hope,1,24,2023-01-30T19:25:19+00:00,26.253457069397,12,"updated stim.csv",Version37.csv,"Version 37","List 37",auto,,1096,4.391304348,100,1097,BOI,-,-,"Please name all of the ways you could use this object. Keep in mind that one object can have many uses. Separate your responses with a comma.",,y,25826,,,7758,25006,,,,"pilot, mobile, does things for you",1
allison.dumler@hope.edu,k4q3a5ywnu,Affordances_Hope,1,25,2023-01-30T19:25:24+00:00,4.8501808643341,12,"updated stim.csv",Version37.csv,"Version 37","List 37",shirttail,,1093,5.333333333,2348,1094,BOI,-,-,"Please name all of the ways you could use this object. Keep in mind that one object can have many uses. Separate your responses with a comma.",,y,3748,,,-1,-1,,,,,1
allison.dumler@hope.edu,k4q3a5ywnu,Affordances_Hope,1,26,2023-01-30T19:25:36+00:00,11.612020969391,12,"updated stim.csv",Version37.csv,"Version 37","List 37",scorecard,,1090,4.875,2279,1091,BOI,-,-,"Please name all of the ways you could use this object. Keep in mind that one object can have many uses. Separate your responses with a comma.",,y,11471,,,2574,9331,,,,"baseball, football, golf, tennis",1
allison.dumler@hope.edu,k4q3a5ywnu,Affordances_Hope,1,27,2023-01-30T19:25:57+00:00,21.504683017731,12,"updated stim.csv",Version37.csv,"Version 37","List 37",tummy,,1105,5.125,2796,1106,BOI,-,-,"Please name all of the ways you could use this object. Keep in mind that one object can have many uses. Separate your responses with a comma.",,y,21247,,,2796,20393,,,,"workout, surgery, learning, anatomy, medicine",1
allison.dumler@hope.edu,k4q3a5ywnu,Affordances_Hope,1,28,2023-01-30T19:26:07+00:00,10.256837129593,12,"updated stim.csv",Version37.csv,"Version 37","List 37",critter,,1087,4.863636364,697,1088,BOI,-,-,"Please name all of the ways you could use this object. Keep in mind that one object can have many uses. Separate your responses with a comma.",,y,10106,,,8813,9258,,,,bugs,1
allison.dumler@hope.edu,k4q3a5ywnu,Affordances_Hope,1,29,2023-01-30T19:26:16+00:00,8.14240193367,12,"updated stim.csv",Version37.csv,"Version 37","List 37",twig,,1109,5.28,2811,1110,BOI,-,-,"Please name all of the ways you could use this object. Keep in mind that one object can have many uses. Separate your responses with a comma.",,y,8002,,,1760,6045,,,,"fire, dog toy",1
allison.dumler@hope.edu,k4q3a5ywnu,Affordances_Hope,1,30,2023-01-30T19:26:26+00:00,10.00331902504,12,"updated stim.csv",Version37.csv,"Version 37","List 37",mustard,,1104,5.8,1727,1105,BOI,-,-,"Please name all of the ways you could use this object. Keep in mind that one object can have many uses. Separate your responses with a comma.",,y,9284,,,1877,6954,,,,"hot dog, pretzels, salad",1
allison.dumler@hope.edu,k4q3a5ywnu,Affordances_Hope,1,31,2023-01-30T19:26:44+00:00,18.664853096008,12,"updated stim.csv",Version37.csv,"Version 37","List 37",lamplight,,1095,4.291666667,1456,1096,BOI,-,-,"Please name all of the ways you could use this object. Keep in mind that one object can have many uses. Separate your responses with a comma.",,y,18527,,,1872,15282,,,,"reading, studying, doing homework, looking for something",1
allison.dumler@hope.edu,k4q3a5ywnu,Affordances_Hope,1,32,2023-01-30T19:26:55+00:00,10.861420869827,12,"updated stim.csv",Version37.csv,"Version 37","List 37",handle,,1086,4.958333333,1239,1087,BOI,-,-,"Please name all of the ways you could use this object. Keep in mind that one object can have many uses. Separate your responses with a comma.",,y,10647,,,1628,9010,,,,"door, drawer, desk, car",1
allison.dumler@hope.edu,k4q3a5ywnu,Affordances_Hope,1,33,2023-01-30T19:27:01+00:00,6.1677529811859,12,"updated stim.csv",Version37.csv,"Version 37","List 37",jet,,1084,5.041666667,1383,1085,BOI,-,-,"Please name all of the ways you could use this object. Keep in mind that one object can have many uses. Separate your responses with a comma.",,y,6030,,,1973,5266,,,,"flying, traveling",1
allison.dumler@hope.edu,k4q3a5ywnu,Affordances_Hope,1,34,2023-01-30T19:27:14+00:00,13.047580003738,12,"updated stim.csv",Version37.csv,"Version 37","List 37",gear,,1083,4.695652174,1091,1084,BOI,-,-,"Please name all of the ways you could use this object. Keep in mind that one object can have many uses. Separate your responses with a comma.",,y,12747,,,1774,11891,,,,"soccer, football, baseball, school",1
allison.dumler@hope.edu,k4q3a5ywnu,Affordances_Hope,1,35,2023-01-30T19:27:28+00:00,13.403888940811,12,"updated stim.csv",Version37.csv,"Version 37","List 37",kneecap,,1092,5.714285714,1434,1093,BOI,-,-,"Please name all of the ways you could use this object. Keep in mind that one object can have many uses. Separate your responses with a comma.",,y,13263,,,3798,12476,,,,"surgery, sports, workout",1
allison.dumler@hope.edu,k4q3a5ywnu,Affordances_Hope,1,36,2023-01-30T19:27:32+00:00,4.2895860671997,12,"updated stim.csv",Version37.csv,"Version 37","List 37",vase,,1081,5.36,2838,1082,BOI,-,-,"Please name all of the ways you could use this object. Keep in mind that one object can have many uses. Separate your responses with a comma.",,y,4035,,,1492,2637,,,,flowers,1
allison.dumler@hope.edu,k4q3a5ywnu,Affordances_Hope,1,37,2023-01-30T19:27:44+00:00,12.289014101028,12,"updated stim.csv",Version37.csv,"Version 37","List 37",chair,,1110,6.88,485,1111,BOI,-,-,"Please name all of the ways you could use this object. Keep in mind that one object can have many uses. Separate your responses with a comma.",,y,12131,,,1638,11158,,,,"sitting, working, reaching",1
allison.dumler@hope.edu,k4q3a5ywnu,Affordances_Hope,1,38,2023-01-30T19:27:47+00:00,3.0541470050812,12,"updated stim.csv",Version37.csv,"Version 37","List 37",stereo,,1102,5.68,2531,1103,BOI,-,-,"Please name all of the ways you could use this object. Keep in mind that one object can have many uses. Separate your responses with a comma.",,y,2788,,,1513,2143,,,,music,1
allison.dumler@hope.edu,k4q3a5ywnu,Affordances_Hope,1,39,2023-01-30T19:27:59+00:00,11.438678026199,12,"updated stim.csv",Version37.csv,"Version 37","List 37",lid,,1107,5.428571429,1503,1108,BOI,-,-,"Please name all of the ways you could use this object. Keep in mind that one object can have many uses. Separate your responses with a comma.",,y,11245,,,1706,9360,,,,"cover container, food",1
allison.dumler@hope.edu,k4q3a5ywnu,Affordances_Hope,1,40,2023-01-30T19:28:01+00:00,2.2616498470306,12,"updated stim.csv",Version37.csv,"Version 37","List 37",rosary,,1082,5.791666667,2193,1083,BOI,-,-,"Please name all of the ways you could use this object. Keep in mind that one object can have many uses. Separate your responses with a comma.",,y,2006,,,-1,-1,,,,,1
allison.dumler@hope.edu,k4q3a5ywnu,Affordances_Hope,1,41,2023-01-30T19:28:03+00:00,2.0325591564178,12,"updated stim.csv",Version37.csv,"Version 37","List 37",,,,,,0,Instruct,,,"You will now be asked a few questions about your experience today.",,"Instruct 4",1793,,,-1,-1,,,,,1
