Username,ID,ExperimentName,Session,Trial,Date,TimeDif,"Condition Number","Stimuli File","Order File","Condition Description","Condition Notes",Stimuli*Cue,Stimuli*Answer,Stimuli*Shuffle,"Stimuli*Stimuli Notes",Stimuli*Value,Procedure*Item,"Procedure*Trial Type","Procedure*Max Time","Procedure*Min Time",Procedure*Text,"Procedure*Procedure Notes",Procedure*Shuffle,Response*RT,Response*Response,Response*Accuracy,Response*RTfirst,Response*RTlast,Response*strictAcc,Response*lenientAcc,Response*focus,Response*JOL,Response*Focus
lydia.deyoung@hope.edu,n2g34akk8u,Affordances_Hope,1,1,2022-10-10T18:07:54+00:00,21.972910881042,19,"updated stim.csv",Version44.csv,"Version 44","List 44",,,,,,0,Instruct,-,10,"In this section, you will be presented with a series of objects. Please name as many possible uses for this object as you can think of by typing them in the box below each object.",,Instruct1,21672,,,-1,-1,,,,,1
lydia.deyoung@hope.edu,n2g34akk8u,Affordances_Hope,1,2,2022-10-10T18:08:15+00:00,20.910952091217,19,"updated stim.csv",Version44.csv,"Version 44","List 44",,,,,,0,Instruct,-,10,"Please keep in mind that a single object will have more than one use. For example, a ball can be thrown or can be bounced or even stepped on. When listing multiple uses for one object, please separate each use with a comma (i.e., thrown, bounced, stepped on)",,Instruct2,20558,,,-1,-1,,,,,1
lydia.deyoung@hope.edu,n2g34akk8u,Affordances_Hope,1,3,2022-10-10T18:08:33+00:00,18.650377988815,19,"updated stim.csv",Version44.csv,"Version 44","List 44",,,,,,0,Instruct,-,-,"Before starting the experiment, you will complete a short practice sesstion. Press ENTER when you are ready to begin.",,Instruct3,18443,,,-1,-1,,,,,1
lydia.deyoung@hope.edu,n2g34akk8u,Affordances_Hope,1,4,2022-10-10T18:08:51+00:00,18.002757072449,19,"updated stim.csv",Version44.csv,"Version 44","List 44",spaghetti,,3003,6,2461,3004,BOI,-,-,"Please name all of the ways you could use this object. Keep in mind that one object can have many uses. Separate your responses with a comma.",,n,17782,,,5576,13831,,,,"make a craft, cook, eat ",1
lydia.deyoung@hope.edu,n2g34akk8u,Affordances_Hope,1,5,2022-10-10T18:09:30+00:00,38.755259037018,19,"updated stim.csv",Version44.csv,"Version 44","List 44",paperwork,,3001,5.625,1866,3002,BOI,-,-,"Please name all of the ways you could use this object. Keep in mind that one object can have many uses. Separate your responses with a comma.",,n,38398,,,13043,32796,,,,"school, office, communication, keeping records",1
lydia.deyoung@hope.edu,n2g34akk8u,Affordances_Hope,1,6,2022-10-10T18:10:24+00:00,54.179781913757,19,"updated stim.csv",Version44.csv,"Version 44","List 44",shortening,,3002,4.92,2358,3003,BOI,-,-,"Please name all of the ways you could use this object. Keep in mind that one object can have many uses. Separate your responses with a comma.",,n,53824,,,12592,52011,,,,"Baking, substitute for butter",1
lydia.deyoung@hope.edu,n2g34akk8u,Affordances_Hope,1,7,2022-10-10T18:11:03+00:00,38.480367898941,19,"updated stim.csv",Version44.csv,"Version 44","List 44",saucer,,3005,5.777777778,2249,3006,BOI,-,-,"Please name all of the ways you could use this object. Keep in mind that one object can have many uses. Separate your responses with a comma.",,n,38128,,,15927,37211,,,,"Hold small snacks or desserts, or hold a cup",1
lydia.deyoung@hope.edu,n2g34akk8u,Affordances_Hope,1,8,2022-10-10T18:11:35+00:00,32.573400974274,19,"updated stim.csv",Version44.csv,"Version 44","List 44",grain,,3004,5.217391304,1143,3005,BOI,-,-,"Please name all of the ways you could use this object. Keep in mind that one object can have many uses. Separate your responses with a comma.",,n,32217,,,3007,29602,,,,"make bread, use as decoration, use in cereal",1
lydia.deyoung@hope.edu,n2g34akk8u,Affordances_Hope,1,9,2022-10-10T18:11:38+00:00,2.3163990974426,19,"updated stim.csv",Version44.csv,"Version 44","List 44",,,,,,0,Instruct,-,-,"You have completed this section. Press ENTER to continue",,"Instruct 5",2112,,,-1,-1,,,,,1
lydia.deyoung@hope.edu,n2g34akk8u,Affordances_Hope,1,10,2022-10-10T18:11:41+00:00,3.3432021141052,19,"updated stim.csv",Version44.csv,"Version 44","List 44",,,,,,0,Instruct,-,-,"You will now start the full experiment. Press ENTER when you are ready to begin.",,,3148,,,-1,-1,,,,,1
lydia.deyoung@hope.edu,n2g34akk8u,Affordances_Hope,1,11,2022-10-10T18:12:25+00:00,44.069393873215,19,"updated stim.csv",Version44.csv,"Version 44","List 44",braid,,1318,5.64,301,1319,BOI,-,-,"Please name all of the ways you could use this object. Keep in mind that one object can have many uses. Separate your responses with a comma.",,y,43724,,,11708,42825,,,,"in hair, with string, making bread",1
lydia.deyoung@hope.edu,n2g34akk8u,Affordances_Hope,1,12,2022-10-10T18:13:06+00:00,40.605052947998,19,"updated stim.csv",Version44.csv,"Version 44","List 44",vodka,,1312,5.56,2872,1313,BOI,-,-,"Please name all of the ways you could use this object. Keep in mind that one object can have many uses. Separate your responses with a comma.",,y,40225,,,7978,23122,,,,"drinking, at a party, to bake, ",1
lydia.deyoung@hope.edu,n2g34akk8u,Affordances_Hope,1,13,2022-10-10T18:13:53+00:00,47.414617061615,19,"updated stim.csv",Version44.csv,"Version 44","List 44",handbag,,1293,6,1229,1294,BOI,-,-,"Please name all of the ways you could use this object. Keep in mind that one object can have many uses. Separate your responses with a comma.",,y,47064,,,7859,45982,,,,"going out, hold items, complete an outfit, show status ",1
lydia.deyoung@hope.edu,n2g34akk8u,Affordances_Hope,1,14,2022-10-10T18:14:27+00:00,33.450092077255,19,"updated stim.csv",Version44.csv,"Version 44","List 44",cabin,,1316,4.56,388,1317,BOI,-,-,"Please name all of the ways you could use this object. Keep in mind that one object can have many uses. Separate your responses with a comma.",,y,33102,,,2682,17709,,,,"a place to stay, cute photo background, ",1
lydia.deyoung@hope.edu,n2g34akk8u,Affordances_Hope,1,15,2022-10-10T18:14:55+00:00,28.751235961914,19,"updated stim.csv",Version44.csv,"Version 44","List 44",racehorse,,1292,5.208333333,2118,1293,BOI,-,-,"Please name all of the ways you could use this object. Keep in mind that one object can have many uses. Separate your responses with a comma.",,y,28411,,,8859,26466,,,,"use to race, make a bet on, and train ",1
lydia.deyoung@hope.edu,n2g34akk8u,Affordances_Hope,1,16,2022-10-10T18:15:56+00:00,60.554736852646,19,"updated stim.csv",Version44.csv,"Version 44","List 44",newsman,,1310,4.285714286,1759,1311,BOI,-,-,"Please name all of the ways you could use this object. Keep in mind that one object can have many uses. Separate your responses with a comma.",,y,60189,,,8848,57067,,,,"to gain knowledge, to watch for entertainment ",1
lydia.deyoung@hope.edu,n2g34akk8u,Affordances_Hope,1,17,2022-10-10T18:16:20+00:00,24.546643018723,19,"updated stim.csv",Version44.csv,"Version 44","List 44",pillar,,1299,5.041666667,1961,1300,BOI,-,-,"Please name all of the ways you could use this object. Keep in mind that one object can have many uses. Separate your responses with a comma.",,y,24037,,,8093,19761,,,,"use as a visual, to support a building ",1
lydia.deyoung@hope.edu,n2g34akk8u,Affordances_Hope,1,18,2022-10-10T18:16:39+00:00,19.083767175674,19,"updated stim.csv",Version44.csv,"Version 44","List 44",beer,,1309,5.791666667,192,1310,BOI,-,-,"Please name all of the ways you could use this object. Keep in mind that one object can have many uses. Separate your responses with a comma.",,y,18737,,,6157,16196,,,,"Drink, use at a party, use to bake",1
lydia.deyoung@hope.edu,n2g34akk8u,Affordances_Hope,1,19,2022-10-10T18:17:26+00:00,46.574733018875,19,"updated stim.csv",Version44.csv,"Version 44","List 44",barricade,,1319,4.28,155,1320,BOI,-,-,"Please name all of the ways you could use this object. Keep in mind that one object can have many uses. Separate your responses with a comma.",,y,46226,,,24635,45427,,,,"to protect people, to stop people, to close off an area",1
lydia.deyoung@hope.edu,n2g34akk8u,Affordances_Hope,1,20,2022-10-10T18:17:42+00:00,15.701483011246,19,"updated stim.csv",Version44.csv,"Version 44","List 44",caviar,,1307,4.818181818,468,1308,BOI,-,-,"Please name all of the ways you could use this object. Keep in mind that one object can have many uses. Separate your responses with a comma.",,y,15501,,,9993,14211,,,,"not sure what this means",1
lydia.deyoung@hope.edu,n2g34akk8u,Affordances_Hope,1,21,2022-10-10T18:18:07+00:00,24.86812376976,19,"updated stim.csv",Version44.csv,"Version 44","List 44",sauna,,1295,5.363636364,2251,1296,BOI,-,-,"Please name all of the ways you could use this object. Keep in mind that one object can have many uses. Separate your responses with a comma.",,y,24518,,,1795,21748,,,,"to relax, to warm up, as therapy ",1
lydia.deyoung@hope.edu,n2g34akk8u,Affordances_Hope,1,22,2022-10-10T18:18:40+00:00,33.342076063156,19,"updated stim.csv",Version44.csv,"Version 44","List 44",watermelon,,1291,5.869565217,2911,1292,BOI,-,-,"Please name all of the ways you could use this object. Keep in mind that one object can have many uses. Separate your responses with a comma.",,y,32977,,,7298,31993,,,,"to eat, as a dessert, put in a fruit salad, to grow in your garden ",1
lydia.deyoung@hope.edu,n2g34akk8u,Affordances_Hope,1,23,2022-10-10T18:18:51+00:00,11.521728038788,19,"updated stim.csv",Version44.csv,"Version 44","List 44",extinguisher,,1296,5.043478261,928,1297,BOI,-,-,"Please name all of the ways you could use this object. Keep in mind that one object can have many uses. Separate your responses with a comma.",,y,11313,,,3244,6161,,,,"put out a fire",1
lydia.deyoung@hope.edu,n2g34akk8u,Affordances_Hope,1,24,2022-10-10T18:19:23+00:00,31.567384958267,19,"updated stim.csv",Version44.csv,"Version 44","List 44",glassware,,1303,5.964285714,1113,1304,BOI,-,-,"Please name all of the ways you could use this object. Keep in mind that one object can have many uses. Separate your responses with a comma.",,y,30866,,,8047,29960,,,,"to contain liquids, to bake, to drink out of ",1
lydia.deyoung@hope.edu,n2g34akk8u,Affordances_Hope,1,25,2022-10-10T18:19:39+00:00,16.093960046768,19,"updated stim.csv",Version44.csv,"Version 44","List 44",headdress,,1305,5.541666667,1265,1306,BOI,-,-,"Please name all of the ways you could use this object. Keep in mind that one object can have many uses. Separate your responses with a comma.",,y,15699,,,8242,12694,,,,"to cover your hair",1
lydia.deyoung@hope.edu,n2g34akk8u,Affordances_Hope,1,26,2022-10-10T18:20:19+00:00,39.83917593956,19,"updated stim.csv",Version44.csv,"Version 44","List 44",cellophane,,1315,4.703703704,475,1316,BOI,-,-,"Please name all of the ways you could use this object. Keep in mind that one object can have many uses. Separate your responses with a comma.",,y,39479,,,5234,36834,,,,"to cover food, to contain items, to make a craft, ",1
lydia.deyoung@hope.edu,n2g34akk8u,Affordances_Hope,1,27,2022-10-10T18:20:33+00:00,14.520533084869,19,"updated stim.csv",Version44.csv,"Version 44","List 44",residence,,1304,4.333333333,2157,1305,BOI,-,-,"Please name all of the ways you could use this object. Keep in mind that one object can have many uses. Separate your responses with a comma.",,y,14310,,,8451,12322,,,,"show where you live",1
lydia.deyoung@hope.edu,n2g34akk8u,Affordances_Hope,1,28,2022-10-10T18:21:23+00:00,49.134499073029,19,"updated stim.csv",Version44.csv,"Version 44","List 44",compass,,1308,5.538461538,612,1309,BOI,-,-,"Please name all of the ways you could use this object. Keep in mind that one object can have many uses. Separate your responses with a comma.",,y,48059,,,10599,47112,,,,"to figure out direction, help when you get lost, substitute for a map",1
lydia.deyoung@hope.edu,n2g34akk8u,Affordances_Hope,1,29,2022-10-10T18:22:32+00:00,69.334014892578,19,"updated stim.csv",Version44.csv,"Version 44","List 44",cow,,1320,5.434782609,671,1321,BOI,-,-,"Please name all of the ways you could use this object. Keep in mind that one object can have many uses. Separate your responses with a comma.",,y,68769,,,3716,65270,,,,"as a pet, for milk, to reproduce cows, for meat, to sell for money, to make cheese",1
lydia.deyoung@hope.edu,n2g34akk8u,Affordances_Hope,1,30,2022-10-10T18:23:04+00:00,32.335942029953,19,"updated stim.csv",Version44.csv,"Version 44","List 44",yearbook,,1294,5.56,2992,1295,BOI,-,-,"Please name all of the ways you could use this object. Keep in mind that one object can have many uses. Separate your responses with a comma.",,y,31976,,,6047,30770,,,,"to find peoples names, to find peoples pictures, see who is in your grade, see who is in a school ",1
lydia.deyoung@hope.edu,n2g34akk8u,Affordances_Hope,1,31,2022-10-10T18:23:39+00:00,34.493338108063,19,"updated stim.csv",Version44.csv,"Version 44","List 44",oregano,,1302,5.64,1819,1303,BOI,-,-,"Please name all of the ways you could use this object. Keep in mind that one object can have many uses. Separate your responses with a comma.",,y,34140,,,2033,33423,,,,"to add flavor, to cook, add to pasta, add to a chicken dish, mostly used in cooking",1
lydia.deyoung@hope.edu,n2g34akk8u,Affordances_Hope,1,32,2022-10-10T18:25:29+00:00,110.38835096359,19,"updated stim.csv",Version44.csv,"Version 44","List 44",carpeting,,1297,5.115384615,438,1298,BOI,-,-,"Please name all of the ways you could use this object. Keep in mind that one object can have many uses. Separate your responses with a comma.",,y,110017,,,78473,108965,,,,"for comfort, cover the floor, for decoration",1
lydia.deyoung@hope.edu,n2g34akk8u,Affordances_Hope,1,33,2022-10-10T18:26:12+00:00,42.993350028992,19,"updated stim.csv",Version44.csv,"Version 44","List 44",pliers,,1300,6.086956522,2007,1301,BOI,-,-,"Please name all of the ways you could use this object. Keep in mind that one object can have many uses. Separate your responses with a comma.",,y,42624,,,7469,41756,,,,"to pull something apart, to close something, to manipulate metal or wires",1
lydia.deyoung@hope.edu,n2g34akk8u,Affordances_Hope,1,34,2022-10-10T18:27:03+00:00,50.646221876144,19,"updated stim.csv",Version44.csv,"Version 44","List 44",shortbread,,1314,5.416666667,2356,1315,BOI,-,-,"Please name all of the ways you could use this object. Keep in mind that one object can have many uses. Separate your responses with a comma.",,y,50276,,,7021,38425,,,,"to eat, to make a large meal, to put with strawberries, ",1
lydia.deyoung@hope.edu,n2g34akk8u,Affordances_Hope,1,35,2022-10-10T18:27:28+00:00,25.373204946518,19,"updated stim.csv",Version44.csv,"Version 44","List 44",cradle,,1306,5.652173913,678,1307,BOI,-,-,"Please name all of the ways you could use this object. Keep in mind that one object can have many uses. Separate your responses with a comma.",,y,24960,,,7649,23544,,,,"put a baby in, use for playing baby doll, for decoration",1
lydia.deyoung@hope.edu,n2g34akk8u,Affordances_Hope,1,36,2022-10-10T18:27:42+00:00,13.857972145081,19,"updated stim.csv",Version44.csv,"Version 44","List 44",lyre,,1317,4.45,1561,1318,BOI,-,-,"Please name all of the ways you could use this object. Keep in mind that one object can have many uses. Separate your responses with a comma.",,y,13645,,,5113,11554,,,,"to play music",1
lydia.deyoung@hope.edu,n2g34akk8u,Affordances_Hope,1,37,2022-10-10T18:28:03+00:00,20.807318925858,19,"updated stim.csv",Version44.csv,"Version 44","List 44",footstool,,1311,6.304347826,1039,1312,BOI,-,-,"Please name all of the ways you could use this object. Keep in mind that one object can have many uses. Separate your responses with a comma.",,y,20444,,,2290,19593,,,,"to rest your feet, to store stuff, for decoration",1
lydia.deyoung@hope.edu,n2g34akk8u,Affordances_Hope,1,38,2022-10-10T18:28:53+00:00,49.969614982605,19,"updated stim.csv",Version44.csv,"Version 44","List 44",divorcee,,1301,4.5,807,1302,BOI,-,-,"Please name all of the ways you could use this object. Keep in mind that one object can have many uses. Separate your responses with a comma.",,y,49619,,,47456,48652,,,,"not sure",1
lydia.deyoung@hope.edu,n2g34akk8u,Affordances_Hope,1,39,2022-10-10T18:29:22+00:00,29.362458944321,19,"updated stim.csv",Version44.csv,"Version 44","List 44",porch,,1313,4.44,2036,1314,BOI,-,-,"Please name all of the ways you could use this object. Keep in mind that one object can have many uses. Separate your responses with a comma.",,y,29007,,,3231,28145,,,,"to decorate, to help get up to the house, to put furniture on ",1
lydia.deyoung@hope.edu,n2g34akk8u,Affordances_Hope,1,40,2022-10-10T18:30:05+00:00,42.374260187149,19,"updated stim.csv",Version44.csv,"Version 44","List 44",pepper,,1298,5.875,1921,1299,BOI,-,-,"Please name all of the ways you could use this object. Keep in mind that one object can have many uses. Separate your responses with a comma.",,y,42011,,,6158,41159,,,,"to use in cooking, to grow in a garden, put in salsa, use to add flavor in a meal",1
lydia.deyoung@hope.edu,n2g34akk8u,Affordances_Hope,1,41,2022-10-10T18:30:08+00:00,3.6692569255829,19,"updated stim.csv",Version44.csv,"Version 44","List 44",,,,,,0,Instruct,,,"You will now be asked a few questions about your experience today.",,"Instruct 4",3465,,,-1,-1,,,,,1
