Username,ID,ExperimentName,Session,Trial,Date,TimeDif,"Condition Number","Stimuli File","Order File","Condition Description","Condition Notes",Stimuli*Cue,Stimuli*Answer,Stimuli*Shuffle,"Stimuli*Stimuli Notes",Stimuli*Value,Procedure*Item,"Procedure*Trial Type","Procedure*Max Time","Procedure*Min Time",Procedure*Text,"Procedure*Procedure Notes",Procedure*Shuffle,Response*RT,Response*Response,Response*Accuracy,Response*RTfirst,Response*RTlast,Response*strictAcc,Response*lenientAcc,Response*focus,Response*JOL,Response*Focus
canyon.mannikko@hope.edu,c7h22pbxsb,Affordances_Hope,1,1,2023-01-16T03:10:03+00:00,11.595938920975,21,"updated stim.csv",Version46.csv,"Version 46","List 46",,,,,,0,Instruct,-,10,"In this section, you will be presented with a series of objects. Please name as many possible uses for this object as you can think of by typing them in the box below each object.",,Instruct1,11325,,,-1,-1,,,,,1
canyon.mannikko@hope.edu,c7h22pbxsb,Affordances_Hope,1,2,2023-01-16T03:10:14+00:00,11.351265907288,21,"updated stim.csv",Version46.csv,"Version 46","List 46",,,,,,0,Instruct,-,10,"Please keep in mind that a single object will have more than one use. For example, a ball can be thrown or can be bounced or even stepped on. When listing multiple uses for one object, please separate each use with a comma (i.e., thrown, bounced, stepped on)",,Instruct2,10994,,,-1,-1,,,,,1
canyon.mannikko@hope.edu,c7h22pbxsb,Affordances_Hope,1,3,2023-01-16T03:10:18+00:00,3.9777691364288,21,"updated stim.csv",Version46.csv,"Version 46","List 46",,,,,,0,Instruct,-,-,"Before starting the experiment, you will complete a short practice sesstion. Press ENTER when you are ready to begin.",,Instruct3,3758,,,-1,-1,,,,,1
canyon.mannikko@hope.edu,c7h22pbxsb,Affordances_Hope,1,4,2023-01-16T03:11:19+00:00,61.257949829102,21,"updated stim.csv",Version46.csv,"Version 46","List 46",grain,,3004,5.217391304,1143,3005,BOI,-,-,"Please name all of the ways you could use this object. Keep in mind that one object can have many uses. Separate your responses with a comma.",,n,60907,,,12568,45894,,,,"Picked up, thrown, sieved/sifted, cooked (grain of rice), ",1
canyon.mannikko@hope.edu,c7h22pbxsb,Affordances_Hope,1,5,2023-01-16T03:12:21+00:00,61.934606075287,21,"updated stim.csv",Version46.csv,"Version 46","List 46",saucer,,3005,5.777777778,2249,3006,BOI,-,-,"Please name all of the ways you could use this object. Keep in mind that one object can have many uses. Separate your responses with a comma.",,n,61554,,,9534,41894,,,,"Placed on a table, thrown, picked up, used as a coaster, smashed, ",1
canyon.mannikko@hope.edu,c7h22pbxsb,Affordances_Hope,1,6,2023-01-16T03:15:02+00:00,160.31534600258,21,"updated stim.csv",Version46.csv,"Version 46","List 46",paperwork,,3001,5.625,1866,3002,BOI,-,-,"Please name all of the ways you could use this object. Keep in mind that one object can have many uses. Separate your responses with a comma.",,n,159909,,,7689,146504,,,,"File, crumpled, thrown (away), stapled, burned, shredded, picked up, soaked in a liquid, torn, cut, written on, paper clipped together, ",1
canyon.mannikko@hope.edu,c7h22pbxsb,Affordances_Hope,1,7,2023-01-16T03:15:54+00:00,52.444355010986,21,"updated stim.csv",Version46.csv,"Version 46","List 46",spaghetti,,3003,6,2461,3004,BOI,-,-,"Please name all of the ways you could use this object. Keep in mind that one object can have many uses. Separate your responses with a comma.",,n,52056,,,2637,51124,,,,"Cooked, eaten, picked up, thrown, made into art, picked up",1
canyon.mannikko@hope.edu,c7h22pbxsb,Affordances_Hope,1,8,2023-01-16T03:16:06+00:00,11.765396118164,21,"updated stim.csv",Version46.csv,"Version 46","List 46",shortening,,3002,4.92,2358,3003,BOI,-,-,"Please name all of the ways you could use this object. Keep in mind that one object can have many uses. Separate your responses with a comma.",,n,11396,,,2658,10093,,,,"Spread, picked up, thrown",1
canyon.mannikko@hope.edu,c7h22pbxsb,Affordances_Hope,1,9,2023-01-16T03:16:10+00:00,3.8126749992371,21,"updated stim.csv",Version46.csv,"Version 46","List 46",,,,,,0,Instruct,-,-,"You have completed this section. Press ENTER to continue",,"Instruct 5",3606,,,-1,-1,,,,,1
canyon.mannikko@hope.edu,c7h22pbxsb,Affordances_Hope,1,10,2023-01-16T03:16:20+00:00,10.61044883728,21,"updated stim.csv",Version46.csv,"Version 46","List 46",,,,,,0,Instruct,-,-,"You will now start the full experiment. Press ENTER when you are ready to begin.",,,10281,,,-1,-1,,,,,1
canyon.mannikko@hope.edu,c7h22pbxsb,Affordances_Hope,1,11,2023-01-16T03:17:52+00:00,91.965234994888,21,"updated stim.csv",Version46.csv,"Version 46","List 46",quarter,,1366,5.333333333,2110,1367,BOI,-,-,"Please name all of the ways you could use this object. Keep in mind that one object can have many uses. Separate your responses with a comma.",,y,91541,,,2824,83618,,,,"Spent, thrown, picked up, used in a gum ball machine (or other quarter machine), melted down for copper and nickel, ",0.934
canyon.mannikko@hope.edu,c7h22pbxsb,Affordances_Hope,1,12,2023-01-16T03:18:25+00:00,32.996922016144,21,"updated stim.csv",Version46.csv,"Version 46","List 46",antenna,,1353,4.695652174,46,1354,BOI,-,-,"Please name all of the ways you could use this object. Keep in mind that one object can have many uses. Separate your responses with a comma.",,y,32591,,,2453,16225,,,,"Setup for TV channel access, picked up, thrown, ",1
canyon.mannikko@hope.edu,c7h22pbxsb,Affordances_Hope,1,13,2023-01-16T03:19:07+00:00,41.24445605278,21,"updated stim.csv",Version46.csv,"Version 46","List 46",scratches,,1363,4.4,2284,1364,BOI,-,-,"Please name all of the ways you could use this object. Keep in mind that one object can have many uses. Separate your responses with a comma.",,y,40893,,,8351,24726,,,,"Scratched, spent, picked up, thrown (away), ",1
canyon.mannikko@hope.edu,c7h22pbxsb,Affordances_Hope,1,14,2023-01-16T03:19:52+00:00,45.297276973724,21,"updated stim.csv",Version46.csv,"Version 46","List 46",vitamin,,1357,5.2,2869,1358,BOI,-,-,"Please name all of the ways you could use this object. Keep in mind that one object can have many uses. Separate your responses with a comma.",,y,44906,,,18166,34266,,,,"Made into a pill or other supplement, taken as a supplement, ",0.956
canyon.mannikko@hope.edu,c7h22pbxsb,Affordances_Hope,1,15,2023-01-16T03:20:20+00:00,27.957607984543,21,"updated stim.csv",Version46.csv,"Version 46","List 46",diner,,1358,4.375,794,1359,BOI,-,-,"Please name all of the ways you could use this object. Keep in mind that one object can have many uses. Separate your responses with a comma.",,y,27554,,,2368,26495,,,,"Built, destroyed, eaten in, repurposed for a new establishment, ",1
canyon.mannikko@hope.edu,c7h22pbxsb,Affordances_Hope,1,16,2023-01-16T03:20:46+00:00,26.204919099808,21,"updated stim.csv",Version46.csv,"Version 46","List 46",remote,,1351,4.357142857,2154,1352,BOI,-,-,"Please name all of the ways you could use this object. Keep in mind that one object can have many uses. Separate your responses with a comma.",,y,25789,,,2715,20647,,,,"Picked up, thrown, turn on the TV, ",1
canyon.mannikko@hope.edu,c7h22pbxsb,Affordances_Hope,1,17,2023-01-16T03:21:39+00:00,52.667567014694,21,"updated stim.csv",Version46.csv,"Version 46","List 46",drainpipe,,1364,4.875,837,1365,BOI,-,-,"Please name all of the ways you could use this object. Keep in mind that one object can have many uses. Separate your responses with a comma.",,y,52303,,,4774,36453,,,,"Picked up, installed, drains rain, diy projects (like a potato cannon), ",1
canyon.mannikko@hope.edu,c7h22pbxsb,Affordances_Hope,1,18,2023-01-16T03:23:02+00:00,83.115208864212,21,"updated stim.csv",Version46.csv,"Version 46","List 46",arachnid,,1368,4.904761905,69,1369,BOI,-,-,"Please name all of the ways you could use this object. Keep in mind that one object can have many uses. Separate your responses with a comma.",,y,82730,,,2529,81749,,,,"Picked up, thrown, killed, used for anti venom, kept as a pet, for a prank, ",0.898
canyon.mannikko@hope.edu,c7h22pbxsb,Affordances_Hope,1,19,2023-01-16T03:23:12+00:00,9.9312610626221,21,"updated stim.csv",Version46.csv,"Version 46","List 46",washbowl,,1374,5.692307692,2897,1375,BOI,-,-,"Please name all of the ways you could use this object. Keep in mind that one object can have many uses. Separate your responses with a comma.",,y,9540,,,3988,9242,,,,"To wash things,",1
canyon.mannikko@hope.edu,c7h22pbxsb,Affordances_Hope,1,20,2023-01-16T03:23:21+00:00,9.2051110267639,21,"updated stim.csv",Version46.csv,"Version 46","List 46",flute,,1367,5.75,1019,1368,BOI,-,-,"Please name all of the ways you could use this object. Keep in mind that one object can have many uses. Separate your responses with a comma.",,y,8863,,,3064,6350,,,,"Picked up, played, ",1
canyon.mannikko@hope.edu,c7h22pbxsb,Affordances_Hope,1,21,2023-01-16T03:23:36+00:00,14.863343000412,21,"updated stim.csv",Version46.csv,"Version 46","List 46",broth,,1360,5.321428571,334,1361,BOI,-,-,"Please name all of the ways you could use this object. Keep in mind that one object can have many uses. Separate your responses with a comma.",,y,14495,,,1844,12117,,,,"Cooked, eaten, picked up (in a bowl)",1
canyon.mannikko@hope.edu,c7h22pbxsb,Affordances_Hope,1,22,2023-01-16T03:23:58+00:00,22.297430038452,21,"updated stim.csv",Version46.csv,"Version 46","List 46",interviewer,,1356,4.75,1365,1357,BOI,-,-,"Please name all of the ways you could use this object. Keep in mind that one object can have many uses. Separate your responses with a comma.",,y,21934,,,3760,20232,,,,"To interview, picked up, talked to, ",1
canyon.mannikko@hope.edu,c7h22pbxsb,Affordances_Hope,1,23,2023-01-16T03:24:56+00:00,57.878726959229,21,"updated stim.csv",Version46.csv,"Version 46","List 46",handclasp,,1376,4.681818182,1235,1377,BOI,-,-,"Please name all of the ways you could use this object. Keep in mind that one object can have many uses. Separate your responses with a comma.",,y,57362,,,33203,56618,,,,"To shake, to pick up, to pull someone up, ",0.955
canyon.mannikko@hope.edu,c7h22pbxsb,Affordances_Hope,1,24,2023-01-16T03:25:11+00:00,15.103945016861,21,"updated stim.csv",Version46.csv,"Version 46","List 46",mixer,,1359,5,1672,1360,BOI,-,-,"Please name all of the ways you could use this object. Keep in mind that one object can have many uses. Separate your responses with a comma.",,y,14649,,,1944,10926,,,,"To mix or blend, picked up, thrown, ",1
canyon.mannikko@hope.edu,c7h22pbxsb,Affordances_Hope,1,25,2023-01-16T03:25:35+00:00,23.608777999878,21,"updated stim.csv",Version46.csv,"Version 46","List 46",cornbread,,1371,5.16,645,1372,BOI,-,-,"Please name all of the ways you could use this object. Keep in mind that one object can have many uses. Separate your responses with a comma.",,y,23207,,,2125,19395,,,,"Eaten, picked up, thrown,",1
canyon.mannikko@hope.edu,c7h22pbxsb,Affordances_Hope,1,26,2023-01-16T03:26:37+00:00,62.339387893677,21,"updated stim.csv",Version46.csv,"Version 46","List 46",paper,,1375,5.695652174,1862,1376,BOI,-,-,"Please name all of the ways you could use this object. Keep in mind that one object can have many uses. Separate your responses with a comma.",,y,61976,,,2834,60889,,,,"Ripped, torn, shredded, burned, stapled, filed, folded, written on, picked up, made into a book, ",1
canyon.mannikko@hope.edu,c7h22pbxsb,Affordances_Hope,1,27,2023-01-16T03:26:45+00:00,7.5445830821991,21,"updated stim.csv",Version46.csv,"Version 46","List 46",gardener,,1361,4.958333333,1077,1362,BOI,-,-,"Please name all of the ways you could use this object. Keep in mind that one object can have many uses. Separate your responses with a comma.",,y,7197,,,3268,5078,,,,"To garden, ",1
canyon.mannikko@hope.edu,c7h22pbxsb,Affordances_Hope,1,28,2023-01-16T03:27:21+00:00,36.027181863785,21,"updated stim.csv",Version46.csv,"Version 46","List 46",southerner,,1380,5.045454545,2456,1381,BOI,-,-,"Please name all of the ways you could use this object. Keep in mind that one object can have many uses. Separate your responses with a comma.",,y,35684,,,3560,32346,,,,"Picked up, thrown (I am a southerner), talked to, ",1
canyon.mannikko@hope.edu,c7h22pbxsb,Affordances_Hope,1,29,2023-01-16T03:27:58+00:00,37.696281194687,21,"updated stim.csv",Version46.csv,"Version 46","List 46",saleswoman,,1362,4.608695652,2223,1363,BOI,-,-,"Please name all of the ways you could use this object. Keep in mind that one object can have many uses. Separate your responses with a comma.",,y,37349,,,2986,19870,,,,"Talked to, made business with, ",1
canyon.mannikko@hope.edu,c7h22pbxsb,Affordances_Hope,1,30,2023-01-16T03:28:47+00:00,48.883881807327,21,"updated stim.csv",Version46.csv,"Version 46","List 46",muscle,,1354,5.12,1721,1355,BOI,-,-,"Please name all of the ways you could use this object. Keep in mind that one object can have many uses. Separate your responses with a comma.",,y,48535,,,2726,47640,,,,"Torn, healed, to pick up other things, to move something, ",1
canyon.mannikko@hope.edu,c7h22pbxsb,Affordances_Hope,1,31,2023-01-16T03:29:19+00:00,31.639715194702,21,"updated stim.csv",Version46.csv,"Version 46","List 46",footpad,,1370,5.041666667,1036,1371,BOI,-,-,"Please name all of the ways you could use this object. Keep in mind that one object can have many uses. Separate your responses with a comma.",,y,31272,,,-1,-1,,,,,0.871
canyon.mannikko@hope.edu,c7h22pbxsb,Affordances_Hope,1,32,2023-01-16T03:29:37+00:00,18.643187999725,21,"updated stim.csv",Version46.csv,"Version 46","List 46",pump,,1365,4.347826087,2096,1366,BOI,-,-,"Please name all of the ways you could use this object. Keep in mind that one object can have many uses. Separate your responses with a comma.",,y,18240,,,1836,15433,,,,"Pumped, picked up(?), ",1
canyon.mannikko@hope.edu,c7h22pbxsb,Affordances_Hope,1,33,2023-01-16T03:30:19+00:00,41.677047014236,21,"updated stim.csv",Version46.csv,"Version 46","List 46",mistress,,1377,5,1669,1378,BOI,-,-,"Please name all of the ways you could use this object. Keep in mind that one object can have many uses. Separate your responses with a comma.",,y,41301,,,2033,29765,,,,"Picked up, talked to, made love with, kissed, ",1
canyon.mannikko@hope.edu,c7h22pbxsb,Affordances_Hope,1,34,2023-01-16T03:30:57+00:00,37.569837808609,21,"updated stim.csv",Version46.csv,"Version 46","List 46",sword,,1355,5.461538462,2611,1356,BOI,-,-,"Please name all of the ways you could use this object. Keep in mind that one object can have many uses. Separate your responses with a comma.",,y,37208,,,2909,27883,,,,"Picked up, thrown, slashed with, stabbed with, swung, ",1
canyon.mannikko@hope.edu,c7h22pbxsb,Affordances_Hope,1,35,2023-01-16T03:32:08+00:00,71.071636199951,21,"updated stim.csv",Version46.csv,"Version 46","List 46",bouquet,,1352,4.909090909,289,1353,BOI,-,-,"Please name all of the ways you could use this object. Keep in mind that one object can have many uses. Separate your responses with a comma.",,y,70706,,,2065,69858,,,,"Picked up, thrown, carried, smelled, gifted, bought, ",0.976
canyon.mannikko@hope.edu,c7h22pbxsb,Affordances_Hope,1,36,2023-01-16T03:32:30+00:00,21.97637796402,21,"updated stim.csv",Version46.csv,"Version 46","List 46",treasure,,1369,4.666666667,2770,1370,BOI,-,-,"Please name all of the ways you could use this object. Keep in mind that one object can have many uses. Separate your responses with a comma.",,y,21553,,,4078,16935,,,,"Buried, picked up, stolen, hidden, ",1
canyon.mannikko@hope.edu,c7h22pbxsb,Affordances_Hope,1,37,2023-01-16T03:33:33+00:00,63.15044093132,21,"updated stim.csv",Version46.csv,"Version 46","List 46",boyfriend,,1373,6.310344828,297,1374,BOI,-,-,"Please name all of the ways you could use this object. Keep in mind that one object can have many uses. Separate your responses with a comma.",,y,62768,,,3284,58299,,,,"picked up, Made love with, kissed, hugged, hold hands with, talked to, cheated on, dated, ",1
canyon.mannikko@hope.edu,c7h22pbxsb,Affordances_Hope,1,38,2023-01-16T03:33:41+00:00,8.1353180408478,21,"updated stim.csv",Version46.csv,"Version 46","List 46",chairman,,1372,4.965517241,486,1373,BOI,-,-,"Please name all of the ways you could use this object. Keep in mind that one object can have many uses. Separate your responses with a comma.",,y,7771,,,2037,4203,,,,"Talked to, ",1
canyon.mannikko@hope.edu,c7h22pbxsb,Affordances_Hope,1,39,2023-01-16T03:33:52+00:00,10.662966012955,21,"updated stim.csv",Version46.csv,"Version 46","List 46",golfer,,1379,4.583333333,1136,1380,BOI,-,-,"Please name all of the ways you could use this object. Keep in mind that one object can have many uses. Separate your responses with a comma.",,y,10323,,,2064,7054,,,,"Talked to, played with, ",1
canyon.mannikko@hope.edu,c7h22pbxsb,Affordances_Hope,1,40,2023-01-16T03:34:12+00:00,19.991004943848,21,"updated stim.csv",Version46.csv,"Version 46","List 46",pompom,,1378,5.16,2027,1379,BOI,-,-,"Please name all of the ways you could use this object. Keep in mind that one object can have many uses. Separate your responses with a comma.",,y,19646,,,1899,12483,,,,"Picked up, thrown, shaken, ",1
canyon.mannikko@hope.edu,c7h22pbxsb,Affordances_Hope,1,41,2023-01-16T03:34:16+00:00,4.7884860038757,21,"updated stim.csv",Version46.csv,"Version 46","List 46",,,,,,0,Instruct,,,"You will now be asked a few questions about your experience today.",,"Instruct 4",4417,,,-1,-1,,,,,1
