Username,ID,ExperimentName,Session,Trial,Date,TimeDif,"Condition Number","Stimuli File","Order File","Condition Description","Condition Notes",Stimuli*Cue,Stimuli*Answer,Stimuli*Shuffle,"Stimuli*Stimuli Notes",Stimuli*Value,Procedure*Item,"Procedure*Trial Type","Procedure*Max Time","Procedure*Min Time",Procedure*Text,"Procedure*Procedure Notes",Procedure*Shuffle,Response*RT,Response*Response,Response*Accuracy,Response*RTfirst,Response*RTlast,Response*strictAcc,Response*lenientAcc,Response*focus,Response*JOL,Response*Focus
SL1979,si4kx4az2g,"Affordance Norms_ILSTU",1,1,2022-09-25T19:01:19+00:00,12.294949054718,15,"updated stim.csv",Version15.csv,"Version 15","List 15",,,,,,0,Instruct,-,10,"In this section, you will be presented with a series of objects. Please name as many possible uses for this object as you can think of by typing them in the box below each object.",,Instruct1,12192,,,-1,-1,,,,,1
SL1979,si4kx4az2g,"Affordance Norms_ILSTU",1,2,2022-09-25T19:01:30+00:00,11.289268016815,15,"updated stim.csv",Version15.csv,"Version 15","List 15",,,,,,0,Instruct,-,10,"Please keep in mind that a single object will have more than one use. For example, a ball can be thrown or can be bounced or even stepped on. When listing multiple uses for one object, please separate each use with a comma (i.e., thrown, bounced, stepped on)",,Instruct2,11122,,,-1,-1,,,,,1
SL1979,si4kx4az2g,"Affordance Norms_ILSTU",1,3,2022-09-25T19:01:33+00:00,2.8321368694305,15,"updated stim.csv",Version15.csv,"Version 15","List 15",,,,,,0,Instruct,-,-,"Before starting the experiment, you will complete a short practice sesstion. Press ENTER when you are ready to begin.",,Instruct3,2655,,,-1,-1,,,,,1
SL1979,si4kx4az2g,"Affordance Norms_ILSTU",1,4,2022-09-25T19:02:14+00:00,40.772263050079,15,"updated stim.csv",Version15.csv,"Version 15","List 15",paperwork,,3001,5.625,1866,3002,BOI,-,-,"Please name all of the ways you could use this object. Keep in mind that one object can have many uses. Separate your responses with a comma.",,n,40471,,,6102,37040,,,,"shredded, thrown away, reference, mail, information, residence, age, medication",1
SL1979,si4kx4az2g,"Affordance Norms_ILSTU",1,5,2022-09-25T19:02:26+00:00,12.956794023514,15,"updated stim.csv",Version15.csv,"Version 15","List 15",shortening,,3002,4.92,2358,3003,BOI,-,-,"Please name all of the ways you could use this object. Keep in mind that one object can have many uses. Separate your responses with a comma.",,n,12781,,,1980,11531,,,,"baking, cooking, fat",1
SL1979,si4kx4az2g,"Affordance Norms_ILSTU",1,6,2022-09-25T19:02:48+00:00,21.527249097824,15,"updated stim.csv",Version15.csv,"Version 15","List 15",saucer,,3005,5.777777778,2249,3006,BOI,-,-,"Please name all of the ways you could use this object. Keep in mind that one object can have many uses. Separate your responses with a comma.",,n,21223,,,2724,18886,,,,"cooking, washing, boiling, broiling, seasoning, frying",1
SL1979,si4kx4az2g,"Affordance Norms_ILSTU",1,7,2022-09-25T19:03:09+00:00,20.880841016769,15,"updated stim.csv",Version15.csv,"Version 15","List 15",grain,,3004,5.217391304,1143,3005,BOI,-,-,"Please name all of the ways you could use this object. Keep in mind that one object can have many uses. Separate your responses with a comma.",,n,20581,,,3168,19299,,,,"feeding animals, bread, wheat, cooking",1
SL1979,si4kx4az2g,"Affordance Norms_ILSTU",1,8,2022-09-25T19:03:19+00:00,10.188784837723,15,"updated stim.csv",Version15.csv,"Version 15","List 15",spaghetti,,3003,6,2461,3004,BOI,-,-,"Please name all of the ways you could use this object. Keep in mind that one object can have many uses. Separate your responses with a comma.",,n,10016,,,3536,9742,,,,"eating, boiling, marinating in sauce",1
SL1979,si4kx4az2g,"Affordance Norms_ILSTU",1,9,2022-09-25T19:03:21+00:00,1.739856004715,15,"updated stim.csv",Version15.csv,"Version 15","List 15",,,,,,0,Instruct,-,-,"You have completed this section. Press ENTER to continue",,"Instruct 5",1560,,,-1,-1,,,,,1
SL1979,si4kx4az2g,"Affordance Norms_ILSTU",1,10,2022-09-25T19:03:22+00:00,1.5250661373138,15,"updated stim.csv",Version15.csv,"Version 15","List 15",,,,,,0,Instruct,-,-,"You will now start the full experiment. Press ENTER when you are ready to begin.",,,1335,,,-1,-1,,,,,1
SL1979,si4kx4az2g,"Affordance Norms_ILSTU",1,11,2022-09-25T19:04:08+00:00,45.294281959534,15,"updated stim.csv",Version15.csv,"Version 15","List 15",money,,425,6.291666667,1677,426,BOI,-,-,"Please name all of the ways you could use this object. Keep in mind that one object can have many uses. Separate your responses with a comma.",,y,44981,,,2321,44025,,,,"shopping, paying bills, supporting yourself, buying things",1
SL1979,si4kx4az2g,"Affordance Norms_ILSTU",1,12,2022-09-25T19:04:16+00:00,8.5684959888458,15,"updated stim.csv",Version15.csv,"Version 15","List 15",refrigerator,,435,5.851851852,2152,436,BOI,-,-,"Please name all of the ways you could use this object. Keep in mind that one object can have many uses. Separate your responses with a comma.",,y,8385,,,2206,5125,,,,"keeping things cold",1
SL1979,si4kx4az2g,"Affordance Norms_ILSTU",1,13,2022-09-25T19:04:21+00:00,4.7916359901428,15,"updated stim.csv",Version15.csv,"Version 15","List 15",teapot,,450,6.2,2649,451,BOI,-,-,"Please name all of the ways you could use this object. Keep in mind that one object can have many uses. Separate your responses with a comma.",,y,4617,,,1543,3613,,,,"boiling water",1
SL1979,si4kx4az2g,"Affordance Norms_ILSTU",1,14,2022-09-25T19:04:38+00:00,16.953445911407,15,"updated stim.csv",Version15.csv,"Version 15","List 15",trapeze,,428,4.958333333,2763,429,BOI,-,-,"Please name all of the ways you could use this object. Keep in mind that one object can have many uses. Separate your responses with a comma.",,y,16651,,,1802,14231,,,,"swinging, flipping, getting from one place to another, falling, swinging",1
SL1979,si4kx4az2g,"Affordance Norms_ILSTU",1,15,2022-09-25T19:04:49+00:00,11.241762161255,15,"updated stim.csv",Version15.csv,"Version 15","List 15",pooch,,446,5.045454545,2031,447,BOI,-,-,"Please name all of the ways you could use this object. Keep in mind that one object can have many uses. Separate your responses with a comma.",,y,11072,,,7028,9921,,,,"carrying fat",1
SL1979,si4kx4az2g,"Affordance Norms_ILSTU",1,16,2022-09-25T19:04:54+00:00,4.6735467910767,15,"updated stim.csv",Version15.csv,"Version 15","List 15",slut,,433,4.652173913,2420,434,BOI,-,-,"Please name all of the ways you could use this object. Keep in mind that one object can have many uses. Separate your responses with a comma.",,y,4497,,,-1,-1,,,,,1
SL1979,si4kx4az2g,"Affordance Norms_ILSTU",1,17,2022-09-25T19:05:21+00:00,27.59202003479,15,"updated stim.csv",Version15.csv,"Version 15","List 15",corridor,,441,4.5,651,442,BOI,-,-,"Please name all of the ways you could use this object. Keep in mind that one object can have many uses. Separate your responses with a comma.",,y,27289,,,1806,26165,,,,"walking, skipping, frolicking, dancing, singing, standing, falling, getting work done, waiting",1
SL1979,si4kx4az2g,"Affordance Norms_ILSTU",1,18,2022-09-25T19:06:22+00:00,61.006525993347,15,"updated stim.csv",Version15.csv,"Version 15","List 15",apartment,,431,4.6,55,432,BOI,-,-,"Please name all of the ways you could use this object. Keep in mind that one object can have many uses. Separate your responses with a comma.",,y,60711,,,2337,59070,,,,"living, hosting, sleeping, waking, cooking, baking, dancing, showering, singing, relaxing, being productive, sitting, standing, eating, drinking",1
SL1979,si4kx4az2g,"Affordance Norms_ILSTU",1,19,2022-09-25T19:06:38+00:00,15.766355991364,15,"updated stim.csv",Version15.csv,"Version 15","List 15",sundeck,,421,4.5,2586,422,BOI,-,-,"Please name all of the ways you could use this object. Keep in mind that one object can have many uses. Separate your responses with a comma.",,y,15588,,,1819,14619,,,,"tanning, basking, relaxing, eating, drinking",1
SL1979,si4kx4az2g,"Affordance Norms_ILSTU",1,20,2022-09-25T19:06:54+00:00,15.6685090065,15,"updated stim.csv",Version15.csv,"Version 15","List 15",cake,,440,6.086956522,399,441,BOI,-,-,"Please name all of the ways you could use this object. Keep in mind that one object can have many uses. Separate your responses with a comma.",,y,15488,,,1635,14544,,,,"eat, smash, bake, buy",1
SL1979,si4kx4az2g,"Affordance Norms_ILSTU",1,21,2022-09-25T19:07:10+00:00,15.915552139282,15,"updated stim.csv",Version15.csv,"Version 15","List 15",investigator,,422,4.888888889,1367,423,BOI,-,-,"Please name all of the ways you could use this object. Keep in mind that one object can have many uses. Separate your responses with a comma.",,y,15738,,,5352,14757,,,,"to solve a problem, settle a disput",1
SL1979,si4kx4az2g,"Affordance Norms_ILSTU",1,22,2022-09-25T19:07:20+00:00,10.066565036774,15,"updated stim.csv",Version15.csv,"Version 15","List 15",restaurant,,434,5.275862069,2159,435,BOI,-,-,"Please name all of the ways you could use this object. Keep in mind that one object can have many uses. Separate your responses with a comma.",,y,9889,,,2118,7594,,,,"eat, hang out, pay, relax",1
SL1979,si4kx4az2g,"Affordance Norms_ILSTU",1,23,2022-09-25T19:07:38+00:00,17.887888908386,15,"updated stim.csv",Version15.csv,"Version 15","List 15",parachutist,,437,4.6,1869,438,BOI,-,-,"Please name all of the ways you could use this object. Keep in mind that one object can have many uses. Separate your responses with a comma.",,y,17709,,,5932,17261,,,,"fall from heights, save you from something",1
SL1979,si4kx4az2g,"Affordance Norms_ILSTU",1,24,2022-09-25T19:07:55+00:00,16.925762891769,15,"updated stim.csv",Version15.csv,"Version 15","List 15",claw,,423,4.391304348,550,424,BOI,-,-,"Please name all of the ways you could use this object. Keep in mind that one object can have many uses. Separate your responses with a comma.",,y,16749,,,4111,16014,,,,"win you prices, tear open things, climb, grip",1
SL1979,si4kx4az2g,"Affordance Norms_ILSTU",1,25,2022-09-25T19:08:24+00:00,29.075812101364,15,"updated stim.csv",Version15.csv,"Version 15","List 15",rod,,438,4.454545455,2185,439,BOI,-,-,"Please name all of the ways you could use this object. Keep in mind that one object can have many uses. Separate your responses with a comma.",,y,28779,,,2930,28620,,,,"support your back, hang up curtains, support structure, hold things",1
SL1979,si4kx4az2g,"Affordance Norms_ILSTU",1,26,2022-09-25T19:08:36+00:00,12.686810970306,15,"updated stim.csv",Version15.csv,"Version 15","List 15",flounder,,432,4.52173913,1013,433,BOI,-,-,"Please name all of the ways you could use this object. Keep in mind that one object can have many uses. Separate your responses with a comma.",,y,12510,,,1952,12370,,,,"support ecosystem, eat, follow",1
SL1979,si4kx4az2g,"Affordance Norms_ILSTU",1,27,2022-09-25T19:08:49+00:00,12.061187982559,15,"updated stim.csv",Version15.csv,"Version 15","List 15",sibling,,424,5.04,2373,425,BOI,-,-,"Please name all of the ways you could use this object. Keep in mind that one object can have many uses. Separate your responses with a comma.",,y,11884,,,2441,10992,,,,"love, have fun with, learn with, eat with, relax with, ",1
SL1979,si4kx4az2g,"Affordance Norms_ILSTU",1,28,2022-09-25T19:09:00+00:00,11.227318048477,15,"updated stim.csv",Version15.csv,"Version 15","List 15",grandma,,448,5.769230769,1148,449,BOI,-,-,"Please name all of the ways you could use this object. Keep in mind that one object can have many uses. Separate your responses with a comma.",,y,11051,,,1523,8852,,,,"love, support",1
SL1979,si4kx4az2g,"Affordance Norms_ILSTU",1,29,2022-09-25T19:09:06+00:00,6.5845339298248,15,"updated stim.csv",Version15.csv,"Version 15","List 15",newsstand,,426,5.458333333,1764,427,BOI,-,-,"Please name all of the ways you could use this object. Keep in mind that one object can have many uses. Separate your responses with a comma.",,y,6405,,,2646,6021,,,,"get newspapers from",1
SL1979,si4kx4az2g,"Affordance Norms_ILSTU",1,30,2022-09-25T19:09:16+00:00,9.3789989948273,15,"updated stim.csv",Version15.csv,"Version 15","List 15",newlyweds,,447,4.772727273,1754,448,BOI,-,-,"Please name all of the ways you could use this object. Keep in mind that one object can have many uses. Separate your responses with a comma.",,y,9210,,,8100,9080,,,,support,1
SL1979,si4kx4az2g,"Affordance Norms_ILSTU",1,31,2022-09-25T19:09:23+00:00,6.9474701881409,15,"updated stim.csv",Version15.csv,"Version 15","List 15",keyboard,,445,6.08,1412,446,BOI,-,-,"Please name all of the ways you could use this object. Keep in mind that one object can have many uses. Separate your responses with a comma.",,y,6779,,,1712,4633,,,,"type, search",1
SL1979,si4kx4az2g,"Affordance Norms_ILSTU",1,32,2022-09-25T19:09:28+00:00,5.1968188285828,15,"updated stim.csv",Version15.csv,"Version 15","List 15",burger,,444,6.111111111,365,445,BOI,-,-,"Please name all of the ways you could use this object. Keep in mind that one object can have many uses. Separate your responses with a comma.",,y,5008,,,1113,4687,,,,"eat, smash",1
SL1979,si4kx4az2g,"Affordance Norms_ILSTU",1,33,2022-09-25T19:09:37+00:00,9.2707121372223,15,"updated stim.csv",Version15.csv,"Version 15","List 15",essay,,439,4.333333333,922,440,BOI,-,-,"Please name all of the ways you could use this object. Keep in mind that one object can have many uses. Separate your responses with a comma.",,y,8979,,,1353,8736,,,,"write, read, type, learn",1
SL1979,si4kx4az2g,"Affordance Norms_ILSTU",1,34,2022-09-25T19:09:43+00:00,6.2795519828796,15,"updated stim.csv",Version15.csv,"Version 15","List 15",lifeboat,,443,5.333333333,1504,444,BOI,-,-,"Please name all of the ways you could use this object. Keep in mind that one object can have many uses. Separate your responses with a comma.",,y,6103,,,1296,5406,,,,"save, float, fish",1
SL1979,si4kx4az2g,"Affordance Norms_ILSTU",1,35,2022-09-25T19:09:52+00:00,8.6141579151154,15,"updated stim.csv",Version15.csv,"Version 15","List 15",storekeeper,,442,4.75,2552,443,BOI,-,-,"Please name all of the ways you could use this object. Keep in mind that one object can have many uses. Separate your responses with a comma.",,y,8452,,,3171,8120,,,,"make money, shop",1
SL1979,si4kx4az2g,"Affordance Norms_ILSTU",1,36,2022-09-25T19:09:58+00:00,6.0134139060974,15,"updated stim.csv",Version15.csv,"Version 15","List 15",racket,,436,5.24,2120,437,BOI,-,-,"Please name all of the ways you could use this object. Keep in mind that one object can have many uses. Separate your responses with a comma.",,y,5840,,,1635,3298,,,,hit,1
SL1979,si4kx4az2g,"Affordance Norms_ILSTU",1,37,2022-09-25T19:10:03+00:00,4.5614421367645,15,"updated stim.csv",Version15.csv,"Version 15","List 15",tongs,,449,5.826086957,2727,450,BOI,-,-,"Please name all of the ways you could use this object. Keep in mind that one object can have many uses. Separate your responses with a comma.",,y,4394,,,1430,3873,,,,"pick things up",1
SL1979,si4kx4az2g,"Affordance Norms_ILSTU",1,38,2022-09-25T19:10:08+00:00,4.9287300109863,15,"updated stim.csv",Version15.csv,"Version 15","List 15",thermometer,,429,5.56,2676,430,BOI,-,-,"Please name all of the ways you could use this object. Keep in mind that one object can have many uses. Separate your responses with a comma.",,y,4757,,,1559,4656,,,,"check temperature",1
SL1979,si4kx4az2g,"Affordance Norms_ILSTU",1,39,2022-09-25T19:10:20+00:00,12.451060056686,15,"updated stim.csv",Version15.csv,"Version 15","List 15",oceanographer,,430,4.44,1800,431,BOI,-,-,"Please name all of the ways you could use this object. Keep in mind that one object can have many uses. Separate your responses with a comma.",,y,12155,,,2505,11183,,,,"take photos, study ocean",1
SL1979,si4kx4az2g,"Affordance Norms_ILSTU",1,40,2022-09-25T19:10:32+00:00,12.318384885788,15,"updated stim.csv",Version15.csv,"Version 15","List 15",cap,,427,5.826086957,422,428,BOI,-,-,"Please name all of the ways you could use this object. Keep in mind that one object can have many uses. Separate your responses with a comma.",,y,12148,,,2245,11893,,,,"protect your head from sun, look stylish",1
SL1979,si4kx4az2g,"Affordance Norms_ILSTU",1,41,2022-09-25T19:10:34+00:00,1.9709849357605,15,"updated stim.csv",Version15.csv,"Version 15","List 15",,,,,,0,Instruct,,,"You will now be asked a few questions about your experience today.",,"Instruct 4",1805,,,-1,-1,,,,,1
