Username,ID,ExperimentName,Session,Trial,Date,TimeDif,"Condition Number","Stimuli File","Order File","Condition Description","Condition Notes",Stimuli*Cue,Stimuli*Answer,Stimuli*Shuffle,"Stimuli*Stimuli Notes",Stimuli*Value,Procedure*Item,"Procedure*Trial Type","Procedure*Max Time","Procedure*Min Time",Procedure*Text,"Procedure*Procedure Notes",Procedure*Shuffle,Response*RT,Response*Response,Response*Accuracy,Response*RTfirst,Response*RTlast,Response*strictAcc,Response*lenientAcc,Response*focus,Response*JOL,Response*Focus
NT0985,e3gwd9y0ow,"Affordance Norms_ILSTU",1,1,2022-09-23T20:38:19+00:00,11.359172105789,50,"updated stim.csv",Version50.csv,"Version 50","List 50",,,,,,0,Instruct,-,10,"In this section, you will be presented with a series of objects. Please name as many possible uses for this object as you can think of by typing them in the box below each object.",,Instruct1,11202,,,-1,-1,,,,,1
NT0985,e3gwd9y0ow,"Affordance Norms_ILSTU",1,2,2022-09-23T20:38:33+00:00,13.676909923553,50,"updated stim.csv",Version50.csv,"Version 50","List 50",,,,,,0,Instruct,-,10,"Please keep in mind that a single object will have more than one use. For example, a ball can be thrown or can be bounced or even stepped on. When listing multiple uses for one object, please separate each use with a comma (i.e., thrown, bounced, stepped on)",,Instruct2,13463,,,-1,-1,,,,,1
NT0985,e3gwd9y0ow,"Affordance Norms_ILSTU",1,3,2022-09-23T20:38:34+00:00,1.1873641014099,50,"updated stim.csv",Version50.csv,"Version 50","List 50",,,,,,0,Instruct,-,-,"Before starting the experiment, you will complete a short practice sesstion. Press ENTER when you are ready to begin.",,Instruct3,1062,,,-1,-1,,,,,1
NT0985,e3gwd9y0ow,"Affordance Norms_ILSTU",1,4,2022-09-23T20:38:40+00:00,5.7828788757324,50,"updated stim.csv",Version50.csv,"Version 50","List 50",saucer,,3005,5.777777778,2249,3006,BOI,-,-,"Please name all of the ways you could use this object. Keep in mind that one object can have many uses. Separate your responses with a comma.",,n,5588,,,-1,-1,,,,,1
NT0985,e3gwd9y0ow,"Affordance Norms_ILSTU",1,5,2022-09-23T20:38:42+00:00,2.3446171283722,50,"updated stim.csv",Version50.csv,"Version 50","List 50",grain,,3004,5.217391304,1143,3005,BOI,-,-,"Please name all of the ways you could use this object. Keep in mind that one object can have many uses. Separate your responses with a comma.",,n,2214,,,-1,-1,,,,,1
NT0985,e3gwd9y0ow,"Affordance Norms_ILSTU",1,6,2022-09-23T20:38:51+00:00,9.0227029323578,50,"updated stim.csv",Version50.csv,"Version 50","List 50",spaghetti,,3003,6,2461,3004,BOI,-,-,"Please name all of the ways you could use this object. Keep in mind that one object can have many uses. Separate your responses with a comma.",,n,8814,,,1544,7181,,,,"eat, cook",1
NT0985,e3gwd9y0ow,"Affordance Norms_ILSTU",1,7,2022-09-23T20:38:53+00:00,1.6024520397186,50,"updated stim.csv",Version50.csv,"Version 50","List 50",shortening,,3002,4.92,2358,3003,BOI,-,-,"Please name all of the ways you could use this object. Keep in mind that one object can have many uses. Separate your responses with a comma.",,n,1486,,,-1,-1,,,,,1
NT0985,e3gwd9y0ow,"Affordance Norms_ILSTU",1,8,2022-09-23T20:39:06+00:00,12.790910005569,50,"updated stim.csv",Version50.csv,"Version 50","List 50",paperwork,,3001,5.625,1866,3002,BOI,-,-,"Please name all of the ways you could use this object. Keep in mind that one object can have many uses. Separate your responses with a comma.",,n,12567,,,3473,10812,,,,"shread, work",1
NT0985,e3gwd9y0ow,"Affordance Norms_ILSTU",1,9,2022-09-23T20:39:07+00:00,1.143660068512,50,"updated stim.csv",Version50.csv,"Version 50","List 50",,,,,,0,Instruct,-,-,"You have completed this section. Press ENTER to continue",,"Instruct 5",1025,,,-1,-1,,,,,1
NT0985,e3gwd9y0ow,"Affordance Norms_ILSTU",1,10,2022-09-23T20:39:08+00:00,1.568500995636,50,"updated stim.csv",Version50.csv,"Version 50","List 50",,,,,,0,Instruct,-,-,"You will now start the full experiment. Press ENTER when you are ready to begin.",,,1459,,,-1,-1,,,,,1
NT0985,e3gwd9y0ow,"Affordance Norms_ILSTU",1,11,2022-09-23T20:39:18+00:00,9.4264898300171,50,"updated stim.csv",Version50.csv,"Version 50","List 50",pudding,,1496,5.958333333,2088,1497,BOI,-,-,"Please name all of the ways you could use this object. Keep in mind that one object can have many uses. Separate your responses with a comma.",,y,9223,,,4900,8215,,,,"eat, mix",1
NT0985,e3gwd9y0ow,"Affordance Norms_ILSTU",1,12,2022-09-23T20:39:30+00:00,12.512269020081,50,"updated stim.csv",Version50.csv,"Version 50","List 50",coin,,1485,6.4,595,1486,BOI,-,-,"Please name all of the ways you could use this object. Keep in mind that one object can have many uses. Separate your responses with a comma.",,y,12298,,,5503,11351,,,,"throw, spend",1
NT0985,e3gwd9y0ow,"Affordance Norms_ILSTU",1,13,2022-09-23T20:39:36+00:00,5.4354770183563,50,"updated stim.csv",Version50.csv,"Version 50","List 50",pineapple,,1477,6.304347826,1971,1478,BOI,-,-,"Please name all of the ways you could use this object. Keep in mind that one object can have many uses. Separate your responses with a comma.",,y,5226,,,1915,4139,,,,"eat, cut",1
NT0985,e3gwd9y0ow,"Affordance Norms_ILSTU",1,14,2022-09-23T20:39:38+00:00,2.687390089035,50,"updated stim.csv",Version50.csv,"Version 50","List 50",houseboy,,1500,4.583333333,1328,1501,BOI,-,-,"Please name all of the ways you could use this object. Keep in mind that one object can have many uses. Separate your responses with a comma.",,y,2572,,,-1,-1,,,,,1
NT0985,e3gwd9y0ow,"Affordance Norms_ILSTU",1,15,2022-09-23T20:39:42+00:00,4.0461020469666,50,"updated stim.csv",Version50.csv,"Version 50","List 50",cliff,,1494,4.64,559,1495,BOI,-,-,"Please name all of the ways you could use this object. Keep in mind that one object can have many uses. Separate your responses with a comma.",,y,3921,,,1404,2353,,,,jump,1
NT0985,e3gwd9y0ow,"Affordance Norms_ILSTU",1,16,2022-09-23T20:39:44+00:00,1.171933889389,50,"updated stim.csv",Version50.csv,"Version 50","List 50",shallot,,1479,5.380952381,2319,1480,BOI,-,-,"Please name all of the ways you could use this object. Keep in mind that one object can have many uses. Separate your responses with a comma.",,y,1065,,,-1,-1,,,,,1
NT0985,e3gwd9y0ow,"Affordance Norms_ILSTU",1,17,2022-09-23T20:39:45+00:00,0.84917211532593,50,"updated stim.csv",Version50.csv,"Version 50","List 50",geranium,,1471,4.695652174,1099,1472,BOI,-,-,"Please name all of the ways you could use this object. Keep in mind that one object can have many uses. Separate your responses with a comma.",,y,733,,,-1,-1,,,,,1
NT0985,e3gwd9y0ow,"Affordance Norms_ILSTU",1,18,2022-09-23T20:39:47+00:00,2.7342100143433,50,"updated stim.csv",Version50.csv,"Version 50","List 50",merchant,,1478,4.5,1648,1479,BOI,-,-,"Please name all of the ways you could use this object. Keep in mind that one object can have many uses. Separate your responses with a comma.",,y,2618,,,-1,-1,,,,,1
NT0985,e3gwd9y0ow,"Affordance Norms_ILSTU",1,19,2022-09-23T20:39:49+00:00,1.7763848304749,50,"updated stim.csv",Version50.csv,"Version 50","List 50",sombrero,,1492,5.518518519,2449,1493,BOI,-,-,"Please name all of the ways you could use this object. Keep in mind that one object can have many uses. Separate your responses with a comma.",,y,1652,,,-1,-1,,,,,1
NT0985,e3gwd9y0ow,"Affordance Norms_ILSTU",1,20,2022-09-23T20:39:51+00:00,2.0267651081085,50,"updated stim.csv",Version50.csv,"Version 50","List 50",wildcat,,1474,4.583333333,2938,1475,BOI,-,-,"Please name all of the ways you could use this object. Keep in mind that one object can have many uses. Separate your responses with a comma.",,y,1913,,,-1,-1,,,,,1
NT0985,e3gwd9y0ow,"Affordance Norms_ILSTU",1,21,2022-09-23T20:39:55+00:00,3.8197798728943,50,"updated stim.csv",Version50.csv,"Version 50","List 50",grandson,,1486,5.785714286,1153,1487,BOI,-,-,"Please name all of the ways you could use this object. Keep in mind that one object can have many uses. Separate your responses with a comma.",,y,3697,,,-1,-1,,,,,1
NT0985,e3gwd9y0ow,"Affordance Norms_ILSTU",1,22,2022-09-23T20:39:56+00:00,0.8594491481781,50,"updated stim.csv",Version50.csv,"Version 50","List 50",Ladder,,1497,6.117567568,1447,1498,BOI,-,-,"Please name all of the ways you could use this object. Keep in mind that one object can have many uses. Separate your responses with a comma.",,y,744,,,-1,-1,,,,,1
NT0985,e3gwd9y0ow,"Affordance Norms_ILSTU",1,23,2022-09-23T20:39:57+00:00,1.3300309181213,50,"updated stim.csv",Version50.csv,"Version 50","List 50",poultry,,1487,4.826086957,2053,1488,BOI,-,-,"Please name all of the ways you could use this object. Keep in mind that one object can have many uses. Separate your responses with a comma.",,y,1216,,,-1,-1,,,,,1
NT0985,e3gwd9y0ow,"Affordance Norms_ILSTU",1,24,2022-09-23T20:39:58+00:00,1.3588590621948,50,"updated stim.csv",Version50.csv,"Version 50","List 50",pullover,,1476,4.56,2093,1477,BOI,-,-,"Please name all of the ways you could use this object. Keep in mind that one object can have many uses. Separate your responses with a comma.",,y,1235,,,-1,-1,,,,,1
NT0985,e3gwd9y0ow,"Affordance Norms_ILSTU",1,25,2022-09-23T20:40:00+00:00,1.430526971817,50,"updated stim.csv",Version50.csv,"Version 50","List 50",corset,,1493,5.44,653,1494,BOI,-,-,"Please name all of the ways you could use this object. Keep in mind that one object can have many uses. Separate your responses with a comma.",,y,1316,,,-1,-1,,,,,1
NT0985,e3gwd9y0ow,"Affordance Norms_ILSTU",1,26,2022-09-23T20:40:07+00:00,6.6603000164032,50,"updated stim.csv",Version50.csv,"Version 50","List 50",needle,,1495,5.739130435,1745,1496,BOI,-,-,"Please name all of the ways you could use this object. Keep in mind that one object can have many uses. Separate your responses with a comma.",,y,6439,,,5041,5389,,,,sew,1
NT0985,e3gwd9y0ow,"Affordance Norms_ILSTU",1,27,2022-09-23T20:40:15+00:00,8.9090249538422,50,"updated stim.csv",Version50.csv,"Version 50","List 50",drywall,,1481,5.208333333,858,1482,BOI,-,-,"Please name all of the ways you could use this object. Keep in mind that one object can have many uses. Separate your responses with a comma.",,y,8698,,,4553,7691,,,,"build a wall",1
NT0985,e3gwd9y0ow,"Affordance Norms_ILSTU",1,28,2022-09-23T20:40:17+00:00,1.8433389663696,50,"updated stim.csv",Version50.csv,"Version 50","List 50",muzzle,,1490,4.391304348,1730,1491,BOI,-,-,"Please name all of the ways you could use this object. Keep in mind that one object can have many uses. Separate your responses with a comma.",,y,1725,,,-1,-1,,,,,1
NT0985,e3gwd9y0ow,"Affordance Norms_ILSTU",1,29,2022-09-23T20:40:24+00:00,7.1882801055908,50,"updated stim.csv",Version50.csv,"Version 50","List 50",orange,,1489,5.08,1814,1490,BOI,-,-,"Please name all of the ways you could use this object. Keep in mind that one object can have many uses. Separate your responses with a comma.",,y,6891,,,2719,5790,,,,"eat, cute",1
NT0985,e3gwd9y0ow,"Affordance Norms_ILSTU",1,30,2022-09-23T20:40:30+00:00,6.0265920162201,50,"updated stim.csv",Version50.csv,"Version 50","List 50",saddle,,1499,4.954545455,2212,1500,BOI,-,-,"Please name all of the ways you could use this object. Keep in mind that one object can have many uses. Separate your responses with a comma.",,y,5779,,,3432,4431,,,,ride,1
NT0985,e3gwd9y0ow,"Affordance Norms_ILSTU",1,31,2022-09-23T20:40:34+00:00,3.9899349212646,50,"updated stim.csv",Version50.csv,"Version 50","List 50",celery,,1484,6.086956522,471,1485,BOI,-,-,"Please name all of the ways you could use this object. Keep in mind that one object can have many uses. Separate your responses with a comma.",,y,3862,,,1968,2950,,,,eat,1
NT0985,e3gwd9y0ow,"Affordance Norms_ILSTU",1,32,2022-09-23T20:40:41+00:00,6.4369249343872,50,"updated stim.csv",Version50.csv,"Version 50","List 50",joystick,,1472,6.12,1392,1473,BOI,-,-,"Please name all of the ways you could use this object. Keep in mind that one object can have many uses. Separate your responses with a comma.",,y,6234,,,3867,5200,,,,drive,1
NT0985,e3gwd9y0ow,"Affordance Norms_ILSTU",1,33,2022-09-23T20:40:42+00:00,1.4433481693268,50,"updated stim.csv",Version50.csv,"Version 50","List 50",metal,,1491,5.130434783,1650,1492,BOI,-,-,"Please name all of the ways you could use this object. Keep in mind that one object can have many uses. Separate your responses with a comma.",,y,1327,,,-1,-1,,,,,1
NT0985,e3gwd9y0ow,"Affordance Norms_ILSTU",1,34,2022-09-23T20:40:43+00:00,1.1508378982544,50,"updated stim.csv",Version50.csv,"Version 50","List 50",councilwoman,,1488,4.583333333,664,1489,BOI,-,-,"Please name all of the ways you could use this object. Keep in mind that one object can have many uses. Separate your responses with a comma.",,y,1035,,,-1,-1,,,,,1
NT0985,e3gwd9y0ow,"Affordance Norms_ILSTU",1,35,2022-09-23T20:40:44+00:00,0.97215008735657,50,"updated stim.csv",Version50.csv,"Version 50","List 50",shavings,,1498,4.6,2325,1499,BOI,-,-,"Please name all of the ways you could use this object. Keep in mind that one object can have many uses. Separate your responses with a comma.",,y,855,,,-1,-1,,,,,1
NT0985,e3gwd9y0ow,"Affordance Norms_ILSTU",1,36,2022-09-23T20:40:45+00:00,0.94185590744019,50,"updated stim.csv",Version50.csv,"Version 50","List 50",necktie,,1482,6.043478261,1742,1483,BOI,-,-,"Please name all of the ways you could use this object. Keep in mind that one object can have many uses. Separate your responses with a comma.",,y,825,,,-1,-1,,,,,1
NT0985,e3gwd9y0ow,"Affordance Norms_ILSTU",1,37,2022-09-23T20:40:48+00:00,2.8444530963898,50,"updated stim.csv",Version50.csv,"Version 50","List 50",forehead,,1475,5.777777778,1045,1476,BOI,-,-,"Please name all of the ways you could use this object. Keep in mind that one object can have many uses. Separate your responses with a comma.",,y,2728,,,-1,-1,,,,,1
NT0985,e3gwd9y0ow,"Affordance Norms_ILSTU",1,38,2022-09-23T20:40:52+00:00,3.4052538871765,50,"updated stim.csv",Version50.csv,"Version 50","List 50",potato,,1483,5.6,2047,1484,BOI,-,-,"Please name all of the ways you could use this object. Keep in mind that one object can have many uses. Separate your responses with a comma.",,y,3280,,,1783,2300,,,,eat,1
NT0985,e3gwd9y0ow,"Affordance Norms_ILSTU",1,39,2022-09-23T20:40:54+00:00,2.8241419792175,50,"updated stim.csv",Version50.csv,"Version 50","List 50",cent,,1473,5.12,477,1474,BOI,-,-,"Please name all of the ways you could use this object. Keep in mind that one object can have many uses. Separate your responses with a comma.",,y,2712,,,-1,-1,,,,,1
NT0985,e3gwd9y0ow,"Affordance Norms_ILSTU",1,40,2022-09-23T20:41:01+00:00,6.0980880260468,50,"updated stim.csv",Version50.csv,"Version 50","List 50",nanny,,1480,4.6,1734,1481,BOI,-,-,"Please name all of the ways you could use this object. Keep in mind that one object can have many uses. Separate your responses with a comma.",,y,5890,,,2360,4673,,,,"watch kids",1
NT0985,e3gwd9y0ow,"Affordance Norms_ILSTU",1,41,2022-09-23T20:41:02+00:00,1.7937250137329,50,"updated stim.csv",Version50.csv,"Version 50","List 50",,,,,,0,Instruct,,,"You will now be asked a few questions about your experience today.",,"Instruct 4",1678,,,-1,-1,,,,,1
