Username,ID,ExperimentName,Session,Trial,Date,TimeDif,"Condition Number","Stimuli File","Order File","Condition Description","Condition Notes",Stimuli*Cue,Stimuli*Answer,Stimuli*Shuffle,"Stimuli*Stimuli Notes",Stimuli*Value,Procedure*Item,"Procedure*Trial Type","Procedure*Max Time","Procedure*Min Time",Procedure*Text,"Procedure*Procedure Notes",Procedure*Shuffle,Response*RT,Response*Response,Response*Accuracy,Response*RTfirst,Response*RTlast,Response*strictAcc,Response*lenientAcc,Response*focus,Response*JOL,Response*Focus
fernandov,oraj5x32iz,"Affordance Norms_CCSU",1,1,2023-02-17T06:54:54+00:00,11.722770929337,44,"updated stim.csv",Version94.csv,"Version 94","List 94",,,,,,0,Instruct,-,10,"In this section, you will be presented with a series of objects. Please name as many possible uses for this object as you can think of by typing them in the box below each object.",,Instruct1,11612,,,-1,-1,,,,,1
fernandov,oraj5x32iz,"Affordance Norms_CCSU",1,2,2023-02-17T06:55:07+00:00,13.62090587616,44,"updated stim.csv",Version94.csv,"Version 94","List 94",,,,,,0,Instruct,-,10,"Please keep in mind that a single object will have more than one use. For example, a ball can be thrown or can be bounced or even stepped on. When listing multiple uses for one object, please separate each use with a comma (i.e., thrown, bounced, stepped on)",,Instruct2,13455,,,-1,-1,,,,,1
fernandov,oraj5x32iz,"Affordance Norms_CCSU",1,3,2023-02-17T06:55:12+00:00,4.597097158432,44,"updated stim.csv",Version94.csv,"Version 94","List 94",,,,,,0,Instruct,-,-,"Before starting the experiment, you will complete a short practice sesstion. Press ENTER when you are ready to begin.",,Instruct3,4429,,,-1,-1,,,,,1
fernandov,oraj5x32iz,"Affordance Norms_CCSU",1,4,2023-02-17T06:55:45+00:00,33.362279891968,44,"updated stim.csv",Version94.csv,"Version 94","List 94",shortening,,3002,4.92,2358,3003,BOI,-,-,"Please name all of the ways you could use this object. Keep in mind that one object can have many uses. Separate your responses with a comma.",,n,33060,,,29380,30074,,,,eat,0.886
fernandov,oraj5x32iz,"Affordance Norms_CCSU",1,5,2023-02-17T06:55:51+00:00,6.070680141449,44,"updated stim.csv",Version94.csv,"Version 94","List 94",spaghetti,,3003,6,2461,3004,BOI,-,-,"Please name all of the ways you could use this object. Keep in mind that one object can have many uses. Separate your responses with a comma.",,n,5895,,,1885,3597,,,,eat,1
fernandov,oraj5x32iz,"Affordance Norms_CCSU",1,6,2023-02-17T06:56:14+00:00,22.123347997665,44,"updated stim.csv",Version94.csv,"Version 94","List 94",saucer,,3005,5.777777778,2249,3006,BOI,-,-,"Please name all of the ways you could use this object. Keep in mind that one object can have many uses. Separate your responses with a comma.",,n,21850,,,2709,15299,,,,"put tea cup on, eat off",1
fernandov,oraj5x32iz,"Affordance Norms_CCSU",1,7,2023-02-17T06:56:20+00:00,6.2907328605652,44,"updated stim.csv",Version94.csv,"Version 94","List 94",grain,,3004,5.217391304,1143,3005,BOI,-,-,"Please name all of the ways you could use this object. Keep in mind that one object can have many uses. Separate your responses with a comma.",,n,6118,,,2062,3033,,,,eat,1
fernandov,oraj5x32iz,"Affordance Norms_CCSU",1,8,2023-02-17T06:56:42+00:00,22.265454053879,44,"updated stim.csv",Version94.csv,"Version 94","List 94",paperwork,,3001,5.625,1866,3002,BOI,-,-,"Please name all of the ways you could use this object. Keep in mind that one object can have many uses. Separate your responses with a comma.",,n,21987,,,1790,20391,,,,"write, hand in, type, check",1
fernandov,oraj5x32iz,"Affordance Norms_CCSU",1,9,2023-02-17T06:56:44+00:00,1.9802100658417,44,"updated stim.csv",Version94.csv,"Version 94","List 94",,,,,,0,Instruct,-,-,"You have completed this section. Press ENTER to continue",,"Instruct 5",1814,,,-1,-1,,,,,1
fernandov,oraj5x32iz,"Affordance Norms_CCSU",1,10,2023-02-17T06:56:47+00:00,2.5394020080566,44,"updated stim.csv",Version94.csv,"Version 94","List 94",,,,,,0,Instruct,-,-,"You will now start the full experiment. Press ENTER when you are ready to begin.",,,2379,,,-1,-1,,,,,1
fernandov,oraj5x32iz,"Affordance Norms_CCSU",1,11,2023-02-17T06:57:05+00:00,18.46197104454,44,"updated stim.csv",Version94.csv,"Version 94","List 94",hanky,,2815,4.481481481,1247,2816,BOI,-,-,"Please name all of the ways you could use this object. Keep in mind that one object can have many uses. Separate your responses with a comma.",,y,18178,,,2569,13073,,,,"blow nose, clean",1
fernandov,oraj5x32iz,"Affordance Norms_CCSU",1,12,2023-02-17T06:57:11+00:00,6.3171679973602,44,"updated stim.csv",Version94.csv,"Version 94","List 94",omelet,,2806,5.6,1807,2807,BOI,-,-,"Please name all of the ways you could use this object. Keep in mind that one object can have many uses. Separate your responses with a comma.",,y,6139,,,1976,2764,,,,eat,1
fernandov,oraj5x32iz,"Affordance Norms_CCSU",1,13,2023-02-17T06:57:45+00:00,33.176349878311,44,"updated stim.csv",Version94.csv,"Version 94","List 94",nutcrackers,,2794,5.347826087,1791,2795,BOI,-,-,"Please name all of the ways you could use this object. Keep in mind that one object can have many uses. Separate your responses with a comma.",,y,32898,,,2727,31101,,,,"decorate in house, put on a Christmas tree",1
fernandov,oraj5x32iz,"Affordance Norms_CCSU",1,14,2023-02-17T06:58:13+00:00,28.317140102386,44,"updated stim.csv",Version94.csv,"Version 94","List 94",dispenser,,2799,4.708333333,805,2800,BOI,-,-,"Please name all of the ways you could use this object. Keep in mind that one object can have many uses. Separate your responses with a comma.",,y,28045,,,5422,25695,,,,"get soap from, get drinks from, get food from",1
fernandov,oraj5x32iz,"Affordance Norms_CCSU",1,15,2023-02-17T06:58:28+00:00,15.16423201561,44,"updated stim.csv",Version94.csv,"Version 94","List 94",fag,,2798,4.8,942,2799,BOI,-,-,"Please name all of the ways you could use this object. Keep in mind that one object can have many uses. Separate your responses with a comma.",,y,14988,,,7650,9581,,,,smoke,1
fernandov,oraj5x32iz,"Affordance Norms_CCSU",1,16,2023-02-17T06:58:52+00:00,24.299067974091,44,"updated stim.csv",Version94.csv,"Version 94","List 94",cheerleader,,2818,5.285714286,505,2819,BOI,-,-,"Please name all of the ways you could use this object. Keep in mind that one object can have many uses. Separate your responses with a comma.",,y,24016,,,12857,22883,,,,"watch, date",1
fernandov,oraj5x32iz,"Affordance Norms_CCSU",1,17,2023-02-17T06:58:57+00:00,4.685977935791,44,"updated stim.csv",Version94.csv,"Version 94","List 94",snorkel,,2807,4.814814815,2428,2808,BOI,-,-,"Please name all of the ways you could use this object. Keep in mind that one object can have many uses. Separate your responses with a comma.",,y,4509,,,1837,3022,,,,wear,1
fernandov,oraj5x32iz,"Affordance Norms_CCSU",1,18,2023-02-17T06:59:10+00:00,12.551795959473,44,"updated stim.csv",Version94.csv,"Version 94","List 94",bridge,,2810,5.52173913,322,2811,BOI,-,-,"Please name all of the ways you could use this object. Keep in mind that one object can have many uses. Separate your responses with a comma.",,y,12387,,,2813,9839,,,,"cross, jump on",1
fernandov,oraj5x32iz,"Affordance Norms_CCSU",1,19,2023-02-17T06:59:25+00:00,15.289354085922,44,"updated stim.csv",Version94.csv,"Version 94","List 94",bassinet,,2808,5.375,165,2809,BOI,-,-,"Please name all of the ways you could use this object. Keep in mind that one object can have many uses. Separate your responses with a comma.",,y,15124,,,10768,13518,,,,sleep,0.875
fernandov,oraj5x32iz,"Affordance Norms_CCSU",1,20,2023-02-17T06:59:46+00:00,21.313122034073,44,"updated stim.csv",Version94.csv,"Version 94","List 94",toothpaste,,2805,5.76,2733,2806,BOI,-,-,"Please name all of the ways you could use this object. Keep in mind that one object can have many uses. Separate your responses with a comma.",,y,21043,,,1340,17965,,,,"brush teeth, put on toothbrush",1
fernandov,oraj5x32iz,"Affordance Norms_CCSU",1,21,2023-02-17T07:00:15+00:00,28.766459941864,44,"updated stim.csv",Version94.csv,"Version 94","List 94",retriever,,2803,4.96,2160,2804,BOI,-,-,"Please name all of the ways you could use this object. Keep in mind that one object can have many uses. Separate your responses with a comma.",,y,28496,,,1613,24370,,,,"pet, walk, play with, watch, feed",1
fernandov,oraj5x32iz,"Affordance Norms_CCSU",1,22,2023-02-17T07:00:31+00:00,16.183073043823,44,"updated stim.csv",Version94.csv,"Version 94","List 94",sack,,2817,5.083333333,2210,2818,BOI,-,-,"Please name all of the ways you could use this object. Keep in mind that one object can have many uses. Separate your responses with a comma.",,y,15980,,,2266,13220,,,,"place object in, toss",1
fernandov,oraj5x32iz,"Affordance Norms_CCSU",1,23,2023-02-17T07:00:39+00:00,7.4982228279114,44,"updated stim.csv",Version94.csv,"Version 94","List 94",catnip,,2804,4.52,461,2805,BOI,-,-,"Please name all of the ways you could use this object. Keep in mind that one object can have many uses. Separate your responses with a comma.",,y,7329,,,1795,4185,,,,"feed to cat",1
fernandov,oraj5x32iz,"Affordance Norms_CCSU",1,24,2023-02-17T07:00:56+00:00,16.959557056427,44,"updated stim.csv",Version94.csv,"Version 94","List 94",lighthouse,,2795,4.791666667,1507,2796,BOI,-,-,"Please name all of the ways you could use this object. Keep in mind that one object can have many uses. Separate your responses with a comma.",,y,16794,,,1997,10139,,,,"enter, view",1
fernandov,oraj5x32iz,"Affordance Norms_CCSU",1,25,2023-02-17T07:01:03+00:00,7.3685700893402,44,"updated stim.csv",Version94.csv,"Version 94","List 94",fishbone,,2816,5.173913043,990,2817,BOI,-,-,"Please name all of the ways you could use this object. Keep in mind that one object can have many uses. Separate your responses with a comma.",,y,7190,,,3803,5840,,,,"throw out",1
fernandov,oraj5x32iz,"Affordance Norms_CCSU",1,26,2023-02-17T07:01:12+00:00,8.927325963974,44,"updated stim.csv",Version94.csv,"Version 94","List 94",maggot,,2791,4.44,1570,2792,BOI,-,-,"Please name all of the ways you could use this object. Keep in mind that one object can have many uses. Separate your responses with a comma.",,y,8759,,,2534,6518,,,,"step on",1
fernandov,oraj5x32iz,"Affordance Norms_CCSU",1,27,2023-02-17T07:01:19+00:00,7.1484639644623,44,"updated stim.csv",Version94.csv,"Version 94","List 94",oyster,,2813,5.407407407,1834,2814,BOI,-,-,"Please name all of the ways you could use this object. Keep in mind that one object can have many uses. Separate your responses with a comma.",,y,6979,,,3193,4120,,,,eat,1
fernandov,oraj5x32iz,"Affordance Norms_CCSU",1,28,2023-02-17T07:01:34+00:00,14.724322080612,44,"updated stim.csv",Version94.csv,"Version 94","List 94",cafe,,2814,4.772727273,396,2815,BOI,-,-,"Please name all of the ways you could use this object. Keep in mind that one object can have many uses. Separate your responses with a comma.",,y,14537,,,1995,12869,,,,"go to, drink something, eat something",1
fernandov,oraj5x32iz,"Affordance Norms_CCSU",1,29,2023-02-17T07:01:58+00:00,23.952217817307,44,"updated stim.csv",Version94.csv,"Version 94","List 94",sheet,,2793,5.708333333,2331,2794,BOI,-,-,"Please name all of the ways you could use this object. Keep in mind that one object can have many uses. Separate your responses with a comma.",,y,23617,,,2259,18019,,,,"write on, put on bed, lie under ",1
fernandov,oraj5x32iz,"Affordance Norms_CCSU",1,30,2023-02-17T07:02:11+00:00,13.707222223282,44,"updated stim.csv",Version94.csv,"Version 94","List 94",garland,,2819,5.166666667,1079,2820,BOI,-,-,"Please name all of the ways you could use this object. Keep in mind that one object can have many uses. Separate your responses with a comma.",,y,13531,,,9981,12671,,,,visit,0.909
fernandov,oraj5x32iz,"Affordance Norms_CCSU",1,31,2023-02-17T07:02:15+00:00,3.2586359977722,44,"updated stim.csv",Version94.csv,"Version 94","List 94",pork,,2796,4.916666667,2037,2797,BOI,-,-,"Please name all of the ways you could use this object. Keep in mind that one object can have many uses. Separate your responses with a comma.",,y,3086,,,1559,2144,,,,eat,1
fernandov,oraj5x32iz,"Affordance Norms_CCSU",1,32,2023-02-17T07:02:26+00:00,11.119480848312,44,"updated stim.csv",Version94.csv,"Version 94","List 94",booze,,2800,5.84,285,2801,BOI,-,-,"Please name all of the ways you could use this object. Keep in mind that one object can have many uses. Separate your responses with a comma.",,y,10947,,,1356,8584,,,,"drink, throw away",1
fernandov,oraj5x32iz,"Affordance Norms_CCSU",1,33,2023-02-17T07:02:33+00:00,7.0204191207886,44,"updated stim.csv",Version94.csv,"Version 94","List 94",kazoo,,2792,5.6,1401,2793,BOI,-,-,"Please name all of the ways you could use this object. Keep in mind that one object can have many uses. Separate your responses with a comma.",,y,6841,,,3484,6276,,,,"blow into",1
fernandov,oraj5x32iz,"Affordance Norms_CCSU",1,34,2023-02-17T07:02:41+00:00,8.1318709850311,44,"updated stim.csv",Version94.csv,"Version 94","List 94",cigar,,2811,5.962962963,542,2812,BOI,-,-,"Please name all of the ways you could use this object. Keep in mind that one object can have many uses. Separate your responses with a comma.",,y,7958,,,1397,7271,,,,"smoke, throw out",1
fernandov,oraj5x32iz,"Affordance Norms_CCSU",1,35,2023-02-17T07:02:59+00:00,17.76394200325,44,"updated stim.csv",Version94.csv,"Version 94","List 94",kernel,,2797,4.5,1407,2798,BOI,-,-,"Please name all of the ways you could use this object. Keep in mind that one object can have many uses. Separate your responses with a comma.",,y,17594,,,4943,13192,,,,"put into microwave",1
fernandov,oraj5x32iz,"Affordance Norms_CCSU",1,36,2023-02-17T07:03:29+00:00,29.994489908218,44,"updated stim.csv",Version94.csv,"Version 94","List 94",girl,,2809,5.52,1108,2810,BOI,-,-,"Please name all of the ways you could use this object. Keep in mind that one object can have many uses. Separate your responses with a comma.",,y,29714,,,1768,18570,,,,"talk, befriend, date",1
fernandov,oraj5x32iz,"Affordance Norms_CCSU",1,37,2023-02-17T07:03:39+00:00,10.762582063675,44,"updated stim.csv",Version94.csv,"Version 94","List 94",sax,,2820,5.045454545,2256,2821,BOI,-,-,"Please name all of the ways you could use this object. Keep in mind that one object can have many uses. Separate your responses with a comma.",,y,10581,,,7509,10113,,,,"blow into",1
fernandov,oraj5x32iz,"Affordance Norms_CCSU",1,38,2023-02-17T07:03:43+00:00,3.5814080238342,44,"updated stim.csv",Version94.csv,"Version 94","List 94",jeep,,2812,5.409090909,1380,2813,BOI,-,-,"Please name all of the ways you could use this object. Keep in mind that one object can have many uses. Separate your responses with a comma.",,y,3402,,,1297,2505,,,,drive,1
fernandov,oraj5x32iz,"Affordance Norms_CCSU",1,39,2023-02-17T07:03:51+00:00,7.562490940094,44,"updated stim.csv",Version94.csv,"Version 94","List 94",aircraft,,2801,4.925925926,19,2802,BOI,-,-,"Please name all of the ways you could use this object. Keep in mind that one object can have many uses. Separate your responses with a comma.",,y,7387,,,3352,4409,,,,watch,1
fernandov,oraj5x32iz,"Affordance Norms_CCSU",1,40,2023-02-17T07:04:04+00:00,13.246067047119,44,"updated stim.csv",Version94.csv,"Version 94","List 94",sackcloth,,2802,4.913043478,2211,2803,BOI,-,-,"Please name all of the ways you could use this object. Keep in mind that one object can have many uses. Separate your responses with a comma.",,y,13077,,,11836,12531,,,,wear,0.9
fernandov,oraj5x32iz,"Affordance Norms_CCSU",1,41,2023-02-17T07:04:07+00:00,3.1701629161835,44,"updated stim.csv",Version94.csv,"Version 94","List 94",,,,,,0,Instruct,,,"You will now be asked a few questions about your experience today.",,"Instruct 4",3005,,,-1,-1,,,,,1
