Username,ID,ExperimentName,Session,Trial,Date,TimeDif,"Condition Number","Stimuli File","Order File","Condition Description","Condition Notes",Stimuli*Cue,Stimuli*Answer,Stimuli*Shuffle,"Stimuli*Stimuli Notes",Stimuli*Value,Procedure*Item,"Procedure*Trial Type","Procedure*Max Time","Procedure*Min Time",Procedure*Text,"Procedure*Procedure Notes",Procedure*Shuffle,Response*RT,Response*Response,Response*Accuracy,Response*RTfirst,Response*RTlast,Response*strictAcc,Response*lenientAcc,Response*focus,Response*JOL,Response*Focus
kgcalandra@my.ccsu.edu,lv5onyva5x,"Affordance Norms_CCSU",1,1,2023-03-07T17:06:22+00:00,11.367912054062,18,"updated stim.csv",Version68.csv,"Version 68","List 68",,,,,,0,Instruct,-,10,"In this section, you will be presented with a series of objects. Please name as many possible uses for this object as you can think of by typing them in the box below each object.",,Instruct1,11132,,,-1,-1,,,,,1
kgcalandra@my.ccsu.edu,lv5onyva5x,"Affordance Norms_CCSU",1,2,2023-03-07T17:06:36+00:00,14.472966909409,18,"updated stim.csv",Version68.csv,"Version 68","List 68",,,,,,0,Instruct,-,10,"Please keep in mind that a single object will have more than one use. For example, a ball can be thrown or can be bounced or even stepped on. When listing multiple uses for one object, please separate each use with a comma (i.e., thrown, bounced, stepped on)",,Instruct2,14173,,,-1,-1,,,,,1
kgcalandra@my.ccsu.edu,lv5onyva5x,"Affordance Norms_CCSU",1,3,2023-03-07T17:06:39+00:00,3.0721881389618,18,"updated stim.csv",Version68.csv,"Version 68","List 68",,,,,,0,Instruct,-,-,"Before starting the experiment, you will complete a short practice sesstion. Press ENTER when you are ready to begin.",,Instruct3,2789,,,-1,-1,,,,,1
kgcalandra@my.ccsu.edu,lv5onyva5x,"Affordance Norms_CCSU",1,4,2023-03-07T17:08:21+00:00,102.02288484573,18,"updated stim.csv",Version68.csv,"Version 68","List 68",shortening,,3002,4.92,2358,3003,BOI,-,-,"Please name all of the ways you could use this object. Keep in mind that one object can have many uses. Separate your responses with a comma.",,n,101663,,,8037,88134,,,,"baking, cooking",0.923
kgcalandra@my.ccsu.edu,lv5onyva5x,"Affordance Norms_CCSU",1,5,2023-03-07T17:08:36+00:00,14.728225946426,18,"updated stim.csv",Version68.csv,"Version 68","List 68",paperwork,,3001,5.625,1866,3002,BOI,-,-,"Please name all of the ways you could use this object. Keep in mind that one object can have many uses. Separate your responses with a comma.",,n,14401,,,5211,9592,,,,"school, work, files",1
kgcalandra@my.ccsu.edu,lv5onyva5x,"Affordance Norms_CCSU",1,6,2023-03-07T17:09:11+00:00,34.55345416069,18,"updated stim.csv",Version68.csv,"Version 68","List 68",grain,,3004,5.217391304,1143,3005,BOI,-,-,"Please name all of the ways you could use this object. Keep in mind that one object can have many uses. Separate your responses with a comma.",,n,33931,,,14118,28305,,,,"bread, eating, baking, dough",0.901
kgcalandra@my.ccsu.edu,lv5onyva5x,"Affordance Norms_CCSU",1,7,2023-03-07T17:09:49+00:00,38.849421024323,18,"updated stim.csv",Version68.csv,"Version 68","List 68",saucer,,3005,5.777777778,2249,3006,BOI,-,-,"Please name all of the ways you could use this object. Keep in mind that one object can have many uses. Separate your responses with a comma.",,n,38275,,,15775,28679,,,,"serving condiments, holder for objects",0.832
kgcalandra@my.ccsu.edu,lv5onyva5x,"Affordance Norms_CCSU",1,8,2023-03-07T17:09:59+00:00,9.3891758918762,18,"updated stim.csv",Version68.csv,"Version 68","List 68",spaghetti,,3003,6,2461,3004,BOI,-,-,"Please name all of the ways you could use this object. Keep in mind that one object can have many uses. Separate your responses with a comma.",,n,9115,,,1445,3740,,,,eating,1
kgcalandra@my.ccsu.edu,lv5onyva5x,"Affordance Norms_CCSU",1,9,2023-03-07T17:10:01+00:00,2.2306230068207,18,"updated stim.csv",Version68.csv,"Version 68","List 68",,,,,,0,Instruct,-,-,"You have completed this section. Press ENTER to continue",,"Instruct 5",1553,,,-1,-1,,,,,1
kgcalandra@my.ccsu.edu,lv5onyva5x,"Affordance Norms_CCSU",1,10,2023-03-07T17:10:05+00:00,3.4709179401398,18,"updated stim.csv",Version68.csv,"Version 68","List 68",,,,,,0,Instruct,-,-,"You will now start the full experiment. Press ENTER when you are ready to begin.",,,3139,,,-1,-1,,,,,1
kgcalandra@my.ccsu.edu,lv5onyva5x,"Affordance Norms_CCSU",1,11,2023-03-07T17:10:31+00:00,26.489258050919,18,"updated stim.csv",Version68.csv,"Version 68","List 68",bellman,,2028,4.32,199,2029,BOI,-,-,"Please name all of the ways you could use this object. Keep in mind that one object can have many uses. Separate your responses with a comma.",,y,26136,,,3820,23693,,,,"carrying guests luggage",0.84
kgcalandra@my.ccsu.edu,lv5onyva5x,"Affordance Norms_CCSU",1,12,2023-03-07T17:11:01+00:00,29.724647045135,18,"updated stim.csv",Version68.csv,"Version 68","List 68",wiring,,2017,4.428571429,2952,2018,BOI,-,-,"Please name all of the ways you could use this object. Keep in mind that one object can have many uses. Separate your responses with a comma.",,y,29310,,,4656,25852,,,,"tv, home internet, electrical through the house ",0.952
kgcalandra@my.ccsu.edu,lv5onyva5x,"Affordance Norms_CCSU",1,13,2023-03-07T17:12:15+00:00,74.726587057114,18,"updated stim.csv",Version68.csv,"Version 68","List 68",guy,,2032,5.84,1202,2033,BOI,-,-,"Please name all of the ways you could use this object. Keep in mind that one object can have many uses. Separate your responses with a comma.",,y,74338,,,29306,67824,,,,"helping with grabbing objects that are higher than me",0.952
kgcalandra@my.ccsu.edu,lv5onyva5x,"Affordance Norms_CCSU",1,14,2023-03-07T17:12:46+00:00,30.638079881668,18,"updated stim.csv",Version68.csv,"Version 68","List 68",shipman,,2016,4.407407407,2344,2017,BOI,-,-,"Please name all of the ways you could use this object. Keep in mind that one object can have many uses. Separate your responses with a comma.",,y,30035,,,27260,29412,,,,boating,0.645
kgcalandra@my.ccsu.edu,lv5onyva5x,"Affordance Norms_CCSU",1,15,2023-03-07T17:13:01+00:00,14.401782989502,18,"updated stim.csv",Version68.csv,"Version 68","List 68",whistle,,2014,4.47826087,2932,2015,BOI,-,-,"Please name all of the ways you could use this object. Keep in mind that one object can have many uses. Separate your responses with a comma.",,y,14070,,,2547,13061,,,,"using it in a time of emergency ",1
kgcalandra@my.ccsu.edu,lv5onyva5x,"Affordance Norms_CCSU",1,16,2023-03-07T17:13:17+00:00,15.9907310009,18,"updated stim.csv",Version68.csv,"Version 68","List 68",sketchpad,,2015,5.36,2395,2016,BOI,-,-,"Please name all of the ways you could use this object. Keep in mind that one object can have many uses. Separate your responses with a comma.",,y,15540,,,3190,13615,,,,"writing down ideas or thoughts, drawing",1
kgcalandra@my.ccsu.edu,lv5onyva5x,"Affordance Norms_CCSU",1,17,2023-03-07T17:13:37+00:00,20.009392976761,18,"updated stim.csv",Version68.csv,"Version 68","List 68",slacks,,2025,6.103448276,2404,2026,BOI,-,-,"Please name all of the ways you could use this object. Keep in mind that one object can have many uses. Separate your responses with a comma.",,y,19761,,,11020,16833,,,,"wearing slacks, making slacks",0.907
kgcalandra@my.ccsu.edu,lv5onyva5x,"Affordance Norms_CCSU",1,18,2023-03-07T17:13:43+00:00,6.9009521007538,18,"updated stim.csv",Version68.csv,"Version 68","List 68",pig,,2030,4.56,1955,2031,BOI,-,-,"Please name all of the ways you could use this object. Keep in mind that one object can have many uses. Separate your responses with a comma.",,y,6626,,,1564,4142,,,,"eating, pet",1
kgcalandra@my.ccsu.edu,lv5onyva5x,"Affordance Norms_CCSU",1,19,2023-03-07T17:14:03+00:00,19.72327208519,18,"updated stim.csv",Version68.csv,"Version 68","List 68",winch,,2020,5.045454545,2940,2021,BOI,-,-,"Please name all of the ways you could use this object. Keep in mind that one object can have many uses. Separate your responses with a comma.",,y,19419,,,15033,18142,,,,"pulls objects",0.784
kgcalandra@my.ccsu.edu,lv5onyva5x,"Affordance Norms_CCSU",1,20,2023-03-07T17:14:24+00:00,21.268198013306,18,"updated stim.csv",Version68.csv,"Version 68","List 68",chickenfeed,,2024,4.72,518,2025,BOI,-,-,"Please name all of the ways you could use this object. Keep in mind that one object can have many uses. Separate your responses with a comma.",,y,20836,,,3083,17480,,,,"feed the chickens, nutrients for the chickens",1
kgcalandra@my.ccsu.edu,lv5onyva5x,"Affordance Norms_CCSU",1,21,2023-03-07T17:14:44+00:00,19.907567977905,18,"updated stim.csv",Version68.csv,"Version 68","List 68",primates,,2035,4.956521739,2064,2036,BOI,-,-,"Please name all of the ways you could use this object. Keep in mind that one object can have many uses. Separate your responses with a comma.",,y,19460,,,11004,18469,,,,"understanding humans, understanding animals",0.9
kgcalandra@my.ccsu.edu,lv5onyva5x,"Affordance Norms_CCSU",1,22,2023-03-07T17:15:08+00:00,23.927518844604,18,"updated stim.csv",Version68.csv,"Version 68","List 68",staircase,,2022,5.695652174,2500,2023,BOI,-,-,"Please name all of the ways you could use this object. Keep in mind that one object can have many uses. Separate your responses with a comma.",,y,23365,,,1469,22619,,,,"walking, getting to higher ground, going to a new place/room",1
kgcalandra@my.ccsu.edu,lv5onyva5x,"Affordance Norms_CCSU",1,23,2023-03-07T17:15:16+00:00,7.4998569488525,18,"updated stim.csv",Version68.csv,"Version 68","List 68",supper,,2013,5.2,2592,2014,BOI,-,-,"Please name all of the ways you could use this object. Keep in mind that one object can have many uses. Separate your responses with a comma.",,y,7203,,,1324,3617,,,,eating,1
kgcalandra@my.ccsu.edu,lv5onyva5x,"Affordance Norms_CCSU",1,24,2023-03-07T17:15:22+00:00,6.4483411312103,18,"updated stim.csv",Version68.csv,"Version 68","List 68",umbrella,,2019,6.4,2816,2020,BOI,-,-,"Please name all of the ways you could use this object. Keep in mind that one object can have many uses. Separate your responses with a comma.",,y,6146,,,1569,5831,,,,"protection from rain",1
kgcalandra@my.ccsu.edu,lv5onyva5x,"Affordance Norms_CCSU",1,25,2023-03-07T17:15:29+00:00,6.6567869186401,18,"updated stim.csv",Version68.csv,"Version 68","List 68",teaspoon,,2040,4.76,2653,2041,BOI,-,-,"Please name all of the ways you could use this object. Keep in mind that one object can have many uses. Separate your responses with a comma.",,y,5996,,,1381,4177,,,,"measuring out",1
kgcalandra@my.ccsu.edu,lv5onyva5x,"Affordance Norms_CCSU",1,26,2023-03-07T17:15:41+00:00,12.4453561306,18,"updated stim.csv",Version68.csv,"Version 68","List 68",toothbrush,,2039,6.72,2732,2040,BOI,-,-,"Please name all of the ways you could use this object. Keep in mind that one object can have many uses. Separate your responses with a comma.",,y,12092,,,2544,6332,,,,"dental hygiene",1
kgcalandra@my.ccsu.edu,lv5onyva5x,"Affordance Norms_CCSU",1,27,2023-03-07T17:16:32+00:00,51.060546875,18,"updated stim.csv",Version68.csv,"Version 68","List 68",textile,,2018,4.964285714,2672,2019,BOI,-,-,"Please name all of the ways you could use this object. Keep in mind that one object can have many uses. Separate your responses with a comma.",,y,50114,,,40781,44871,,,,clothing,0.589
kgcalandra@my.ccsu.edu,lv5onyva5x,"Affordance Norms_CCSU",1,28,2023-03-07T17:17:00+00:00,27.774439096451,18,"updated stim.csv",Version68.csv,"Version 68","List 68",chisel,,2012,5.333333333,531,2013,BOI,-,-,"Please name all of the ways you could use this object. Keep in mind that one object can have many uses. Separate your responses with a comma.",,y,27335,,,9899,26422,,,,"shaping an object, working with wood",0.913
kgcalandra@my.ccsu.edu,lv5onyva5x,"Affordance Norms_CCSU",1,29,2023-03-07T17:17:23+00:00,22.462512969971,18,"updated stim.csv",Version68.csv,"Version 68","List 68",button,,2033,6.153846154,381,2034,BOI,-,-,"Please name all of the ways you could use this object. Keep in mind that one object can have many uses. Separate your responses with a comma.",,y,21584,,,3941,16072,,,,"fasen, holds together clothes or bags",1
kgcalandra@my.ccsu.edu,lv5onyva5x,"Affordance Norms_CCSU",1,30,2023-03-07T17:17:41+00:00,17.922440052032,18,"updated stim.csv",Version68.csv,"Version 68","List 68",dorm,,2036,4.32,830,2037,BOI,-,-,"Please name all of the ways you could use this object. Keep in mind that one object can have many uses. Separate your responses with a comma.",,y,16902,,,2854,15012,,,,"where you stay in college, your own room",1
kgcalandra@my.ccsu.edu,lv5onyva5x,"Affordance Norms_CCSU",1,31,2023-03-07T17:18:06+00:00,25.612268924713,18,"updated stim.csv",Version68.csv,"Version 68","List 68",violinist,,2034,4.47826087,2866,2035,BOI,-,-,"Please name all of the ways you could use this object. Keep in mind that one object can have many uses. Separate your responses with a comma.",,y,25115,,,-1,-1,,,,ambiance,0.712
kgcalandra@my.ccsu.edu,lv5onyva5x,"Affordance Norms_CCSU",1,32,2023-03-07T17:18:51+00:00,45.145108938217,18,"updated stim.csv",Version68.csv,"Version 68","List 68",questionnaire,,2011,4.461538462,2113,2012,BOI,-,-,"Please name all of the ways you could use this object. Keep in mind that one object can have many uses. Separate your responses with a comma.",,y,44740,,,23386,35937,,,,"to gather data from respondents about their attitudes",0.81
kgcalandra@my.ccsu.edu,lv5onyva5x,"Affordance Norms_CCSU",1,33,2023-03-07T17:19:04+00:00,13.138925075531,18,"updated stim.csv",Version68.csv,"Version 68","List 68",ottoman,,2027,5.833333333,1826,2028,BOI,-,-,"Please name all of the ways you could use this object. Keep in mind that one object can have many uses. Separate your responses with a comma.",,y,12603,,,7761,11529,,,,"foot rest, chair",0.918
kgcalandra@my.ccsu.edu,lv5onyva5x,"Affordance Norms_CCSU",1,34,2023-03-07T17:19:37+00:00,32.958257913589,18,"updated stim.csv",Version68.csv,"Version 68","List 68",stoneware,,2029,5.434782609,2546,2030,BOI,-,-,"Please name all of the ways you could use this object. Keep in mind that one object can have many uses. Separate your responses with a comma.",,y,32373,,,11347,31779,,,,"making stoneware, using it to put food on it",0.94
kgcalandra@my.ccsu.edu,lv5onyva5x,"Affordance Norms_CCSU",1,35,2023-03-07T17:20:40+00:00,62.578929185867,18,"updated stim.csv",Version68.csv,"Version 68","List 68",slipknot,,2023,4.84,2416,2024,BOI,-,-,"Please name all of the ways you could use this object. Keep in mind that one object can have many uses. Separate your responses with a comma.",,y,61992,,,20442,51158,,,,"tieing up, fastening a fishing wire to a hook using this knot",0.93
kgcalandra@my.ccsu.edu,lv5onyva5x,"Affordance Norms_CCSU",1,36,2023-03-07T17:20:56+00:00,15.735857963562,18,"updated stim.csv",Version68.csv,"Version 68","List 68",nursery,,2038,4.875,1788,2039,BOI,-,-,"Please name all of the ways you could use this object. Keep in mind that one object can have many uses. Separate your responses with a comma.",,y,14951,,,5387,13546,,,,"A room for the baby, quient space",1
kgcalandra@my.ccsu.edu,lv5onyva5x,"Affordance Norms_CCSU",1,37,2023-03-07T17:21:03+00:00,7.3481428623199,18,"updated stim.csv",Version68.csv,"Version 68","List 68",stitching,,2031,4.444444444,2539,2032,BOI,-,-,"Please name all of the ways you could use this object. Keep in mind that one object can have many uses. Separate your responses with a comma.",,y,6813,,,3332,6626,,,,"fixing clothing",1
kgcalandra@my.ccsu.edu,lv5onyva5x,"Affordance Norms_CCSU",1,38,2023-03-07T17:21:09+00:00,6.4345841407776,18,"updated stim.csv",Version68.csv,"Version 68","List 68",zucchini,,2026,5.923076923,3000,2027,BOI,-,-,"Please name all of the ways you could use this object. Keep in mind that one object can have many uses. Separate your responses with a comma.",,y,6160,,,1206,5967,,,,"eating, making food",1
kgcalandra@my.ccsu.edu,lv5onyva5x,"Affordance Norms_CCSU",1,39,2023-03-07T17:21:19+00:00,9.4088969230652,18,"updated stim.csv",Version68.csv,"Version 68","List 68",servant,,2037,4.782608696,2313,2038,BOI,-,-,"Please name all of the ways you could use this object. Keep in mind that one object can have many uses. Separate your responses with a comma.",,y,8988,,,3027,8738,,,,"helping around the house with chores",1
kgcalandra@my.ccsu.edu,lv5onyva5x,"Affordance Norms_CCSU",1,40,2023-03-07T17:21:52+00:00,33.278702974319,18,"updated stim.csv",Version68.csv,"Version 68","List 68",businessman,,2021,5.25,370,2022,BOI,-,-,"Please name all of the ways you could use this object. Keep in mind that one object can have many uses. Separate your responses with a comma.",,y,32254,,,18738,31183,,,,"negotiation between businesses ",1
kgcalandra@my.ccsu.edu,lv5onyva5x,"Affordance Norms_CCSU",1,41,2023-03-07T17:21:54+00:00,2.0805809497833,18,"updated stim.csv",Version68.csv,"Version 68","List 68",,,,,,0,Instruct,,,"You will now be asked a few questions about your experience today.",,"Instruct 4",1747,,,-1,-1,,,,,1
