"Username","ID","ExperimentName","Session","Trial","Date","TimeDif","Condition.Number","Stimuli.File","Order.File","Condition.Description","Condition.Notes","Stimuli.Cue","Stimuli.Answer","Stimuli.Shuffle","Stimuli.Stimuli.Notes","Stimuli.Value","Procedure.Item","Procedure.Trial.Type","Procedure.Max.Time","Procedure.Min.Time","Procedure.Text","Procedure.Procedure.Notes","Procedure.Shuffle","Response.RT","Response.Response","Response.Accuracy","Response.RTfirst","Response.RTlast","Response.strictAcc","Response.lenientAcc","Response.focus","Response.JOL","Response.Focus"
"J00715674_hel","pj0ekrx1oa","Affordance Norms_South Alabama",1,11,"2023-03-29T17:50:27+00:00",20.455166101456,16,"updated stim.csv","Version16.csv","Version 16","List 16","thigh",NA,454,5.76,2680,455,"BOI","-","-","Please name all of the ways you could use this object. Keep in mind that one object can have many uses. Separate your responses with a comma.",NA,"y",20322,NA,NA,5228,16029,NA,NA,NA,"work out, eat, use to walk, clean",1
"J00715674_hel","pj0ekrx1oa","Affordance Norms_South Alabama",1,12,"2023-03-29T17:51:10+00:00",43.535717010498,16,"updated stim.csv","Version16.csv","Version 16","List 16","lip",NA,463,5.52173913,1521,464,"BOI","-","-","Please name all of the ways you could use this object. Keep in mind that one object can have many uses. Separate your responses with a comma.",NA,"y",43422,NA,NA,2663,25057,NA,NA,NA,"put chapstick, use to talk, paint with makeup, kiss, ",1
"J00715674_hel","pj0ekrx1oa","Affordance Norms_South Alabama",1,13,"2023-03-29T17:52:06+00:00",55.465495824814,16,"updated stim.csv","Version16.csv","Version 16","List 16","cocaine",NA,468,5.913043478,585,469,"BOI","-","-","Please name all of the ways you could use this object. Keep in mind that one object can have many uses. Separate your responses with a comma.",NA,"y",55345,NA,NA,5774,54278,NA,NA,NA,"ingest, snort, roll, smoke, use as a pain reliever, can be used to numb ",1
"J00715674_hel","pj0ekrx1oa","Affordance Norms_South Alabama",1,14,"2023-03-29T17:52:26+00:00",20.268775224686,16,"updated stim.csv","Version16.csv","Version 16","List 16","bayonet",NA,471,4.916666667,174,472,"BOI","-","-","Please name all of the ways you could use this object. Keep in mind that one object can have many uses. Separate your responses with a comma.",NA,"y",20148,NA,NA,18145,19757,NA,NA,NA,"for shade",1
"J00715674_hel","pj0ekrx1oa","Affordance Norms_South Alabama",1,15,"2023-03-29T17:53:07+00:00",40.846394777298,16,"updated stim.csv","Version16.csv","Version 16","List 16","pole",NA,475,5.32,2020,476,"BOI","-","-","Please name all of the ways you could use this object. Keep in mind that one object can have many uses. Separate your responses with a comma.",NA,"y",40724,NA,NA,3484,32229,NA,NA,NA,"climb, slide down, hit, throw, balance on top, ",1
"J00715674_hel","pj0ekrx1oa","Affordance Norms_South Alabama",1,16,"2023-03-29T17:53:36+00:00",28.787608146667,16,"updated stim.csv","Version16.csv","Version 16","List 16","cellar",NA,476,4.6,472,477,"BOI","-","-","Please name all of the ways you could use this object. Keep in mind that one object can have many uses. Separate your responses with a comma.",NA,"y",28672,NA,NA,1755,26937,NA,NA,NA,"store, hide in, get drinks from, use for safety",1
"J00715674_hel","pj0ekrx1oa","Affordance Norms_South Alabama",1,17,"2023-03-29T17:53:39+00:00",2.9556479454041,16,"updated stim.csv","Version16.csv","Version 16","List 16","genital",NA,464,5.826086957,1095,465,"BOI","-","-","Please name all of the ways you could use this object. Keep in mind that one object can have many uses. Separate your responses with a comma.",NA,"y",2873,NA,NA,-1,-1,NA,NA,NA,"",1
"J00715674_hel","pj0ekrx1oa","Affordance Norms_South Alabama",1,18,"2023-03-29T17:54:24+00:00",45.316791057587,16,"updated stim.csv","Version16.csv","Version 16","List 16","checklist",NA,457,4.464285714,501,458,"BOI","-","-","Please name all of the ways you could use this object. Keep in mind that one object can have many uses. Separate your responses with a comma.",NA,"y",45173,NA,NA,7045,44911,NA,NA,NA,"check off, write, take to stores, cross off, keep track of groceries, make a todo list,",1
"J00715674_hel","pj0ekrx1oa","Affordance Norms_South Alabama",1,19,"2023-03-29T17:54:38+00:00",14.159545898438,16,"updated stim.csv","Version16.csv","Version 16","List 16","jean",NA,477,5.956521739,1378,478,"BOI","-","-","Please name all of the ways you could use this object. Keep in mind that one object can have many uses. Separate your responses with a comma.",NA,"y",14027,NA,NA,2348,8829,NA,NA,NA,"wear, craft, ",1
"J00715674_hel","pj0ekrx1oa","Affordance Norms_South Alabama",1,20,"2023-03-29T17:55:00+00:00",21.458539009094,16,"updated stim.csv","Version16.csv","Version 16","List 16","satin",NA,455,5.125,2246,456,"BOI","-","-","Please name all of the ways you could use this object. Keep in mind that one object can have many uses. Separate your responses with a comma.",NA,"y",21322,NA,NA,2084,19943,NA,NA,NA,"wear, pillowcases, make sheets, make beds, ",1
"J00715674_hel","pj0ekrx1oa","Affordance Norms_South Alabama",1,21,"2023-03-29T17:55:12+00:00",12.750643968582,16,"updated stim.csv","Version16.csv","Version 16","List 16","mortician",NA,451,4.833333333,1686,452,"BOI","-","-","Please name all of the ways you could use this object. Keep in mind that one object can have many uses. Separate your responses with a comma.",NA,"y",12650,NA,NA,11275,12341,NA,NA,NA,"funerals",1
"J00715674_hel","pj0ekrx1oa","Affordance Norms_South Alabama",1,22,"2023-03-29T17:55:26+00:00",13.447890043259,16,"updated stim.csv","Version16.csv","Version 16","List 16","paintbox",NA,478,4.44,1848,479,"BOI","-","-","Please name all of the ways you could use this object. Keep in mind that one object can have many uses. Separate your responses with a comma.",NA,"y",13340,NA,NA,3667,10950,NA,NA,NA,"paint, store paints, ",1
"J00715674_hel","pj0ekrx1oa","Affordance Norms_South Alabama",1,23,"2023-03-29T17:56:03+00:00",36.645102977753,16,"updated stim.csv","Version16.csv","Version 16","List 16","apprentice",NA,466,4.321428571,65,467,"BOI","-","-","Please name all of the ways you could use this object. Keep in mind that one object can have many uses. Separate your responses with a comma.",NA,"y",36512,NA,NA,12103,36200,NA,NA,NA,"have do paperwork, have do experiments, coffee runs, food runs",1
"J00715674_hel","pj0ekrx1oa","Affordance Norms_South Alabama",1,24,"2023-03-29T17:56:27+00:00",24.148204088211,16,"updated stim.csv","Version16.csv","Version 16","List 16","collar",NA,469,5.12,600,470,"BOI","-","-","Please name all of the ways you could use this object. Keep in mind that one object can have many uses. Separate your responses with a comma.",NA,"y",24025,NA,NA,4191,19772,NA,NA,NA,"put on pet, hang it up, attach leashes, ",1
"J00715674_hel","pj0ekrx1oa","Affordance Norms_South Alabama",1,25,"2023-03-29T17:56:40+00:00",12.876256942749,16,"updated stim.csv","Version16.csv","Version 16","List 16","stoop",NA,473,4.5,2548,474,"BOI","-","-","Please name all of the ways you could use this object. Keep in mind that one object can have many uses. Separate your responses with a comma.",NA,"y",12733,NA,NA,2040,11403,NA,NA,NA,"sit on, stand on, squat on",1
"J00715674_hel","pj0ekrx1oa","Affordance Norms_South Alabama",1,26,"2023-03-29T17:57:07+00:00",26.983083963394,16,"updated stim.csv","Version16.csv","Version 16","List 16","nickel",NA,467,5.814814815,1766,468,"BOI","-","-","Please name all of the ways you could use this object. Keep in mind that one object can have many uses. Separate your responses with a comma.",NA,"y",26853,NA,NA,3405,24960,NA,NA,NA,"use to pay, flip, scratch lotto scratchers, spin",1
"J00715674_hel","pj0ekrx1oa","Affordance Norms_South Alabama",1,27,"2023-03-29T17:57:21+00:00",14.879961013794,16,"updated stim.csv","Version16.csv","Version 16","List 16","mutton",NA,474,5,1729,475,"BOI","-","-","Please name all of the ways you could use this object. Keep in mind that one object can have many uses. Separate your responses with a comma.",NA,"y",14782,NA,NA,2340,14332,NA,NA,NA,"eat, cook, season",1
"J00715674_hel","pj0ekrx1oa","Affordance Norms_South Alabama",1,28,"2023-03-29T17:57:45+00:00",23.940432071686,16,"updated stim.csv","Version16.csv","Version 16","List 16","note",NA,459,5.434782609,1781,460,"BOI","-","-","Please name all of the ways you could use this object. Keep in mind that one object can have many uses. Separate your responses with a comma.",NA,"y",23813,NA,NA,1247,23244,NA,NA,NA,"write, give, fold, receive, leave to inform someone ",1
"J00715674_hel","pj0ekrx1oa","Affordance Norms_South Alabama",1,29,"2023-03-29T17:58:14+00:00",28.924535989761,16,"updated stim.csv","Version16.csv","Version 16","List 16","coal",NA,458,4.875,579,459,"BOI","-","-","Please name all of the ways you could use this object. Keep in mind that one object can have many uses. Separate your responses with a comma.",NA,"y",28804,NA,NA,1569,24991,NA,NA,NA,"light a fire, use for grilling, put in stockings, use to make diamonds, ",1
"J00715674_hel","pj0ekrx1oa","Affordance Norms_South Alabama",1,30,"2023-03-29T17:58:20+00:00",5.7613289356232,16,"updated stim.csv","Version16.csv","Version 16","List 16","rupee",NA,480,4.826086957,2208,481,"BOI","-","-","Please name all of the ways you could use this object. Keep in mind that one object can have many uses. Separate your responses with a comma.",NA,"y",5680,NA,NA,-1,-1,NA,NA,NA,"",1
"J00715674_hel","pj0ekrx1oa","Affordance Norms_South Alabama",1,31,"2023-03-29T17:58:45+00:00",24.69766497612,16,"updated stim.csv","Version16.csv","Version 16","List 16","linen",NA,462,5.875,1517,463,"BOI","-","-","Please name all of the ways you could use this object. Keep in mind that one object can have many uses. Separate your responses with a comma.",NA,"y",24575,NA,NA,4172,21627,NA,NA,NA,"fold, clean, dry, put on beds, bleach, dye ",1
"J00715674_hel","pj0ekrx1oa","Affordance Norms_South Alabama",1,32,"2023-03-29T17:59:23+00:00",37.783100128174,16,"updated stim.csv","Version16.csv","Version 16","List 16","lake",NA,465,5.035714286,1452,466,"BOI","-","-","Please name all of the ways you could use this object. Keep in mind that one object can have many uses. Separate your responses with a comma.",NA,"y",37634,NA,NA,1786,35984,NA,NA,NA,"swim, boating, paddle boarding, canoeing, clean water, ",1
"J00715674_hel","pj0ekrx1oa","Affordance Norms_South Alabama",1,33,"2023-03-29T17:59:25+00:00",2.899482011795,16,"updated stim.csv","Version16.csv","Version 16","List 16","paraphernalia",NA,472,4.5,1871,473,"BOI","-","-","Please name all of the ways you could use this object. Keep in mind that one object can have many uses. Separate your responses with a comma.",NA,"y",2672,NA,NA,-1,-1,NA,NA,NA,"",1
"J00715674_hel","pj0ekrx1oa","Affordance Norms_South Alabama",1,34,"2023-03-29T17:59:36+00:00",10.65978884697,16,"updated stim.csv","Version16.csv","Version 16","List 16","sardine",NA,453,4.869565217,2242,454,"BOI","-","-","Please name all of the ways you could use this object. Keep in mind that one object can have many uses. Separate your responses with a comma.",NA,"y",10552,NA,NA,1623,7335,NA,NA,NA,"eat, cook",1
"J00715674_hel","pj0ekrx1oa","Affordance Norms_South Alabama",1,35,"2023-03-29T17:59:59+00:00",22.756567001343,16,"updated stim.csv","Version16.csv","Version 16","List 16","scientist",NA,456,4.47826087,2274,457,"BOI","-","-","Please name all of the ways you could use this object. Keep in mind that one object can have many uses. Separate your responses with a comma.",NA,"y",22597,NA,NA,10307,17733,NA,NA,NA,"get research, ",1
"J00715674_hel","pj0ekrx1oa","Affordance Norms_South Alabama",1,36,"2023-03-29T18:00:45+00:00",45.894991159439,16,"updated stim.csv","Version16.csv","Version 16","List 16","soap",NA,452,6.434782609,2437,453,"BOI","-","-","Please name all of the ways you could use this object. Keep in mind that one object can have many uses. Separate your responses with a comma.",NA,"y",45748,NA,NA,1985,34644,NA,NA,NA,"clean clothes, wash dishes, slip in slide, wash pets, wash hands, ",1
"J00715674_hel","pj0ekrx1oa","Affordance Norms_South Alabama",1,37,"2023-03-29T18:01:11+00:00",26.188098907471,16,"updated stim.csv","Version16.csv","Version 16","List 16","spatula",NA,461,5.708333333,2463,462,"BOI","-","-","Please name all of the ways you could use this object. Keep in mind that one object can have many uses. Separate your responses with a comma.",NA,"y",26042,NA,NA,1643,22552,NA,NA,NA,"flip food, mix food, hit someone with, cut food, ",1
"J00715674_hel","pj0ekrx1oa","Affordance Norms_South Alabama",1,38,"2023-03-29T18:01:35+00:00",24.094558000565,16,"updated stim.csv","Version16.csv","Version 16","List 16","policewoman",NA,479,4.904761905,2023,480,"BOI","-","-","Please name all of the ways you could use this object. Keep in mind that one object can have many uses. Separate your responses with a comma.",NA,"y",23967,NA,NA,2056,19853,NA,NA,NA,"arrest, stop civil disputes, simple first aid, ",1
"J00715674_hel","pj0ekrx1oa","Affordance Norms_South Alabama",1,39,"2023-03-29T18:02:06+00:00",31.141819953918,16,"updated stim.csv","Version16.csv","Version 16","List 16","easel",NA,470,4.72,885,471,"BOI","-","-","Please name all of the ways you could use this object. Keep in mind that one object can have many uses. Separate your responses with a comma.",NA,"y",31018,NA,NA,1772,16589,NA,NA,NA,"holds paintings, paint on, use to draw on, ",1
"J00715674_hel","pj0ekrx1oa","Affordance Norms_South Alabama",1,40,"2023-03-29T18:02:20+00:00",14.310842037201,16,"updated stim.csv","Version16.csv","Version 16","List 16","raindrop",NA,460,5.208333333,2131,461,"BOI","-","-","Please name all of the ways you could use this object. Keep in mind that one object can have many uses. Separate your responses with a comma.",NA,"y",14202,NA,NA,1817,13317,NA,NA,NA,"clean, rain, drink",1
"J00715698BT","h7prcislo4","Affordance Norms_South Alabama",1,11,"2023-03-15T13:03:00+00:00",27.743584871292,84,"updated stim.csv","Version84.csv","Version 84","List 84","woodpile",NA,2508,5,2962,2509,"BOI","-","-","Please name all of the ways you could use this object. Keep in mind that one object can have many uses. Separate your responses with a comma.",NA,"y",27566,NA,NA,17489,26328,NA,NA,NA,"burn, cut,",1
"J00715698BT","h7prcislo4","Affordance Norms_South Alabama",1,12,"2023-03-15T13:03:22+00:00",21.844053983688,84,"updated stim.csv","Version84.csv","Version 84","List 84","lamp",NA,2515,6.083333333,1455,2516,"BOI","-","-","Please name all of the ways you could use this object. Keep in mind that one object can have many uses. Separate your responses with a comma.",NA,"y",21680,NA,NA,10791,20114,NA,NA,NA,"cut on, cut off, decorate",1
"J00715698BT","h7prcislo4","Affordance Norms_South Alabama",1,13,"2023-03-15T13:03:57+00:00",34.514226198196,84,"updated stim.csv","Version84.csv","Version 84","List 84","foliage",NA,2511,4.6,1025,2512,"BOI","-","-","Please name all of the ways you could use this object. Keep in mind that one object can have many uses. Separate your responses with a comma.",NA,"y",34339,NA,NA,8936,31711,NA,NA,NA,"plant",1
"J00715698BT","h7prcislo4","Affordance Norms_South Alabama",1,14,"2023-03-15T13:04:16+00:00",19.498970985413,84,"updated stim.csv","Version84.csv","Version 84","List 84","toothpick",NA,2494,6.375,2734,2495,"BOI","-","-","Please name all of the ways you could use this object. Keep in mind that one object can have many uses. Separate your responses with a comma.",NA,"y",19303,NA,NA,3764,16529,NA,NA,NA,"clean teeth, cook food,",1
"J00715698BT","h7prcislo4","Affordance Norms_South Alabama",1,15,"2023-03-15T13:04:51+00:00",34.865370988846,84,"updated stim.csv","Version84.csv","Version 84","List 84","drapery",NA,2506,4.68,838,2507,"BOI","-","-","Please name all of the ways you could use this object. Keep in mind that one object can have many uses. Separate your responses with a comma.",NA,"y",34677,NA,NA,19503,31643,NA,NA,NA,"put over windows.",1
"J00715698BT","h7prcislo4","Affordance Norms_South Alabama",1,16,"2023-03-15T13:05:10+00:00",18.61438202858,84,"updated stim.csv","Version84.csv","Version 84","List 84","coffin",NA,2498,5.52,594,2499,"BOI","-","-","Please name all of the ways you could use this object. Keep in mind that one object can have many uses. Separate your responses with a comma.",NA,"y",18435,NA,NA,4857,12493,NA,NA,NA,"use for the decease.",1
"J00715698BT","h7prcislo4","Affordance Norms_South Alabama",1,17,"2023-03-15T13:05:47+00:00",37.095042943954,84,"updated stim.csv","Version84.csv","Version 84","List 84","shamrock",NA,2507,4.5,2321,2508,"BOI","-","-","Please name all of the ways you could use this object. Keep in mind that one object can have many uses. Separate your responses with a comma.",NA,"y",36918,NA,NA,2999,32628,NA,NA,NA,"put in drink, use for good luck, decoration.",1
"J00715698BT","h7prcislo4","Affordance Norms_South Alabama",1,18,"2023-03-15T13:05:56+00:00",9.5849390029907,84,"updated stim.csv","Version84.csv","Version 84","List 84","plank",NA,2516,4.92,1987,2517,"BOI","-","-","Please name all of the ways you could use this object. Keep in mind that one object can have many uses. Separate your responses with a comma.",NA,"y",9429,NA,NA,6156,7421,NA,NA,NA,"walking",1
"J00715698BT","h7prcislo4","Affordance Norms_South Alabama",1,19,"2023-03-15T13:06:22+00:00",25.864456892014,84,"updated stim.csv","Version84.csv","Version 84","List 84","drum",NA,2497,5.8,854,2498,"BOI","-","-","Please name all of the ways you could use this object. Keep in mind that one object can have many uses. Separate your responses with a comma.",NA,"y",25680,NA,NA,5585,23631,NA,NA,NA,"play it, sit on it, fight with it",1
"J00715698BT","h7prcislo4","Affordance Norms_South Alabama",1,20,"2023-03-15T13:06:50+00:00",27.218337059021,84,"updated stim.csv","Version84.csv","Version 84","List 84","storehouse",NA,2504,4.5,2551,2505,"BOI","-","-","Please name all of the ways you could use this object. Keep in mind that one object can have many uses. Separate your responses with a comma.",NA,"y",27036,NA,NA,3278,24010,NA,NA,NA,"store items",1
"J00715698BT","h7prcislo4","Affordance Norms_South Alabama",1,21,"2023-03-15T13:07:39+00:00",49.540241003036,84,"updated stim.csv","Version84.csv","Version 84","List 84","men",NA,2509,5.72,1644,2510,"BOI","-","-","Please name all of the ways you could use this object. Keep in mind that one object can have many uses. Separate your responses with a comma.",NA,"y",49387,NA,NA,8030,48189,NA,NA,NA," become workers, fathers, husbands, children, uncles, pastor, etc.",1
"J00715698BT","h7prcislo4","Affordance Norms_South Alabama",1,22,"2023-03-15T13:08:43+00:00",63.49911904335,84,"updated stim.csv","Version84.csv","Version 84","List 84","ecologist",NA,2493,4.458333333,887,2494,"BOI","-","-","Please name all of the ways you could use this object. Keep in mind that one object can have many uses. Separate your responses with a comma.",NA,"y",63348,NA,NA,34438,55307,NA,NA,NA,"study organisms ",0.993
"J00715698BT","h7prcislo4","Affordance Norms_South Alabama",1,23,"2023-03-15T13:08:49+00:00",6.3821120262146,84,"updated stim.csv","Version84.csv","Version 84","List 84","lamplighter",NA,2514,4.263157895,1457,2515,"BOI","-","-","Please name all of the ways you could use this object. Keep in mind that one object can have many uses. Separate your responses with a comma.",NA,"y",6241,NA,NA,2750,5072,NA,NA,NA,"light a lamp",1
"J00715698BT","h7prcislo4","Affordance Norms_South Alabama",1,24,"2023-03-15T13:08:59+00:00",9.5335519313812,84,"updated stim.csv","Version84.csv","Version 84","List 84","strudel",NA,2505,5.666666667,2572,2506,"BOI","-","-","Please name all of the ways you could use this object. Keep in mind that one object can have many uses. Separate your responses with a comma.",NA,"y",9373,NA,NA,1775,8264,NA,NA,NA,"eat, bake, fry",1
"J00715698BT","h7prcislo4","Affordance Norms_South Alabama",1,25,"2023-03-15T13:09:31+00:00",32.675806999207,84,"updated stim.csv","Version84.csv","Version 84","List 84","microwave",NA,2519,5.28,1656,2520,"BOI","-","-","Please name all of the ways you could use this object. Keep in mind that one object can have many uses. Separate your responses with a comma.",NA,"y",32521,NA,NA,2530,31156,NA,NA,NA,"warm up food, and drinks",1
"J00715698BT","h7prcislo4","Affordance Norms_South Alabama",1,26,"2023-03-15T13:10:11+00:00",40.16096496582,84,"updated stim.csv","Version84.csv","Version 84","List 84","chain",NA,2499,5.958333333,484,2500,"BOI","-","-","Please name all of the ways you could use this object. Keep in mind that one object can have many uses. Separate your responses with a comma.",NA,"y",39968,NA,NA,1761,33852,NA,NA,NA,"wear, fix items ",1
"J00715698BT","h7prcislo4","Affordance Norms_South Alabama",1,27,"2023-03-15T13:10:29+00:00",17.567184925079,84,"updated stim.csv","Version84.csv","Version 84","List 84","lever",NA,2492,5.038461538,1498,2493,"BOI","-","-","Please name all of the ways you could use this object. Keep in mind that one object can have many uses. Separate your responses with a comma.",NA,"y",17378,NA,NA,2130,5587,NA,NA,NA,"pull, push",1
"J00715698BT","h7prcislo4","Affordance Norms_South Alabama",1,28,"2023-03-15T13:10:57+00:00",27.903098106384,84,"updated stim.csv","Version84.csv","Version 84","List 84","feather",NA,2517,5.260869565,956,2518,"BOI","-","-","Please name all of the ways you could use this object. Keep in mind that one object can have many uses. Separate your responses with a comma.",NA,"y",27732,NA,NA,2796,26424,NA,NA,NA,"wear, dust, pluck, clean, comb",1
"J00715698BT","h7prcislo4","Affordance Norms_South Alabama",1,29,"2023-03-15T13:11:16+00:00",19.361905097961,84,"updated stim.csv","Version84.csv","Version 84","List 84","flycatcher",NA,2491,5.375,1020,2492,"BOI","-","-","Please name all of the ways you could use this object. Keep in mind that one object can have many uses. Separate your responses with a comma.",NA,"y",19189,NA,NA,2486,18013,NA,NA,NA,"catch flies, and other insects.",1
"J00715698BT","h7prcislo4","Affordance Norms_South Alabama",1,30,"2023-03-15T13:11:30+00:00",14.124169826508,84,"updated stim.csv","Version84.csv","Version 84","List 84","grocery",NA,2512,5.068965517,1179,2513,"BOI","-","-","Please name all of the ways you could use this object. Keep in mind that one object can have many uses. Separate your responses with a comma.",NA,"y",13949,NA,NA,1629,12461,NA,NA,NA,"buy, eat, resale, ",1
"J00715698BT","h7prcislo4","Affordance Norms_South Alabama",1,31,"2023-03-15T13:11:40+00:00",10.087944984436,84,"updated stim.csv","Version84.csv","Version 84","List 84","hatchback",NA,2513,4.818181818,1260,2514,"BOI","-","-","Please name all of the ways you could use this object. Keep in mind that one object can have many uses. Separate your responses with a comma.",NA,"y",9893,NA,NA,1958,8147,NA,NA,NA,"drive",1
"J00715698BT","h7prcislo4","Affordance Norms_South Alabama",1,32,"2023-03-15T13:12:04+00:00",23.120047092438,84,"updated stim.csv","Version84.csv","Version 84","List 84","earthworm",NA,2495,4.916666667,883,2496,"BOI","-","-","Please name all of the ways you could use this object. Keep in mind that one object can have many uses. Separate your responses with a comma.",NA,"y",22951,NA,NA,2050,17493,NA,NA,NA,"use for bait, grow plants, ",1
"J00715698BT","h7prcislo4","Affordance Norms_South Alabama",1,33,"2023-03-15T13:13:15+00:00",71.071095943451,84,"updated stim.csv","Version84.csv","Version 84","List 84","virgin",NA,2500,4.448275862,2867,2501,"BOI","-","-","Please name all of the ways you could use this object. Keep in mind that one object can have many uses. Separate your responses with a comma.",NA,"y",70888,NA,NA,47953,68215,NA,NA,NA,"use as an example, lead friend group",1
"J00715698BT","h7prcislo4","Affordance Norms_South Alabama",1,34,"2023-03-15T13:13:41+00:00",26.152441978455,84,"updated stim.csv","Version84.csv","Version 84","List 84","insole",NA,2510,4.454545455,1358,2511,"BOI","-","-","Please name all of the ways you could use this object. Keep in mind that one object can have many uses. Separate your responses with a comma.",NA,"y",25996,NA,NA,22083,24493,NA,NA,NA,"wear in shoes",1
"J00715698BT","h7prcislo4","Affordance Norms_South Alabama",1,35,"2023-03-15T13:13:50+00:00",9.3751759529114,84,"updated stim.csv","Version84.csv","Version 84","List 84","lifeguard",NA,2520,4.96,1506,2521,"BOI","-","-","Please name all of the ways you could use this object. Keep in mind that one object can have many uses. Separate your responses with a comma.",NA,"y",9265,NA,NA,1739,5722,NA,NA,NA,"save lives",1
"J00715698BT","h7prcislo4","Affordance Norms_South Alabama",1,36,"2023-03-15T13:14:37+00:00",47.359665155411,84,"updated stim.csv","Version84.csv","Version 84","List 84","file",NA,2502,5.041666667,974,2503,"BOI","-","-","Please name all of the ways you could use this object. Keep in mind that one object can have many uses. Separate your responses with a comma.",NA,"y",47174,NA,NA,4535,41729,NA,NA,NA,"use to separate documents.",0.996
"J00715698BT","h7prcislo4","Affordance Norms_South Alabama",1,37,"2023-03-15T13:14:51+00:00",13.13805103302,84,"updated stim.csv","Version84.csv","Version 84","List 84","bait",NA,2503,4.375,125,2504,"BOI","-","-","Please name all of the ways you could use this object. Keep in mind that one object can have many uses. Separate your responses with a comma.",NA,"y",12956,NA,NA,1745,6579,NA,NA,NA,"use to catch fish.",0.969
"J00715698BT","h7prcislo4","Affordance Norms_South Alabama",1,38,"2023-03-15T13:15:16+00:00",25.621328830719,84,"updated stim.csv","Version84.csv","Version 84","List 84","spade",NA,2496,4.4,2460,2497,"BOI","-","-","Please name all of the ways you could use this object. Keep in mind that one object can have many uses. Separate your responses with a comma.",NA,"y",25467,NA,NA,4889,22651,NA,NA,NA,"a card game",1
"J00715698BT","h7prcislo4","Affordance Norms_South Alabama",1,39,"2023-03-15T13:15:55+00:00",39.070512056351,84,"updated stim.csv","Version84.csv","Version 84","List 84","whirlpool",NA,2501,4.565217391,2926,2502,"BOI","-","-","Please name all of the ways you could use this object. Keep in mind that one object can have many uses. Separate your responses with a comma.",NA,"y",38826,NA,NA,4959,33506,NA,NA,NA,"clean clothes, clean dishes, cool and freezes food",0.995
"J00715698BT","h7prcislo4","Affordance Norms_South Alabama",1,40,"2023-03-15T13:16:04+00:00",8.4484241008759,84,"updated stim.csv","Version84.csv","Version 84","List 84","board",NA,2518,4.48,253,2519,"BOI","-","-","Please name all of the ways you could use this object. Keep in mind that one object can have many uses. Separate your responses with a comma.",NA,"y",8183,NA,NA,2971,6768,NA,NA,NA,"write on",1
"J00715804AMW","oltkk3t64h","Affordance Norms_South Alabama",1,11,"2023-04-24T21:25:43+00:00",25.984241962433,34,"updated stim.csv","Version34.csv","Version 34","List 34","hammock",NA,1008,6.166666667,1224,1009,"BOI","-","-","Please name all of the ways you could use this object. Keep in mind that one object can have many uses. Separate your responses with a comma.",NA,"y",25857,NA,NA,1743,23662,NA,NA,NA,"swing, relax, read, nap, sunbathe",1
"J00715804AMW","oltkk3t64h","Affordance Norms_South Alabama",1,12,"2023-04-24T21:25:52+00:00",8.8331708908081,34,"updated stim.csv","Version34.csv","Version 34","List 34","lobbyist",NA,1012,4.4,1532,1013,"BOI","-","-","Please name all of the ways you could use this object. Keep in mind that one object can have many uses. Separate your responses with a comma.",NA,"y",8737,NA,NA,3650,4508,NA,NA,NA,"job",1
"J00715804AMW","oltkk3t64h","Affordance Norms_South Alabama",1,13,"2023-04-24T21:26:15+00:00",22.654309034348,34,"updated stim.csv","Version34.csv","Version 34","List 34","scoop",NA,999,4.28,2277,1000,"BOI","-","-","Please name all of the ways you could use this object. Keep in mind that one object can have many uses. Separate your responses with a comma.",NA,"y",22477,NA,NA,11820,18259,NA,NA,NA,"clean, filter",1
"J00715804AMW","oltkk3t64h","Affordance Norms_South Alabama",1,14,"2023-04-24T21:26:32+00:00",16.794215917587,34,"updated stim.csv","Version34.csv","Version 34","List 34","beanstalk",NA,993,4.5,181,994,"BOI","-","-","Please name all of the ways you could use this object. Keep in mind that one object can have many uses. Separate your responses with a comma.",NA,"y",16672,NA,NA,2581,13704,NA,NA,NA,"cook, eat",1
"J00715804AMW","oltkk3t64h","Affordance Norms_South Alabama",1,15,"2023-04-24T21:27:04+00:00",32.311881065369,34,"updated stim.csv","Version34.csv","Version 34","List 34","tongue",NA,1013,5.928571429,2728,1014,"BOI","-","-","Please name all of the ways you could use this object. Keep in mind that one object can have many uses. Separate your responses with a comma.",NA,"y",32171,NA,NA,1907,20735,NA,NA,NA,"taste, speak, lick, kiss",1
"J00715804AMW","oltkk3t64h","Affordance Norms_South Alabama",1,16,"2023-04-24T21:27:13+00:00",8.7650649547577,34,"updated stim.csv","Version34.csv","Version 34","List 34","bellflower",NA,1010,4.428571429,198,1011,"BOI","-","-","Please name all of the ways you could use this object. Keep in mind that one object can have many uses. Separate your responses with a comma.",NA,"y",8672,NA,NA,4777,7818,NA,NA,NA,"decoration",1
"J00715804AMW","oltkk3t64h","Affordance Norms_South Alabama",1,17,"2023-04-24T21:27:31+00:00",18.313616991043,34,"updated stim.csv","Version34.csv","Version 34","List 34","shower",NA,1015,5.391304348,2364,1016,"BOI","-","-","Please name all of the ways you could use this object. Keep in mind that one object can have many uses. Separate your responses with a comma.",NA,"y",18093,NA,NA,1594,11082,NA,NA,NA,"clean, shampoo, wash",1
"J00715804AMW","oltkk3t64h","Affordance Norms_South Alabama",1,18,"2023-04-24T21:27:47+00:00",15.98422908783,34,"updated stim.csv","Version34.csv","Version 34","List 34","macaroon",NA,1003,4.346153846,1563,1004,"BOI","-","-","Please name all of the ways you could use this object. Keep in mind that one object can have many uses. Separate your responses with a comma.",NA,"y",15619,NA,NA,1534,13789,NA,NA,NA,"eat, make, serve",1
"J00715804AMW","oltkk3t64h","Affordance Norms_South Alabama",1,19,"2023-04-24T21:28:32+00:00",45.602874040604,34,"updated stim.csv","Version34.csv","Version 34","List 34","terrier",NA,995,5.416666667,2668,996,"BOI","-","-","Please name all of the ways you could use this object. Keep in mind that one object can have many uses. Separate your responses with a comma.",NA,"y",45480,NA,NA,12643,40814,NA,NA,NA,"walk, feed, pet, play",1
"J00715804AMW","oltkk3t64h","Affordance Norms_South Alabama",1,20,"2023-04-24T21:28:46+00:00",13.811853885651,34,"updated stim.csv","Version34.csv","Version 34","List 34","foghorn",NA,997,4.583333333,1023,998,"BOI","-","-","Please name all of the ways you could use this object. Keep in mind that one object can have many uses. Separate your responses with a comma.",NA,"y",13708,NA,NA,2452,10657,NA,NA,NA,"alarm, play",1
"J00715804AMW","oltkk3t64h","Affordance Norms_South Alabama",1,21,"2023-04-24T21:29:02+00:00",15.434836149216,34,"updated stim.csv","Version34.csv","Version 34","List 34","catfish",NA,1016,5,459,1017,"BOI","-","-","Please name all of the ways you could use this object. Keep in mind that one object can have many uses. Separate your responses with a comma.",NA,"y",15340,NA,NA,2507,9383,NA,NA,NA,"eat, catch, serve, cook",1
"J00715804AMW","oltkk3t64h","Affordance Norms_South Alabama",1,22,"2023-04-24T21:29:30+00:00",27.953815937042,34,"updated stim.csv","Version34.csv","Version 34","List 34","mandolin",NA,1011,5.304347826,1587,1012,"BOI","-","-","Please name all of the ways you could use this object. Keep in mind that one object can have many uses. Separate your responses with a comma.",NA,"y",27827,NA,NA,18661,26333,NA,NA,NA,"play, destroy",1
"J00715804AMW","oltkk3t64h","Affordance Norms_South Alabama",1,23,"2023-04-24T21:29:57+00:00",27.637537002563,34,"updated stim.csv","Version34.csv","Version 34","List 34","phonograph",NA,1006,4.423076923,1941,1007,"BOI","-","-","Please name all of the ways you could use this object. Keep in mind that one object can have many uses. Separate your responses with a comma.",NA,"y",27465,NA,NA,16145,25497,NA,NA,NA,"send message",1
"J00715804AMW","oltkk3t64h","Affordance Norms_South Alabama",1,24,"2023-04-24T21:30:11+00:00",13.451185941696,34,"updated stim.csv","Version34.csv","Version 34","List 34","shelf",NA,1018,4.782608696,2332,1019,"BOI","-","-","Please name all of the ways you could use this object. Keep in mind that one object can have many uses. Separate your responses with a comma.",NA,"y",13327,NA,NA,2019,11940,NA,NA,NA,"place, storage, balance",1
"J00715804AMW","oltkk3t64h","Affordance Norms_South Alabama",1,25,"2023-04-24T21:30:32+00:00",20.840682029724,34,"updated stim.csv","Version34.csv","Version 34","List 34","jaw",NA,1009,5.5,1376,1010,"BOI","-","-","Please name all of the ways you could use this object. Keep in mind that one object can have many uses. Separate your responses with a comma.",NA,"y",20696,NA,NA,1718,18592,NA,NA,NA,"move it, eat, talk, chew, swallow",1
"J00715804AMW","oltkk3t64h","Affordance Norms_South Alabama",1,26,"2023-04-24T21:30:51+00:00",19.449373960495,34,"updated stim.csv","Version34.csv","Version 34","List 34","loincloth",NA,1007,4.833333333,1544,1008,"BOI","-","-","Please name all of the ways you could use this object. Keep in mind that one object can have many uses. Separate your responses with a comma.",NA,"y",19351,NA,NA,16209,18017,NA,NA,NA,"clothes",1
"J00715804AMW","oltkk3t64h","Affordance Norms_South Alabama",1,27,"2023-04-24T21:31:14+00:00",22.800434112549,34,"updated stim.csv","Version34.csv","Version 34","List 34","labrador",NA,1001,5.074074074,1444,1002,"BOI","-","-","Please name all of the ways you could use this object. Keep in mind that one object can have many uses. Separate your responses with a comma.",NA,"y",22662,NA,NA,3485,15479,NA,NA,NA,"pet, feed, walk",1
"J00715804AMW","oltkk3t64h","Affordance Norms_South Alabama",1,28,"2023-04-24T21:31:36+00:00",22.39099407196,34,"updated stim.csv","Version34.csv","Version 34","List 34","throat",NA,996,5.347826087,2685,997,"BOI","-","-","Please name all of the ways you could use this object. Keep in mind that one object can have many uses. Separate your responses with a comma.",NA,"y",22190,NA,NA,1587,20809,NA,NA,NA,"swallow, cough, breath",1
"J00715804AMW","oltkk3t64h","Affordance Norms_South Alabama",1,29,"2023-04-24T21:31:50+00:00",13.808419942856,34,"updated stim.csv","Version34.csv","Version 34","List 34","gold",NA,1004,4.75,1132,1005,"BOI","-","-","Please name all of the ways you could use this object. Keep in mind that one object can have many uses. Separate your responses with a comma.",NA,"y",13668,NA,NA,1687,12750,NA,NA,NA,"buy, sell, decoration",1
"J00715804AMW","oltkk3t64h","Affordance Norms_South Alabama",1,30,"2023-04-24T21:31:58+00:00",7.963987827301,34,"updated stim.csv","Version34.csv","Version 34","List 34","mutt",NA,1014,4.958333333,1728,1015,"BOI","-","-","Please name all of the ways you could use this object. Keep in mind that one object can have many uses. Separate your responses with a comma.",NA,"y",7866,NA,NA,1887,6507,NA,NA,NA,"pet, walk, feed",1
"J00715804AMW","oltkk3t64h","Affordance Norms_South Alabama",1,31,"2023-04-24T21:32:07+00:00",8.8118720054626,34,"updated stim.csv","Version34.csv","Version 34","List 34","wallpaper",NA,1000,4.875,2889,1001,"BOI","-","-","Please name all of the ways you could use this object. Keep in mind that one object can have many uses. Separate your responses with a comma.",NA,"y",8727,NA,NA,1764,4605,NA,NA,NA,"decorate",1
"J00715804AMW","oltkk3t64h","Affordance Norms_South Alabama",1,32,"2023-04-24T21:32:29+00:00",22.38550901413,34,"updated stim.csv","Version34.csv","Version 34","List 34","pinwheel",NA,1002,5.8,1975,1003,"BOI","-","-","Please name all of the ways you could use this object. Keep in mind that one object can have many uses. Separate your responses with a comma.",NA,"y",22225,NA,NA,18059,20032,NA,NA,NA,"decoration",1
"J00715804AMW","oltkk3t64h","Affordance Norms_South Alabama",1,33,"2023-04-24T21:32:43+00:00",13.414422988892,34,"updated stim.csv","Version34.csv","Version 34","List 34","anklet",NA,1020,5.708333333,43,1021,"BOI","-","-","Please name all of the ways you could use this object. Keep in mind that one object can have many uses. Separate your responses with a comma.",NA,"y",13298,NA,NA,3242,10008,NA,NA,NA,"jewelry",1
"J00715804AMW","oltkk3t64h","Affordance Norms_South Alabama",1,34,"2023-04-24T21:32:54+00:00",11.045029163361,34,"updated stim.csv","Version34.csv","Version 34","List 34","griddle",NA,992,5.739130435,1175,993,"BOI","-","-","Please name all of the ways you could use this object. Keep in mind that one object can have many uses. Separate your responses with a comma.",NA,"y",10926,NA,NA,1612,7344,NA,NA,NA,"cook, blacken",1
"J00715804AMW","oltkk3t64h","Affordance Norms_South Alabama",1,35,"2023-04-24T21:33:00+00:00",5.9210999011993,34,"updated stim.csv","Version34.csv","Version 34","List 34","wafer",NA,1017,5.909090909,2877,1018,"BOI","-","-","Please name all of the ways you could use this object. Keep in mind that one object can have many uses. Separate your responses with a comma.",NA,"y",5813,NA,NA,2391,3129,NA,NA,NA,"eat",1
"J00715804AMW","oltkk3t64h","Affordance Norms_South Alabama",1,36,"2023-04-24T21:33:20+00:00",19.927196025848,34,"updated stim.csv","Version34.csv","Version 34","List 34","popcorn",NA,994,6,2035,995,"BOI","-","-","Please name all of the ways you could use this object. Keep in mind that one object can have many uses. Separate your responses with a comma.",NA,"y",19828,NA,NA,1314,18736,NA,NA,NA,"eat, serve",1
"J00715804AMW","oltkk3t64h","Affordance Norms_South Alabama",1,37,"2023-04-24T21:33:29+00:00",9.3667418956757,34,"updated stim.csv","Version34.csv","Version 34","List 34","logbook",NA,998,5.565217391,1542,999,"BOI","-","-","Please name all of the ways you could use this object. Keep in mind that one object can have many uses. Separate your responses with a comma.",NA,"y",9274,NA,NA,2282,7262,NA,NA,NA,"write in it",1
"J00715804AMW","oltkk3t64h","Affordance Norms_South Alabama",1,38,"2023-04-24T21:33:39+00:00",10.448910236359,34,"updated stim.csv","Version34.csv","Version 34","List 34","gravy",NA,1019,5.333333333,1167,1020,"BOI","-","-","Please name all of the ways you could use this object. Keep in mind that one object can have many uses. Separate your responses with a comma.",NA,"y",10305,NA,NA,1400,8645,NA,NA,NA,"eat, garnish",1
"J00715804AMW","oltkk3t64h","Affordance Norms_South Alabama",1,39,"2023-04-24T21:34:09+00:00",29.993210792542,34,"updated stim.csv","Version34.csv","Version 34","List 34","nectar",NA,1005,4.608695652,1744,1006,"BOI","-","-","Please name all of the ways you could use this object. Keep in mind that one object can have many uses. Separate your responses with a comma.",NA,"y",29856,NA,NA,2176,28474,NA,NA,NA,"eat, plant fertilizer",1
"J00715804AMW","oltkk3t64h","Affordance Norms_South Alabama",1,40,"2023-04-24T21:34:23+00:00",13.670062065125,34,"updated stim.csv","Version34.csv","Version 34","List 34","tortilla",NA,991,6.037037037,2740,992,"BOI","-","-","Please name all of the ways you could use this object. Keep in mind that one object can have many uses. Separate your responses with a comma.",NA,"y",13588,NA,NA,1154,12484,NA,NA,NA,"eat, make tacos, serve",1
"J00716045_jrj","3u98hoxkc8","Affordance Norms_South Alabama",1,11,"2023-03-17T03:53:58+00:00",17.916142940521,88,"updated stim.csv","Version88.csv","Version 88","List 88","garment",NA,2632,5.826086957,1081,2633,"BOI","-","-","Please name all of the ways you could use this object. Keep in mind that one object can have many uses. Separate your responses with a comma.",NA,"y",17757,NA,NA,2902,16888,NA,NA,NA,"wear, rip, get dirty, step on, lose, clean",1
"J00716045_jrj","3u98hoxkc8","Affordance Norms_South Alabama",1,12,"2023-03-17T03:56:05+00:00",126.86117196083,88,"updated stim.csv","Version88.csv","Version 88","List 88","me",NA,2627,5.708333333,1630,2628,"BOI","-","-","Please name all of the ways you could use this object. Keep in mind that one object can have many uses. Separate your responses with a comma.",NA,"y",126689,NA,NA,11115,70798,NA,NA,NA,"kiss, hug, love, kill, hurt, use, fuck, talk to, listen to, laugh at, walk with, stab, shoot, pay, give a gift, eat with, ",1
"J00716045_jrj","3u98hoxkc8","Affordance Norms_South Alabama",1,13,"2023-03-17T03:56:08+00:00",3.3492300510406,88,"updated stim.csv","Version88.csv","Version 88","List 88","stenographer",NA,2625,4.625,2521,2626,"BOI","-","-","Please name all of the ways you could use this object. Keep in mind that one object can have many uses. Separate your responses with a comma.",NA,"y",3231,NA,NA,-1,-1,NA,NA,NA,"",1
"J00716045_jrj","3u98hoxkc8","Affordance Norms_South Alabama",1,14,"2023-03-17T03:56:44+00:00",36.338840961456,88,"updated stim.csv","Version88.csv","Version 88","List 88","supermarket",NA,2612,4.869565217,2590,2613,"BOI","-","-","Please name all of the ways you could use this object. Keep in mind that one object can have many uses. Separate your responses with a comma.",NA,"y",36187,NA,NA,2827,34366,NA,NA,NA,"drive to, shop at, pay at, steal, browse",1
"J00716045_jrj","3u98hoxkc8","Affordance Norms_South Alabama",1,15,"2023-03-17T03:57:07+00:00",22.942673921585,88,"updated stim.csv","Version88.csv","Version 88","List 88","attendant",NA,2629,5.083333333,94,2630,"BOI","-","-","Please name all of the ways you could use this object. Keep in mind that one object can have many uses. Separate your responses with a comma.",NA,"y",22691,NA,NA,-1,-1,NA,NA,NA,"",1
"J00716045_jrj","3u98hoxkc8","Affordance Norms_South Alabama",1,16,"2023-03-17T03:57:59+00:00",51.495522022247,88,"updated stim.csv","Version88.csv","Version 88","List 88","Sailboat",NA,2626,5.266216216,2216,2627,"BOI","-","-","Please name all of the ways you could use this object. Keep in mind that one object can have many uses. Separate your responses with a comma.",NA,"y",51022,NA,NA,2312,48406,NA,NA,NA,"ride, sink, drive, sail",1
"J00716045_jrj","3u98hoxkc8","Affordance Norms_South Alabama",1,17,"2023-03-17T03:58:41+00:00",42.26525592804,88,"updated stim.csv","Version88.csv","Version 88","List 88","breakfast",NA,2624,6.173913043,311,2625,"BOI","-","-","Please name all of the ways you could use this object. Keep in mind that one object can have many uses. Separate your responses with a comma.",NA,"y",41959,NA,NA,20465,39904,NA,NA,NA,"eat, cook, buy, make, give, throw away, waste, save",1
"J00716045_jrj","3u98hoxkc8","Affordance Norms_South Alabama",1,18,"2023-03-17T03:58:43+00:00",2.2308661937714,88,"updated stim.csv","Version88.csv","Version 88","List 88","crossbar",NA,2616,5.043478261,704,2617,"BOI","-","-","Please name all of the ways you could use this object. Keep in mind that one object can have many uses. Separate your responses with a comma.",NA,"y",2138,NA,NA,-1,-1,NA,NA,NA,"",1
"J00716045_jrj","3u98hoxkc8","Affordance Norms_South Alabama",1,19,"2023-03-17T03:58:59+00:00",15.136753797531,88,"updated stim.csv","Version88.csv","Version 88","List 88","protractor",NA,2614,5.434782609,2082,2615,"BOI","-","-","Please name all of the ways you could use this object. Keep in mind that one object can have many uses. Separate your responses with a comma.",NA,"y",15017,NA,NA,2163,12894,NA,NA,NA,"use, study with, draw, angle",1
"J00716045_jrj","3u98hoxkc8","Affordance Norms_South Alabama",1,20,"2023-03-17T03:59:30+00:00",31.041956186295,88,"updated stim.csv","Version88.csv","Version 88","List 88","bus",NA,2613,5.192307692,368,2614,"BOI","-","-","Please name all of the ways you could use this object. Keep in mind that one object can have many uses. Separate your responses with a comma.",NA,"y",30853,NA,NA,1252,29029,NA,NA,NA,"ride, drive, wait for, stop",1
"J00716045_jrj","3u98hoxkc8","Affordance Norms_South Alabama",1,21,"2023-03-17T03:59:37+00:00",7.481663942337,88,"updated stim.csv","Version88.csv","Version 88","List 88","cornmeal",NA,2619,5.913043478,649,2620,"BOI","-","-","Please name all of the ways you could use this object. Keep in mind that one object can have many uses. Separate your responses with a comma.",NA,"y",7344,NA,NA,4847,6286,NA,NA,NA,"cook with",1
"J00716045_jrj","3u98hoxkc8","Affordance Norms_South Alabama",1,22,"2023-03-17T03:59:39+00:00",1.6761388778687,88,"updated stim.csv","Version88.csv","Version 88","List 88","bran",NA,2640,4.407407407,302,2641,"BOI","-","-","Please name all of the ways you could use this object. Keep in mind that one object can have many uses. Separate your responses with a comma.",NA,"y",1533,NA,NA,-1,-1,NA,NA,NA,"",1
"J00716045_jrj","3u98hoxkc8","Affordance Norms_South Alabama",1,23,"2023-03-17T03:59:55+00:00",15.845815181732,88,"updated stim.csv","Version88.csv","Version 88","List 88","treat",NA,2634,4.791666667,2771,2635,"BOI","-","-","Please name all of the ways you could use this object. Keep in mind that one object can have many uses. Separate your responses with a comma.",NA,"y",15716,NA,NA,1765,10514,NA,NA,NA,"make, eat, bake, give, store",1
"J00716045_jrj","3u98hoxkc8","Affordance Norms_South Alabama",1,24,"2023-03-17T04:00:08+00:00",13.518568992615,88,"updated stim.csv","Version88.csv","Version 88","List 88","uniform",NA,2620,5.666666667,2826,2621,"BOI","-","-","Please name all of the ways you could use this object. Keep in mind that one object can have many uses. Separate your responses with a comma.",NA,"y",13426,NA,NA,1406,12527,NA,NA,NA,"wear, throw away, hemn, sew, donate, sell, hate",1
"J00716045_jrj","3u98hoxkc8","Affordance Norms_South Alabama",1,25,"2023-03-17T04:00:29+00:00",20.615407943726,88,"updated stim.csv","Version88.csv","Version 88","List 88","scooter",NA,2637,5.913043478,2278,2638,"BOI","-","-","Please name all of the ways you could use this object. Keep in mind that one object can have many uses. Separate your responses with a comma.",NA,"y",20432,NA,NA,2084,14819,NA,NA,NA,"ride, hurt your toe",1
"J00716045_jrj","3u98hoxkc8","Affordance Norms_South Alabama",1,26,"2023-03-17T04:01:14+00:00",45.56050992012,88,"updated stim.csv","Version88.csv","Version 88","List 88","crib",NA,2631,5.56,694,2632,"BOI","-","-","Please name all of the ways you could use this object. Keep in mind that one object can have many uses. Separate your responses with a comma.",NA,"y",45407,NA,NA,3317,43719,NA,NA,NA,"put baby in, build, buy, sell, decorate",1
"J00716045_jrj","3u98hoxkc8","Affordance Norms_South Alabama",1,27,"2023-03-17T04:02:30+00:00",75.383308172226,88,"updated stim.csv","Version88.csv","Version 88","List 88","spout",NA,2623,5,2485,2624,"BOI","-","-","Please name all of the ways you could use this object. Keep in mind that one object can have many uses. Separate your responses with a comma.",NA,"y",75232,NA,NA,-1,-1,NA,NA,NA,"",1
"J00716045_jrj","3u98hoxkc8","Affordance Norms_South Alabama",1,28,"2023-03-17T04:02:34+00:00",4.4537169933319,88,"updated stim.csv","Version88.csv","Version 88","List 88","balloonist",NA,2639,4.275862069,131,2640,"BOI","-","-","Please name all of the ways you could use this object. Keep in mind that one object can have many uses. Separate your responses with a comma.",NA,"y",4338,NA,NA,2260,2925,NA,NA,NA,"watch",1
"J00716045_jrj","3u98hoxkc8","Affordance Norms_South Alabama",1,29,"2023-03-17T04:02:55+00:00",20.581247806549,88,"updated stim.csv","Version88.csv","Version 88","List 88","ukulele",NA,2628,5.782608696,2815,2629,"BOI","-","-","Please name all of the ways you could use this object. Keep in mind that one object can have many uses. Separate your responses with a comma.",NA,"y",20347,NA,NA,1345,16034,NA,NA,NA,"play, learn, break, smash, decorate, play, listen",1
"J00716045_jrj","3u98hoxkc8","Affordance Norms_South Alabama",1,30,"2023-03-17T04:02:59+00:00",3.9959561824799,88,"updated stim.csv","Version88.csv","Version 88","List 88","scanner",NA,2636,5.444444444,2264,2637,"BOI","-","-","Please name all of the ways you could use this object. Keep in mind that one object can have many uses. Separate your responses with a comma.",NA,"y",3856,NA,NA,1842,2445,NA,NA,NA,"scan,",1
"J00716045_jrj","3u98hoxkc8","Affordance Norms_South Alabama",1,31,"2023-03-17T04:03:15+00:00",16.648897886276,88,"updated stim.csv","Version88.csv","Version 88","List 88","fertilizer",NA,2615,5.217391304,967,2616,"BOI","-","-","Please name all of the ways you could use this object. Keep in mind that one object can have many uses. Separate your responses with a comma.",NA,"y",16465,NA,NA,2612,15885,NA,NA,NA,"plant, buy, put down, choose",1
"J00716045_jrj","3u98hoxkc8","Affordance Norms_South Alabama",1,32,"2023-03-17T04:03:17+00:00",2.0400741100311,88,"updated stim.csv","Version88.csv","Version 88","List 88","committeewoman",NA,2633,4.857142857,609,2634,"BOI","-","-","Please name all of the ways you could use this object. Keep in mind that one object can have many uses. Separate your responses with a comma.",NA,"y",1953,NA,NA,-1,-1,NA,NA,NA,"",1
"J00716045_jrj","3u98hoxkc8","Affordance Norms_South Alabama",1,33,"2023-03-17T04:03:35+00:00",17.352329015732,88,"updated stim.csv","Version88.csv","Version 88","List 88","paintbrush",NA,2630,5.56,1849,2631,"BOI","-","-","Please name all of the ways you could use this object. Keep in mind that one object can have many uses. Separate your responses with a comma.",NA,"y",17224,NA,NA,1575,16376,NA,NA,NA,"paint, wash, soak, use, break, get dirty, dry out",1
"J00716045_jrj","3u98hoxkc8","Affordance Norms_South Alabama",1,34,"2023-03-17T04:03:50+00:00",15.290827989578,88,"updated stim.csv","Version88.csv","Version 88","List 88","donkey",NA,2635,4.826086957,820,2636,"BOI","-","-","Please name all of the ways you could use this object. Keep in mind that one object can have many uses. Separate your responses with a comma.",NA,"y",15176,NA,NA,1764,14469,NA,NA,NA,"ride, buy, take care of, feed, sell, shelter, name",1
"J00716045_jrj","3u98hoxkc8","Affordance Norms_South Alabama",1,35,"2023-03-17T04:05:02+00:00",71.612471818924,88,"updated stim.csv","Version88.csv","Version 88","List 88","youngster",NA,2621,5,2997,2622,"BOI","-","-","Please name all of the ways you could use this object. Keep in mind that one object can have many uses. Separate your responses with a comma.",NA,"y",71380,NA,NA,-1,-1,NA,NA,NA,"",1
"J00716045_jrj","3u98hoxkc8","Affordance Norms_South Alabama",1,36,"2023-03-17T04:05:03+00:00",1.269257068634,88,"updated stim.csv","Version88.csv","Version 88","List 88","wiper",NA,2622,5.125,2951,2623,"BOI","-","-","Please name all of the ways you could use this object. Keep in mind that one object can have many uses. Separate your responses with a comma.",NA,"y",1172,NA,NA,-1,-1,NA,NA,NA,"",1
"J00716045_jrj","3u98hoxkc8","Affordance Norms_South Alabama",1,37,"2023-03-17T04:05:07+00:00",4.072653055191,88,"updated stim.csv","Version88.csv","Version 88","List 88","kumquat",NA,2618,5.619047619,1441,2619,"BOI","-","-","Please name all of the ways you could use this object. Keep in mind that one object can have many uses. Separate your responses with a comma.",NA,"y",3972,NA,NA,1463,3191,NA,NA,NA,"eat, grow ",1
"J00716045_jrj","3u98hoxkc8","Affordance Norms_South Alabama",1,38,"2023-03-17T04:05:31+00:00",24.339019060135,88,"updated stim.csv","Version88.csv","Version 88","List 88","skirt",NA,2638,6.041666667,2400,2639,"BOI","-","-","Please name all of the ways you could use this object. Keep in mind that one object can have many uses. Separate your responses with a comma.",NA,"y",24099,NA,NA,1103,22757,NA,NA,NA,"wear, cut, hemn, sew, sell, buy, dress up, dress down, paint on",1
"J00716045_jrj","3u98hoxkc8","Affordance Norms_South Alabama",1,39,"2023-03-17T04:06:11+00:00",39.610352993011,88,"updated stim.csv","Version88.csv","Version 88","List 88","bedclothes",NA,2617,5.708333333,185,2618,"BOI","-","-","Please name all of the ways you could use this object. Keep in mind that one object can have many uses. Separate your responses with a comma.",NA,"y",39418,NA,NA,25525,38363,NA,NA,NA,"wear, wash, lose, step on, sleep in",1
"J00716045_jrj","3u98hoxkc8","Affordance Norms_South Alabama",1,40,"2023-03-17T04:06:51+00:00",39.864125967026,88,"updated stim.csv","Version88.csv","Version 88","List 88","grandfather",NA,2611,5.833333333,1147,2612,"BOI","-","-","Please name all of the ways you could use this object. Keep in mind that one object can have many uses. Separate your responses with a comma.",NA,"y",39704,NA,NA,9671,37950,NA,NA,NA,"love, hug, cook for, help, laugh, ",1
"J00716201_tds","3ekafe9pzz","Affordance Norms_South Alabama",1,11,"2023-04-18T15:39:28+00:00",27.88566493988,6,"updated stim.csv","Version6.csv","Version 6","List 6","berry",NA,179,5.523809524,205,180,"BOI","-","-","Please name all of the ways you could use this object. Keep in mind that one object can have many uses. Separate your responses with a comma.",NA,"y",27726,NA,NA,3277,26424,NA,NA,NA,"juice, pies, cakes, muffins, wine",0.907
"J00716201_tds","3ekafe9pzz","Affordance Norms_South Alabama",1,12,"2023-04-18T15:40:00+00:00",32.337001085281,6,"updated stim.csv","Version6.csv","Version 6","List 6","harvest",NA,168,4.464285714,1256,169,"BOI","-","-","Please name all of the ways you could use this object. Keep in mind that one object can have many uses. Separate your responses with a comma.",NA,"y",32182,NA,NA,2521,31670,NA,NA,NA,"gathering, produce, fishing",0.907
"J00716201_tds","3ekafe9pzz","Affordance Norms_South Alabama",1,13,"2023-04-18T15:40:11+00:00",10.316843986511,6,"updated stim.csv","Version6.csv","Version 6","List 6","ginger",NA,178,5.32,1104,179,"BOI","-","-","Please name all of the ways you could use this object. Keep in mind that one object can have many uses. Separate your responses with a comma.",NA,"y",10144,NA,NA,4867,8491,NA,NA,NA,"cooking, seasoning ",1
"J00716201_tds","3ekafe9pzz","Affordance Norms_South Alabama",1,14,"2023-04-18T15:40:29+00:00",18.335489988327,6,"updated stim.csv","Version6.csv","Version 6","List 6","scale",NA,175,5.652173913,2259,176,"BOI","-","-","Please name all of the ways you could use this object. Keep in mind that one object can have many uses. Separate your responses with a comma.",NA,"y",18162,NA,NA,2723,16569,NA,NA,NA,"weighing, cooking",0.891
"J00716201_tds","3ekafe9pzz","Affordance Norms_South Alabama",1,15,"2023-04-18T15:41:08+00:00",39.473828077316,6,"updated stim.csv","Version6.csv","Version 6","List 6","snowfall",NA,166,4.347826087,2433,167,"BOI","-","-","Please name all of the ways you could use this object. Keep in mind that one object can have many uses. Separate your responses with a comma.",NA,"y",39294,NA,NA,19925,27677,NA,NA,NA,"water, playing",0.862
"J00716201_tds","3ekafe9pzz","Affordance Norms_South Alabama",1,16,"2023-04-18T15:41:34+00:00",25.591475963593,6,"updated stim.csv","Version6.csv","Version 6","List 6","van",NA,163,6.28,2836,164,"BOI","-","-","Please name all of the ways you could use this object. Keep in mind that one object can have many uses. Separate your responses with a comma.",NA,"y",25453,NA,NA,1545,24121,NA,NA,NA,"driving , vacations",0.955
"J00716201_tds","3ekafe9pzz","Affordance Norms_South Alabama",1,17,"2023-04-18T15:41:55+00:00",21.183104038239,6,"updated stim.csv","Version6.csv","Version 6","List 6","pilaf",NA,157,4.7,1959,158,"BOI","-","-","Please name all of the ways you could use this object. Keep in mind that one object can have many uses. Separate your responses with a comma.",NA,"y",21002,NA,NA,16426,19187,NA,NA,NA,"cooking , broth",0.776
"J00716201_tds","3ekafe9pzz","Affordance Norms_South Alabama",1,18,"2023-04-18T15:42:09+00:00",13.680104970932,6,"updated stim.csv","Version6.csv","Version 6","List 6","tofu",NA,180,5.555555556,2717,181,"BOI","-","-","Please name all of the ways you could use this object. Keep in mind that one object can have many uses. Separate your responses with a comma.",NA,"y",13524,NA,NA,3320,10249,NA,NA,NA,"meat substitute, vegans",1
"J00716201_tds","3ekafe9pzz","Affordance Norms_South Alabama",1,19,"2023-04-18T15:42:42+00:00",33.461531877518,6,"updated stim.csv","Version6.csv","Version 6","List 6","ticket",NA,164,5.333333333,2692,165,"BOI","-","-","Please name all of the ways you could use this object. Keep in mind that one object can have many uses. Separate your responses with a comma.",NA,"y",33329,NA,NA,4290,31033,NA,NA,NA,"entrance, admission",0.837
"J00716201_tds","3ekafe9pzz","Affordance Norms_South Alabama",1,20,"2023-04-18T15:43:00+00:00",17.951298952103,6,"updated stim.csv","Version6.csv","Version 6","List 6","balcony",NA,176,4.739130435,127,177,"BOI","-","-","Please name all of the ways you could use this object. Keep in mind that one object can have many uses. Separate your responses with a comma.",NA,"y",17805,NA,NA,14837,16402,NA,NA,NA,"living space , sunshine",0.788
"J00716201_tds","3ekafe9pzz","Affordance Norms_South Alabama",1,21,"2023-04-18T15:43:29+00:00",28.805296182632,6,"updated stim.csv","Version6.csv","Version 6","List 6","canvass",NA,177,4.347826087,421,178,"BOI","-","-","Please name all of the ways you could use this object. Keep in mind that one object can have many uses. Separate your responses with a comma.",NA,"y",28644,NA,NA,18936,27861,NA,NA,NA,"oil painting , sturdiness ",0.775
"J00716201_tds","3ekafe9pzz","Affordance Norms_South Alabama",1,22,"2023-04-18T15:43:51+00:00",21.520829916,6,"updated stim.csv","Version6.csv","Version 6","List 6","screw",NA,152,5.708333333,2286,153,"BOI","-","-","Please name all of the ways you could use this object. Keep in mind that one object can have many uses. Separate your responses with a comma.",NA,"y",21359,NA,NA,2641,20176,NA,NA,NA,"tighten objects, lift, hold",0.931
"J00716201_tds","3ekafe9pzz","Affordance Norms_South Alabama",1,23,"2023-04-18T15:44:14+00:00",22.859047889709,6,"updated stim.csv","Version6.csv","Version 6","List 6","parsnip",NA,159,5.666666667,1878,160,"BOI","-","-","Please name all of the ways you could use this object. Keep in mind that one object can have many uses. Separate your responses with a comma.",NA,"y",22719,NA,NA,-1,-1,NA,NA,NA,"baked, sauteed, steamed, mashed, roasted",0.849
"J00716201_tds","3ekafe9pzz","Affordance Norms_South Alabama",1,24,"2023-04-18T15:44:32+00:00",18.250934123993,6,"updated stim.csv","Version6.csv","Version 6","List 6","tabasco",NA,173,5.260869565,2615,174,"BOI","-","-","Please name all of the ways you could use this object. Keep in mind that one object can have many uses. Separate your responses with a comma.",NA,"y",17784,NA,NA,-1,-1,NA,NA,NA,"sandwiches, salads, burgers, pasta, French fries",0.622
"J00716201_tds","3ekafe9pzz","Affordance Norms_South Alabama",1,25,"2023-04-18T15:44:52+00:00",20.360191106796,6,"updated stim.csv","Version6.csv","Version 6","List 6","wand",NA,169,5.08,2892,170,"BOI","-","-","Please name all of the ways you could use this object. Keep in mind that one object can have many uses. Separate your responses with a comma.",NA,"y",20215,NA,NA,10822,17756,NA,NA,NA,"magic",0.806
"J00716201_tds","3ekafe9pzz","Affordance Norms_South Alabama",1,26,"2023-04-18T15:45:06+00:00",14.318473815918,6,"updated stim.csv","Version6.csv","Version 6","List 6","chronograph",NA,154,4.684210526,538,155,"BOI","-","-","Please name all of the ways you could use this object. Keep in mind that one object can have many uses. Separate your responses with a comma.",NA,"y",14179,NA,NA,10573,12726,NA,NA,NA,"measure time",0.818
"J00716201_tds","3ekafe9pzz","Affordance Norms_South Alabama",1,27,"2023-04-18T15:45:37+00:00",30.262320995331,6,"updated stim.csv","Version6.csv","Version 6","List 6","footballer",NA,165,5.041666667,1031,166,"BOI","-","-","Please name all of the ways you could use this object. Keep in mind that one object can have many uses. Separate your responses with a comma.",NA,"y",30094,NA,NA,9825,28878,NA,NA,NA,"plays football, athlete, team player ",0.899
"J00716201_tds","3ekafe9pzz","Affordance Norms_South Alabama",1,28,"2023-04-18T15:45:55+00:00",18.103227138519,6,"updated stim.csv","Version6.csv","Version 6","List 6","negligee",NA,172,4.75,1749,173,"BOI","-","-","Please name all of the ways you could use this object. Keep in mind that one object can have many uses. Separate your responses with a comma.",NA,"y",17922,NA,NA,7693,17527,NA,NA,NA,"see-through, clothing, sheer",0.873
"J00716201_tds","3ekafe9pzz","Affordance Norms_South Alabama",1,29,"2023-04-18T15:46:25+00:00",29.790390014648,6,"updated stim.csv","Version6.csv","Version 6","List 6","myself",NA,162,5.038461538,1731,163,"BOI","-","-","Please name all of the ways you could use this object. Keep in mind that one object can have many uses. Separate your responses with a comma.",NA,"y",29627,NA,NA,11301,24388,NA,NA,NA,"pronoun , confidant ",0.953
"J00716201_tds","3ekafe9pzz","Affordance Norms_South Alabama",1,30,"2023-04-18T15:46:50+00:00",25.252895832062,6,"updated stim.csv","Version6.csv","Version 6","List 6","chinaware",NA,158,5.913043478,527,159,"BOI","-","-","Please name all of the ways you could use this object. Keep in mind that one object can have many uses. Separate your responses with a comma.",NA,"y",25100,NA,NA,15957,23616,NA,NA,NA,"dishes, decoration ",0.835
"J00716201_tds","3ekafe9pzz","Affordance Norms_South Alabama",1,31,"2023-04-18T15:47:03+00:00",13.579636096954,6,"updated stim.csv","Version6.csv","Version 6","List 6","bird",NA,171,4.896551724,220,172,"BOI","-","-","Please name all of the ways you could use this object. Keep in mind that one object can have many uses. Separate your responses with a comma.",NA,"y",13437,NA,NA,1845,9967,NA,NA,NA,"pet",1
"J00716201_tds","3ekafe9pzz","Affordance Norms_South Alabama",1,32,"2023-04-18T15:47:23+00:00",19.559967041016,6,"updated stim.csv","Version6.csv","Version 6","List 6","bicep",NA,151,5.666666667,209,152,"BOI","-","-","Please name all of the ways you could use this object. Keep in mind that one object can have many uses. Separate your responses with a comma.",NA,"y",19420,NA,NA,15812,18240,NA,NA,NA,"lifting",0.769
"J00716201_tds","3ekafe9pzz","Affordance Norms_South Alabama",1,33,"2023-04-18T15:47:56+00:00",32.59747004509,6,"updated stim.csv","Version6.csv","Version 6","List 6","physician",NA,161,5.12,1945,162,"BOI","-","-","Please name all of the ways you could use this object. Keep in mind that one object can have many uses. Separate your responses with a comma.",NA,"y",32457,NA,NA,21858,30839,NA,NA,NA,"diagnose , treat injuries ,illnesses",0.874
"J00716201_tds","3ekafe9pzz","Affordance Norms_South Alabama",1,34,"2023-04-18T15:48:20+00:00",24.746289968491,6,"updated stim.csv","Version6.csv","Version 6","List 6","crystal",NA,170,4.37037037,720,171,"BOI","-","-","Please name all of the ways you could use this object. Keep in mind that one object can have many uses. Separate your responses with a comma.",NA,"y",24600,NA,NA,19773,23179,NA,NA,NA,"watches, plugs, hospital equipment, lasers , mediation ",0.846
"J00716201_tds","3ekafe9pzz","Affordance Norms_South Alabama",1,35,"2023-04-18T15:48:26+00:00",5.5427260398865,6,"updated stim.csv","Version6.csv","Version 6","List 6","bathe",NA,156,5.214285714,168,157,"BOI","-","-","Please name all of the ways you could use this object. Keep in mind that one object can have many uses. Separate your responses with a comma.",NA,"y",5422,NA,NA,1570,4261,NA,NA,NA,"washing, cleaning",1
"J00716201_tds","3ekafe9pzz","Affordance Norms_South Alabama",1,36,"2023-04-18T15:48:38+00:00",11.700255870819,6,"updated stim.csv","Version6.csv","Version 6","List 6","blindfold",NA,167,5.125,237,168,"BOI","-","-","Please name all of the ways you could use this object. Keep in mind that one object can have many uses. Separate your responses with a comma.",NA,"y",11557,NA,NA,2323,8606,NA,NA,NA,"hiding, surprises ",1
"J00716201_tds","3ekafe9pzz","Affordance Norms_South Alabama",1,37,"2023-04-18T15:48:50+00:00",12.765525102615,6,"updated stim.csv","Version6.csv","Version 6","List 6","tinfoil",NA,155,5.458333333,2703,156,"BOI","-","-","Please name all of the ways you could use this object. Keep in mind that one object can have many uses. Separate your responses with a comma.",NA,"y",12620,NA,NA,1861,11025,NA,NA,NA,"covering, wrapping",1
"J00716201_tds","3ekafe9pzz","Affordance Norms_South Alabama",1,38,"2023-04-18T15:49:08+00:00",17.357592821121,6,"updated stim.csv","Version6.csv","Version 6","List 6","desert",NA,160,4.291666667,779,161,"BOI","-","-","Please name all of the ways you could use this object. Keep in mind that one object can have many uses. Separate your responses with a comma.",NA,"y",17221,NA,NA,4463,16020,NA,NA,NA,"after dinner, late night snack",1
"J00716201_tds","3ekafe9pzz","Affordance Norms_South Alabama",1,39,"2023-04-18T15:49:18+00:00",10.225672006607,6,"updated stim.csv","Version6.csv","Version 6","List 6","whisky",NA,174,5.857142857,2931,175,"BOI","-","-","Please name all of the ways you could use this object. Keep in mind that one object can have many uses. Separate your responses with a comma.",NA,"y",10078,NA,NA,2696,8524,NA,NA,NA,"drinking, getting drunk,",1
"J00716201_tds","3ekafe9pzz","Affordance Norms_South Alabama",1,40,"2023-04-18T15:49:35+00:00",16.671905994415,6,"updated stim.csv","Version6.csv","Version 6","List 6","family",NA,153,5.291666667,944,154,"BOI","-","-","Please name all of the ways you could use this object. Keep in mind that one object can have many uses. Separate your responses with a comma.",NA,"y",16521,NA,NA,1373,15290,NA,NA,NA,"loving, confiding,support",1
"J00716294_djj","ffzzkb83nl","Affordance Norms_South Alabama",1,11,"2023-04-12T03:00:15+00:00",3.6890871524811,75,"updated stim.csv","Version75.csv","Version 75","List 75","vehicle",NA,2239,6.173913043,2843,2240,"BOI","-","-","Please name all of the ways you could use this object. Keep in mind that one object can have many uses. Separate your responses with a comma.",NA,"y",3437,NA,NA,1515,2744,NA,NA,NA,"drive",1
"J00716294_djj","ffzzkb83nl","Affordance Norms_South Alabama",1,12,"2023-04-12T03:00:23+00:00",8.7313919067383,75,"updated stim.csv","Version75.csv","Version 75","List 75","pottery",NA,2241,5.458333333,2050,2242,"BOI","-","-","Please name all of the ways you could use this object. Keep in mind that one object can have many uses. Separate your responses with a comma.",NA,"y",8265,NA,NA,1966,7187,NA,NA,NA,"art, decoration",1
"J00716294_djj","ffzzkb83nl","Affordance Norms_South Alabama",1,13,"2023-04-12T03:00:35+00:00",11.820209026337,75,"updated stim.csv","Version75.csv","Version 75","List 75","lice",NA,2229,5,1500,2230,"BOI","-","-","Please name all of the ways you could use this object. Keep in mind that one object can have many uses. Separate your responses with a comma.",NA,"y",11364,NA,NA,9895,10745,NA,NA,NA,"none",1
"J00716294_djj","ffzzkb83nl","Affordance Norms_South Alabama",1,14,"2023-04-12T03:00:40+00:00",4.5335340499878,75,"updated stim.csv","Version75.csv","Version 75","List 75","metalworker",NA,2230,4.8,1651,2231,"BOI","-","-","Please name all of the ways you could use this object. Keep in mind that one object can have many uses. Separate your responses with a comma.",NA,"y",4066,NA,NA,2789,3290,NA,NA,NA,"job",1
"J00716294_djj","ffzzkb83nl","Affordance Norms_South Alabama",1,15,"2023-04-12T03:00:42+00:00",2.848217010498,75,"updated stim.csv","Version75.csv","Version 75","List 75","quiche",NA,2233,5.727272727,2114,2234,"BOI","-","-","Please name all of the ways you could use this object. Keep in mind that one object can have many uses. Separate your responses with a comma.",NA,"y",2490,NA,NA,-1,-1,NA,NA,NA,"",1
"J00716294_djj","ffzzkb83nl","Affordance Norms_South Alabama",1,16,"2023-04-12T03:00:44+00:00",2.0497028827667,75,"updated stim.csv","Version75.csv","Version 75","List 75","lavatory",NA,2249,5.620689655,1473,2250,"BOI","-","-","Please name all of the ways you could use this object. Keep in mind that one object can have many uses. Separate your responses with a comma.",NA,"y",1819,NA,NA,-1,-1,NA,NA,NA,"",1
"J00716294_djj","ffzzkb83nl","Affordance Norms_South Alabama",1,17,"2023-04-12T03:00:51+00:00",6.2968261241913,75,"updated stim.csv","Version75.csv","Version 75","List 75","mousetrap",NA,2226,4.916666667,1702,2227,"BOI","-","-","Please name all of the ways you could use this object. Keep in mind that one object can have many uses. Separate your responses with a comma.",NA,"y",5746,NA,NA,2089,5011,NA,NA,NA,"catch mouse",1
"J00716294_djj","ffzzkb83nl","Affordance Norms_South Alabama",1,18,"2023-04-12T03:00:57+00:00",6.1045207977295,75,"updated stim.csv","Version75.csv","Version 75","List 75","kindle",NA,2243,4.4,1420,2244,"BOI","-","-","Please name all of the ways you could use this object. Keep in mind that one object can have many uses. Separate your responses with a comma.",NA,"y",5644,NA,NA,4009,4483,NA,NA,NA,"read",1
"J00716294_djj","ffzzkb83nl","Affordance Norms_South Alabama",1,19,"2023-04-12T03:01:01+00:00",4.0282030105591,75,"updated stim.csv","Version75.csv","Version 75","List 75","veterinarian",NA,2231,5.074074074,2854,2232,"BOI","-","-","Please name all of the ways you could use this object. Keep in mind that one object can have many uses. Separate your responses with a comma.",NA,"y",3774,NA,NA,2094,2886,NA,NA,NA,"pets",1
"J00716294_djj","ffzzkb83nl","Affordance Norms_South Alabama",1,20,"2023-04-12T03:01:04+00:00",3.5098841190338,75,"updated stim.csv","Version75.csv","Version 75","List 75","primate",NA,2236,4.375,2063,2237,"BOI","-","-","Please name all of the ways you could use this object. Keep in mind that one object can have many uses. Separate your responses with a comma.",NA,"y",3266,NA,NA,-1,-1,NA,NA,NA,"",1
"J00716294_djj","ffzzkb83nl","Affordance Norms_South Alabama",1,21,"2023-04-12T03:01:08+00:00",3.3810420036316,75,"updated stim.csv","Version75.csv","Version 75","List 75","cheddar",NA,2246,5.291666667,502,2247,"BOI","-","-","Please name all of the ways you could use this object. Keep in mind that one object can have many uses. Separate your responses with a comma.",NA,"y",3151,NA,NA,1743,2326,NA,NA,NA,"food",1
"J00716294_djj","ffzzkb83nl","Affordance Norms_South Alabama",1,22,"2023-04-12T03:01:12+00:00",3.8466489315033,75,"updated stim.csv","Version75.csv","Version 75","List 75","ingredients",NA,2227,4.958333333,1355,2228,"BOI","-","-","Please name all of the ways you could use this object. Keep in mind that one object can have many uses. Separate your responses with a comma.",NA,"y",3625,NA,NA,1600,2724,NA,NA,NA,"cooking",1
"J00716294_djj","ffzzkb83nl","Affordance Norms_South Alabama",1,23,"2023-04-12T03:01:16+00:00",4.5016260147095,75,"updated stim.csv","Version75.csv","Version 75","List 75","denim",NA,2238,5.416666667,773,2239,"BOI","-","-","Please name all of the ways you could use this object. Keep in mind that one object can have many uses. Separate your responses with a comma.",NA,"y",4069,NA,NA,2014,3507,NA,NA,NA,"clothes",1
"J00716294_djj","ffzzkb83nl","Affordance Norms_South Alabama",1,24,"2023-04-12T03:01:24+00:00",8.0854229927063,75,"updated stim.csv","Version75.csv","Version 75","List 75","substance",NA,2240,4.47826087,2576,2241,"BOI","-","-","Please name all of the ways you could use this object. Keep in mind that one object can have many uses. Separate your responses with a comma.",NA,"y",7593,NA,NA,3322,6633,NA,NA,NA,"science",1
"J00716294_djj","ffzzkb83nl","Affordance Norms_South Alabama",1,25,"2023-04-12T03:01:29+00:00",5.1042768955231,75,"updated stim.csv","Version75.csv","Version 75","List 75","model",NA,2235,5.086956522,1674,2236,"BOI","-","-","Please name all of the ways you could use this object. Keep in mind that one object can have many uses. Separate your responses with a comma.",NA,"y",4600,NA,NA,2093,3908,NA,NA,NA,"pictures",1
"J00716294_djj","ffzzkb83nl","Affordance Norms_South Alabama",1,26,"2023-04-12T03:01:35+00:00",5.3731911182404,75,"updated stim.csv","Version75.csv","Version 75","List 75","housefly",NA,2245,4.541666667,1330,2246,"BOI","-","-","Please name all of the ways you could use this object. Keep in mind that one object can have many uses. Separate your responses with a comma.",NA,"y",4950,NA,NA,2942,3749,NA,NA,NA,"swat",1
"J00716294_djj","ffzzkb83nl","Affordance Norms_South Alabama",1,27,"2023-04-12T03:01:37+00:00",2.7743549346924,75,"updated stim.csv","Version75.csv","Version 75","List 75","fudge",NA,2224,5.68,1063,2225,"BOI","-","-","Please name all of the ways you could use this object. Keep in mind that one object can have many uses. Separate your responses with a comma.",NA,"y",2524,NA,NA,1189,1442,NA,NA,NA,"eat",1
"J00716294_djj","ffzzkb83nl","Affordance Norms_South Alabama",1,28,"2023-04-12T03:01:38+00:00",0.94277811050415,75,"updated stim.csv","Version75.csv","Version 75","List 75","shinbone",NA,2222,4.826086957,2340,2223,"BOI","-","-","Please name all of the ways you could use this object. Keep in mind that one object can have many uses. Separate your responses with a comma.",NA,"y",697,NA,NA,-1,-1,NA,NA,NA,"",1
"J00716294_djj","ffzzkb83nl","Affordance Norms_South Alabama",1,29,"2023-04-12T03:01:41+00:00",2.5679688453674,75,"updated stim.csv","Version75.csv","Version 75","List 75","cookhouse",NA,2237,4.423076923,632,2238,"BOI","-","-","Please name all of the ways you could use this object. Keep in mind that one object can have many uses. Separate your responses with a comma.",NA,"y",2306,NA,NA,-1,-1,NA,NA,NA,"",1
"J00716294_djj","ffzzkb83nl","Affordance Norms_South Alabama",1,30,"2023-04-12T03:01:47+00:00",6.2248980998993,75,"updated stim.csv","Version75.csv","Version 75","List 75","rattle",NA,2248,4.409090909,2140,2249,"BOI","-","-","Please name all of the ways you could use this object. Keep in mind that one object can have many uses. Separate your responses with a comma.",NA,"y",5764,NA,NA,4556,4943,NA,NA,NA,"baby",1
"J00716294_djj","ffzzkb83nl","Affordance Norms_South Alabama",1,31,"2023-04-12T03:01:57+00:00",9.6138699054718,75,"updated stim.csv","Version75.csv","Version 75","List 75","anchor",NA,2232,5.739130435,39,2233,"BOI","-","-","Please name all of the ways you could use this object. Keep in mind that one object can have many uses. Separate your responses with a comma.",NA,"y",9180,NA,NA,3406,8475,NA,NA,NA,"stop something from moving",1
"J00716294_djj","ffzzkb83nl","Affordance Norms_South Alabama",1,32,"2023-04-12T03:02:03+00:00",6.600848197937,75,"updated stim.csv","Version75.csv","Version 75","List 75","doornail",NA,2244,5.4,827,2245,"BOI","-","-","Please name all of the ways you could use this object. Keep in mind that one object can have many uses. Separate your responses with a comma.",NA,"y",5637,NA,NA,1650,4898,NA,NA,NA,"hang something",1
"J00716294_djj","ffzzkb83nl","Affordance Norms_South Alabama",1,33,"2023-04-12T03:02:05+00:00",1.1753067970276,75,"updated stim.csv","Version75.csv","Version 75","List 75","waxwork",NA,2228,4.3,2913,2229,"BOI","-","-","Please name all of the ways you could use this object. Keep in mind that one object can have many uses. Separate your responses with a comma.",NA,"y",947,NA,NA,-1,-1,NA,NA,NA,"",1
"J00716294_djj","ffzzkb83nl","Affordance Norms_South Alabama",1,34,"2023-04-12T03:02:08+00:00",3.2627010345459,75,"updated stim.csv","Version75.csv","Version 75","List 75","whisk",NA,2247,6,2927,2248,"BOI","-","-","Please name all of the ways you could use this object. Keep in mind that one object can have many uses. Separate your responses with a comma.",NA,"y",3053,NA,NA,1317,2354,NA,NA,NA,"cooking",1
"J00716294_djj","ffzzkb83nl","Affordance Norms_South Alabama",1,35,"2023-04-12T03:02:14+00:00",6.1014060974121,75,"updated stim.csv","Version75.csv","Version 75","List 75","moth",NA,2225,4.84,1690,2226,"BOI","-","-","Please name all of the ways you could use this object. Keep in mind that one object can have many uses. Separate your responses with a comma.",NA,"y",5593,NA,NA,4010,4806,NA,NA,NA,"light",1
"J00716294_djj","ffzzkb83nl","Affordance Norms_South Alabama",1,36,"2023-04-12T03:02:18+00:00",4.0033450126648,75,"updated stim.csv","Version75.csv","Version 75","List 75","shotgun",NA,2234,5.826086957,2361,2235,"BOI","-","-","Please name all of the ways you could use this object. Keep in mind that one object can have many uses. Separate your responses with a comma.",NA,"y",3779,NA,NA,2718,3095,NA,NA,NA,"aim",1
"J00716294_djj","ffzzkb83nl","Affordance Norms_South Alabama",1,37,"2023-04-12T03:02:23+00:00",5.2053549289703,75,"updated stim.csv","Version75.csv","Version 75","List 75","washboard",NA,2250,5.208333333,2896,2251,"BOI","-","-","Please name all of the ways you could use this object. Keep in mind that one object can have many uses. Separate your responses with a comma.",NA,"y",4720,NA,NA,1406,4026,NA,NA,NA,"clean stuff",1
"J00716294_djj","ffzzkb83nl","Affordance Norms_South Alabama",1,38,"2023-04-12T03:02:26+00:00",3.0205271244049,75,"updated stim.csv","Version75.csv","Version 75","List 75","motorbike",NA,2223,6.347826087,1694,2224,"BOI","-","-","Please name all of the ways you could use this object. Keep in mind that one object can have many uses. Separate your responses with a comma.",NA,"y",2788,NA,NA,1644,2210,NA,NA,NA,"ride",1
"J00716294_djj","ffzzkb83nl","Affordance Norms_South Alabama",1,39,"2023-04-12T03:02:32+00:00",5.4341108798981,75,"updated stim.csv","Version75.csv","Version 75","List 75","laundry",NA,2221,6.208333333,1472,2222,"BOI","-","-","Please name all of the ways you could use this object. Keep in mind that one object can have many uses. Separate your responses with a comma.",NA,"y",4976,NA,NA,1977,4337,NA,NA,NA,"clothes",1
"J00716294_djj","ffzzkb83nl","Affordance Norms_South Alabama",1,40,"2023-04-12T03:02:38+00:00",5.969743013382,75,"updated stim.csv","Version75.csv","Version 75","List 75","wig",NA,2242,5.913043478,2935,2243,"BOI","-","-","Please name all of the ways you could use this object. Keep in mind that one object can have many uses. Separate your responses with a comma.",NA,"y",5506,NA,NA,3032,4576,NA,NA,NA,"dress up",1
"J00716827_geg","48ffifmke9","Affordance Norms_South Alabama",1,11,"2023-04-03T02:02:51+00:00",37.936810016632,34,"updated stim.csv","Version34.csv","Version 34","List 34","wafer",NA,1017,5.909090909,2877,1018,"BOI","-","-","Please name all of the ways you could use this object. Keep in mind that one object can have many uses. Separate your responses with a comma.",NA,"y",37817,NA,NA,26624,36763,NA,NA,NA,"electronic, computer",1
"J00716827_geg","48ffifmke9","Affordance Norms_South Alabama",1,12,"2023-04-03T02:03:16+00:00",25.8573179245,34,"updated stim.csv","Version34.csv","Version 34","List 34","shower",NA,1015,5.391304348,2364,1016,"BOI","-","-","Please name all of the ways you could use this object. Keep in mind that one object can have many uses. Separate your responses with a comma.",NA,"y",25697,NA,NA,2478,24583,NA,NA,NA,"clean, wash",1
"J00716827_geg","48ffifmke9","Affordance Norms_South Alabama",1,13,"2023-04-03T02:03:46+00:00",29.449226140976,34,"updated stim.csv","Version34.csv","Version 34","List 34","mandolin",NA,1011,5.304347826,1587,1012,"BOI","-","-","Please name all of the ways you could use this object. Keep in mind that one object can have many uses. Separate your responses with a comma.",NA,"y",29255,NA,NA,18082,22709,NA,NA,NA,"play, guitar",1
"J00716827_geg","48ffifmke9","Affordance Norms_South Alabama",1,14,"2023-04-03T02:04:02+00:00",16.309448003769,34,"updated stim.csv","Version34.csv","Version 34","List 34","scoop",NA,999,4.28,2277,1000,"BOI","-","-","Please name all of the ways you could use this object. Keep in mind that one object can have many uses. Separate your responses with a comma.",NA,"y",16175,NA,NA,2409,15237,NA,NA,NA,"ice cream, food",1
"J00716827_geg","48ffifmke9","Affordance Norms_South Alabama",1,15,"2023-04-03T02:04:15+00:00",12.961744785309,34,"updated stim.csv","Version34.csv","Version 34","List 34","jaw",NA,1009,5.5,1376,1010,"BOI","-","-","Please name all of the ways you could use this object. Keep in mind that one object can have many uses. Separate your responses with a comma.",NA,"y",12838,NA,NA,4332,11415,NA,NA,NA,"animal, people, bone",1
"J00716827_geg","48ffifmke9","Affordance Norms_South Alabama",1,16,"2023-04-03T02:04:37+00:00",21.94047999382,34,"updated stim.csv","Version34.csv","Version 34","List 34","beanstalk",NA,993,4.5,181,994,"BOI","-","-","Please name all of the ways you could use this object. Keep in mind that one object can have many uses. Separate your responses with a comma.",NA,"y",21757,NA,NA,1857,7281,NA,NA,NA,"beans, giant, ",1
"J00716827_geg","48ffifmke9","Affordance Norms_South Alabama",1,17,"2023-04-03T02:04:46+00:00",9.0335521697998,34,"updated stim.csv","Version34.csv","Version 34","List 34","tortilla",NA,991,6.037037037,2740,992,"BOI","-","-","Please name all of the ways you could use this object. Keep in mind that one object can have many uses. Separate your responses with a comma.",NA,"y",8894,NA,NA,2811,7605,NA,NA,NA,"eat, taco, food",1
"J00716827_geg","48ffifmke9","Affordance Norms_South Alabama",1,18,"2023-04-03T02:05:10+00:00",23.623016834259,34,"updated stim.csv","Version34.csv","Version 34","List 34","gold",NA,1004,4.75,1132,1005,"BOI","-","-","Please name all of the ways you could use this object. Keep in mind that one object can have many uses. Separate your responses with a comma.",NA,"y",23468,NA,NA,5525,22514,NA,NA,NA,"necklace, mine",1
"J00716827_geg","48ffifmke9","Affordance Norms_South Alabama",1,19,"2023-04-03T02:05:21+00:00",11.345995187759,34,"updated stim.csv","Version34.csv","Version 34","List 34","popcorn",NA,994,6,2035,995,"BOI","-","-","Please name all of the ways you could use this object. Keep in mind that one object can have many uses. Separate your responses with a comma.",NA,"y",11221,NA,NA,6950,9995,NA,NA,NA,"food, movie",1
"J00716827_geg","48ffifmke9","Affordance Norms_South Alabama",1,20,"2023-04-03T02:06:05+00:00",44.274772882462,34,"updated stim.csv","Version34.csv","Version 34","List 34","anklet",NA,1020,5.708333333,43,1021,"BOI","-","-","Please name all of the ways you could use this object. Keep in mind that one object can have many uses. Separate your responses with a comma.",NA,"y",44123,NA,NA,2441,40408,NA,NA,NA,"wear",1
"J00716827_geg","48ffifmke9","Affordance Norms_South Alabama",1,21,"2023-04-03T02:06:15+00:00",9.5890989303589,34,"updated stim.csv","Version34.csv","Version 34","List 34","bellflower",NA,1010,4.428571429,198,1011,"BOI","-","-","Please name all of the ways you could use this object. Keep in mind that one object can have many uses. Separate your responses with a comma.",NA,"y",9474,NA,NA,5268,7824,NA,NA,NA,"wear, show",1
"J00716827_geg","48ffifmke9","Affordance Norms_South Alabama",1,22,"2023-04-03T02:06:30+00:00",15.009093046188,34,"updated stim.csv","Version34.csv","Version 34","List 34","gravy",NA,1019,5.333333333,1167,1020,"BOI","-","-","Please name all of the ways you could use this object. Keep in mind that one object can have many uses. Separate your responses with a comma.",NA,"y",14891,NA,NA,2498,13736,NA,NA,NA,"pour, topping",1
"J00716827_geg","48ffifmke9","Affordance Norms_South Alabama",1,23,"2023-04-03T02:07:04+00:00",34.513277053833,34,"updated stim.csv","Version34.csv","Version 34","List 34","foghorn",NA,997,4.583333333,1023,998,"BOI","-","-","Please name all of the ways you could use this object. Keep in mind that one object can have many uses. Separate your responses with a comma.",NA,"y",34374,NA,NA,6045,33402,NA,NA,NA,"dance, halloween",1
"J00716827_geg","48ffifmke9","Affordance Norms_South Alabama",1,24,"2023-04-03T02:08:10+00:00",65.102910041809,34,"updated stim.csv","Version34.csv","Version 34","List 34","throat",NA,996,5.347826087,2685,997,"BOI","-","-","Please name all of the ways you could use this object. Keep in mind that one object can have many uses. Separate your responses with a comma.",NA,"y",64914,NA,NA,58697,63745,NA,NA,NA,"sore, sick",1
"J00716827_geg","48ffifmke9","Affordance Norms_South Alabama",1,25,"2023-04-03T02:08:15+00:00",5.0419809818268,34,"updated stim.csv","Version34.csv","Version 34","List 34","terrier",NA,995,5.416666667,2668,996,"BOI","-","-","Please name all of the ways you could use this object. Keep in mind that one object can have many uses. Separate your responses with a comma.",NA,"y",4892,NA,NA,2168,4069,NA,NA,NA,"dog, land",1
"J00716827_geg","48ffifmke9","Affordance Norms_South Alabama",1,26,"2023-04-03T02:08:24+00:00",9.2171778678894,34,"updated stim.csv","Version34.csv","Version 34","List 34","loincloth",NA,1007,4.833333333,1544,1008,"BOI","-","-","Please name all of the ways you could use this object. Keep in mind that one object can have many uses. Separate your responses with a comma.",NA,"y",9060,NA,NA,4709,6532,NA,NA,NA,"clothes",1
"J00716827_geg","48ffifmke9","Affordance Norms_South Alabama",1,27,"2023-04-03T02:08:56+00:00",31.844234228134,34,"updated stim.csv","Version34.csv","Version 34","List 34","nectar",NA,1005,4.608695652,1744,1006,"BOI","-","-","Please name all of the ways you could use this object. Keep in mind that one object can have many uses. Separate your responses with a comma.",NA,"y",31654,NA,NA,29548,30127,NA,NA,NA,"honey",1
"J00716827_geg","48ffifmke9","Affordance Norms_South Alabama",1,28,"2023-04-03T02:09:02+00:00",6.3345968723297,34,"updated stim.csv","Version34.csv","Version 34","List 34","catfish",NA,1016,5,459,1017,"BOI","-","-","Please name all of the ways you could use this object. Keep in mind that one object can have many uses. Separate your responses with a comma.",NA,"y",6195,NA,NA,2019,5169,NA,NA,NA,"swim, eat",1
"J00716827_geg","48ffifmke9","Affordance Norms_South Alabama",1,29,"2023-04-03T02:09:15+00:00",12.902177095413,34,"updated stim.csv","Version34.csv","Version 34","List 34","wallpaper",NA,1000,4.875,2889,1001,"BOI","-","-","Please name all of the ways you could use this object. Keep in mind that one object can have many uses. Separate your responses with a comma.",NA,"y",12773,NA,NA,3320,11647,NA,NA,NA,"background,sprouse",1
"J00716827_geg","48ffifmke9","Affordance Norms_South Alabama",1,30,"2023-04-03T02:09:19+00:00",4.0750019550323,34,"updated stim.csv","Version34.csv","Version 34","List 34","lobbyist",NA,1012,4.4,1532,1013,"BOI","-","-","Please name all of the ways you could use this object. Keep in mind that one object can have many uses. Separate your responses with a comma.",NA,"y",3940,NA,NA,2617,3034,NA,NA,NA,"work",1
"J00716827_geg","48ffifmke9","Affordance Norms_South Alabama",1,31,"2023-04-03T02:09:28+00:00",9.3201348781586,34,"updated stim.csv","Version34.csv","Version 34","List 34","tongue",NA,1013,5.928571429,2728,1014,"BOI","-","-","Please name all of the ways you could use this object. Keep in mind that one object can have many uses. Separate your responses with a comma.",NA,"y",9202,NA,NA,3086,8278,NA,NA,NA,"eat, swallow",1
"J00716827_geg","48ffifmke9","Affordance Norms_South Alabama",1,32,"2023-04-03T02:09:34+00:00",5.5649461746216,34,"updated stim.csv","Version34.csv","Version 34","List 34","hammock",NA,1008,6.166666667,1224,1009,"BOI","-","-","Please name all of the ways you could use this object. Keep in mind that one object can have many uses. Separate your responses with a comma.",NA,"y",5444,NA,NA,1455,4177,NA,NA,NA,"rock, rest",1
"J00716827_geg","48ffifmke9","Affordance Norms_South Alabama",1,33,"2023-04-03T02:10:12+00:00",37.744473934174,34,"updated stim.csv","Version34.csv","Version 34","List 34","phonograph",NA,1006,4.423076923,1941,1007,"BOI","-","-","Please name all of the ways you could use this object. Keep in mind that one object can have many uses. Separate your responses with a comma.",NA,"y",37544,NA,NA,30238,36673,NA,NA,NA,"pictures, call",1
"J00716827_geg","48ffifmke9","Affordance Norms_South Alabama",1,34,"2023-04-03T02:10:18+00:00",6.2317690849304,34,"updated stim.csv","Version34.csv","Version 34","List 34","griddle",NA,992,5.739130435,1175,993,"BOI","-","-","Please name all of the ways you could use this object. Keep in mind that one object can have many uses. Separate your responses with a comma.",NA,"y",6092,NA,NA,2124,3470,NA,NA,NA,"cook",1
"J00716827_geg","48ffifmke9","Affordance Norms_South Alabama",1,35,"2023-04-03T02:10:28+00:00",10.191928863525,34,"updated stim.csv","Version34.csv","Version 34","List 34","mutt",NA,1014,4.958333333,1728,1015,"BOI","-","-","Please name all of the ways you could use this object. Keep in mind that one object can have many uses. Separate your responses with a comma.",NA,"y",10058,NA,NA,4091,8664,NA,NA,NA,"dog, animal",1
"J00716827_geg","48ffifmke9","Affordance Norms_South Alabama",1,36,"2023-04-03T02:10:41+00:00",12.594092130661,34,"updated stim.csv","Version34.csv","Version 34","List 34","logbook",NA,998,5.565217391,1542,999,"BOI","-","-","Please name all of the ways you could use this object. Keep in mind that one object can have many uses. Separate your responses with a comma.",NA,"y",12476,NA,NA,2136,5545,NA,NA,NA,"record, ",1
"J00716827_geg","48ffifmke9","Affordance Norms_South Alabama",1,37,"2023-04-03T02:10:47+00:00",6.274405002594,34,"updated stim.csv","Version34.csv","Version 34","List 34","labrador",NA,1001,5.074074074,1444,1002,"BOI","-","-","Please name all of the ways you could use this object. Keep in mind that one object can have many uses. Separate your responses with a comma.",NA,"y",6152,NA,NA,4583,4876,NA,NA,NA,"dog",1
"J00716827_geg","48ffifmke9","Affordance Norms_South Alabama",1,38,"2023-04-03T02:11:05+00:00",18.282102823257,34,"updated stim.csv","Version34.csv","Version 34","List 34","shelf",NA,1018,4.782608696,2332,1019,"BOI","-","-","Please name all of the ways you could use this object. Keep in mind that one object can have many uses. Separate your responses with a comma.",NA,"y",18145,NA,NA,1521,17063,NA,NA,NA,"hold, strong",1
"J00716827_geg","48ffifmke9","Affordance Norms_South Alabama",1,39,"2023-04-03T02:11:38+00:00",32.504424095154,34,"updated stim.csv","Version34.csv","Version 34","List 34","pinwheel",NA,1002,5.8,1975,1003,"BOI","-","-","Please name all of the ways you could use this object. Keep in mind that one object can have many uses. Separate your responses with a comma.",NA,"y",32346,NA,NA,31017,31349,NA,NA,NA,"fun",1
"J00716827_geg","48ffifmke9","Affordance Norms_South Alabama",1,40,"2023-04-03T02:11:56+00:00",18.044235944748,34,"updated stim.csv","Version34.csv","Version 34","List 34","macaroon",NA,1003,4.346153846,1563,1004,"BOI","-","-","Please name all of the ways you could use this object. Keep in mind that one object can have many uses. Separate your responses with a comma.",NA,"y",17919,NA,NA,16080,16426,NA,NA,NA,"eat",1
"J00717362_mgl","t0jw8agotx","Affordance Norms_South Alabama",1,11,"2023-03-13T03:49:51+00:00",24.904683113098,78,"updated stim.csv","Version78.csv","Version 78","List 78","goddaughter",NA,2340,5.04,1126,2341,"BOI","-","-","Please name all of the ways you could use this object. Keep in mind that one object can have many uses. Separate your responses with a comma.",NA,"y",23777,NA,NA,21734,22642,NA,NA,NA,"person",1
"J00717362_mgl","t0jw8agotx","Affordance Norms_South Alabama",1,12,"2023-03-13T03:50:17+00:00",25.862200021744,78,"updated stim.csv","Version78.csv","Version 78","List 78","pretzel",NA,2321,6.04,2061,2322,"BOI","-","-","Please name all of the ways you could use this object. Keep in mind that one object can have many uses. Separate your responses with a comma.",NA,"y",24915,NA,NA,7190,23906,NA,NA,NA,"food, eating, making, dipping",1
"J00717362_mgl","t0jw8agotx","Affordance Norms_South Alabama",1,13,"2023-03-13T03:51:20+00:00",62.778050899506,78,"updated stim.csv","Version78.csv","Version 78","List 78","urn",NA,2338,4.791666667,2829,2339,"BOI","-","-","Please name all of the ways you could use this object. Keep in mind that one object can have many uses. Separate your responses with a comma.",NA,"y",61254,NA,NA,34761,60385,NA,NA,NA,"toss, keep",1
"J00717362_mgl","t0jw8agotx","Affordance Norms_South Alabama",1,14,"2023-03-13T03:51:54+00:00",34.536098003387,78,"updated stim.csv","Version78.csv","Version 78","List 78","plantain",NA,2316,5.409090909,1990,2317,"BOI","-","-","Please name all of the ways you could use this object. Keep in mind that one object can have many uses. Separate your responses with a comma.",NA,"y",33458,NA,NA,24576,32748,NA,NA,NA,"fried, eating, baked",1
"J00717362_mgl","t0jw8agotx","Affordance Norms_South Alabama",1,15,"2023-03-13T03:52:09+00:00",14.744379997253,78,"updated stim.csv","Version78.csv","Version 78","List 78","drawstring",NA,2314,5.28,842,2315,"BOI","-","-","Please name all of the ways you could use this object. Keep in mind that one object can have many uses. Separate your responses with a comma.",NA,"y",13587,NA,NA,3025,12882,NA,NA,NA,"pull, twist, tighten, cut",1
"J00717362_mgl","t0jw8agotx","Affordance Norms_South Alabama",1,16,"2023-03-13T03:53:05+00:00",55.575310945511,78,"updated stim.csv","Version78.csv","Version 78","List 78","friend",NA,2313,5,1057,2314,"BOI","-","-","Please name all of the ways you could use this object. Keep in mind that one object can have many uses. Separate your responses with a comma.",NA,"y",54619,NA,NA,42155,52390,NA,NA,NA,"adventure, hang, talk",1
"J00717362_mgl","t0jw8agotx","Affordance Norms_South Alabama",1,17,"2023-03-13T03:53:47+00:00",42.887659072876,78,"updated stim.csv","Version78.csv","Version 78","List 78","cop",NA,2319,4.458333333,635,2320,"BOI","-","-","Please name all of the ways you could use this object. Keep in mind that one object can have many uses. Separate your responses with a comma.",NA,"y",40892,NA,NA,32687,39297,NA,NA,NA,"restraining order, protection",1
"J00717362_mgl","t0jw8agotx","Affordance Norms_South Alabama",1,18,"2023-03-13T03:54:04+00:00",16.72794008255,78,"updated stim.csv","Version78.csv","Version 78","List 78","colleague",NA,2325,5.724137931,602,2326,"BOI","-","-","Please name all of the ways you could use this object. Keep in mind that one object can have many uses. Separate your responses with a comma.",NA,"y",15200,NA,NA,2810,14453,NA,NA,NA,"talk, help out, work with",1
"J00717362_mgl","t0jw8agotx","Affordance Norms_South Alabama",1,19,"2023-03-13T03:54:50+00:00",46.297905921936,78,"updated stim.csv","Version78.csv","Version 78","List 78","mousse",NA,2334,5.260869565,1703,2335,"BOI","-","-","Please name all of the ways you could use this object. Keep in mind that one object can have many uses. Separate your responses with a comma.",NA,"y",45150,NA,NA,13860,44123,NA,NA,NA,"eat, make, refridgerate",1
"J00717362_mgl","t0jw8agotx","Affordance Norms_South Alabama",1,20,"2023-03-13T03:55:35+00:00",44.818901062012,78,"updated stim.csv","Version78.csv","Version 78","List 78","butcher",NA,2336,4.739130435,373,2337,"BOI","-","-","Please name all of the ways you could use this object. Keep in mind that one object can have many uses. Separate your responses with a comma.",NA,"y",44160,NA,NA,2208,23651,NA,NA,NA,"cut, chop, ",1
"J00717362_mgl","t0jw8agotx","Affordance Norms_South Alabama",1,21,"2023-03-13T03:55:49+00:00",13.318530082703,78,"updated stim.csv","Version78.csv","Version 78","List 78","ribbon",NA,2333,6.375,2165,2334,"BOI","-","-","Please name all of the ways you could use this object. Keep in mind that one object can have many uses. Separate your responses with a comma.",NA,"y",12225,NA,NA,1705,4091,NA,NA,NA,"tie, cut, ",1
"J00717362_mgl","t0jw8agotx","Affordance Norms_South Alabama",1,22,"2023-03-13T03:56:28+00:00",39.927971839905,78,"updated stim.csv","Version78.csv","Version 78","List 78","windsock",NA,2330,4.391304348,2946,2331,"BOI","-","-","Please name all of the ways you could use this object. Keep in mind that one object can have many uses. Separate your responses with a comma.",NA,"y",38857,NA,NA,22611,25477,NA,NA,NA,"direction, ",1
"J00717362_mgl","t0jw8agotx","Affordance Norms_South Alabama",1,23,"2023-03-13T03:56:41+00:00",12.296864032745,78,"updated stim.csv","Version78.csv","Version 78","List 78","bonnet",NA,2317,6.043478261,269,2318,"BOI","-","-","Please name all of the ways you could use this object. Keep in mind that one object can have many uses. Separate your responses with a comma.",NA,"y",11353,NA,NA,3624,10424,NA,NA,NA,"wear, wash, make, buy",1
"J00717362_mgl","t0jw8agotx","Affordance Norms_South Alabama",1,24,"2023-03-13T03:57:34+00:00",53.614190101624,78,"updated stim.csv","Version78.csv","Version 78","List 78","bookbinder",NA,2312,4.75,271,2313,"BOI","-","-","Please name all of the ways you could use this object. Keep in mind that one object can have many uses. Separate your responses with a comma.",NA,"y",52612,NA,NA,29163,38855,NA,NA,NA,"put away, binds, ",1
"J00717362_mgl","t0jw8agotx","Affordance Norms_South Alabama",1,25,"2023-03-13T03:57:57+00:00",22.583335876465,78,"updated stim.csv","Version78.csv","Version 78","List 78","turkey",NA,2339,4.833333333,2801,2340,"BOI","-","-","Please name all of the ways you could use this object. Keep in mind that one object can have many uses. Separate your responses with a comma.",NA,"y",21313,NA,NA,2525,12479,NA,NA,NA,"eat, raise, feed, harvest, butcher, ",1
"J00717362_mgl","t0jw8agotx","Affordance Norms_South Alabama",1,26,"2023-03-13T03:58:09+00:00",12.46665096283,78,"updated stim.csv","Version78.csv","Version 78","List 78","sugarcane",NA,2335,5.043478261,2581,2336,"BOI","-","-","Please name all of the ways you could use this object. Keep in mind that one object can have many uses. Separate your responses with a comma.",NA,"y",11245,NA,NA,2354,10451,NA,NA,NA,"eat, produce, drink",1
"J00717362_mgl","t0jw8agotx","Affordance Norms_South Alabama",1,27,"2023-03-13T03:58:49+00:00",39.803236961365,78,"updated stim.csv","Version78.csv","Version 78","List 78","roadster",NA,2329,4.96,2177,2330,"BOI","-","-","Please name all of the ways you could use this object. Keep in mind that one object can have many uses. Separate your responses with a comma.",NA,"y",38599,NA,NA,26246,37628,NA,NA,NA,"drive, race, fix, sell",1
"J00717362_mgl","t0jw8agotx","Affordance Norms_South Alabama",1,28,"2023-03-13T03:59:24+00:00",34.826458215714,78,"updated stim.csv","Version78.csv","Version 78","List 78","garter",NA,2327,4.904761905,1083,2328,"BOI","-","-","Please name all of the ways you could use this object. Keep in mind that one object can have many uses. Separate your responses with a comma.",NA,"y",33837,NA,NA,13068,32541,NA,NA,NA,"wear,wedding",1
"J00717362_mgl","t0jw8agotx","Affordance Norms_South Alabama",1,29,"2023-03-13T03:59:54+00:00",30.039277791977,78,"updated stim.csv","Version78.csv","Version 78","List 78","kiss",NA,2311,4.571428571,1422,2312,"BOI","-","-","Please name all of the ways you could use this object. Keep in mind that one object can have many uses. Separate your responses with a comma.",NA,"y",29096,NA,NA,24793,25923,NA,NA,NA,"smooch",1
"J00717362_mgl","t0jw8agotx","Affordance Norms_South Alabama",1,30,"2023-03-13T04:00:44+00:00",49.758191108704,78,"updated stim.csv","Version78.csv","Version 78","List 78","bully",NA,2324,4.857142857,356,2325,"BOI","-","-","Please name all of the ways you could use this object. Keep in mind that one object can have many uses. Separate your responses with a comma.",NA,"y",48750,NA,NA,45682,47792,NA,NA,NA,"physical",1
"J00717362_mgl","t0jw8agotx","Affordance Norms_South Alabama",1,31,"2023-03-13T04:01:24+00:00",40.051184892654,78,"updated stim.csv","Version78.csv","Version 78","List 78","turnstile",NA,2323,4.818181818,2803,2324,"BOI","-","-","Please name all of the ways you could use this object. Keep in mind that one object can have many uses. Separate your responses with a comma.",NA,"y",38963,NA,NA,29630,37701,NA,NA,NA,"go through, open, close, ",1
