"Username","ID","ExperimentName","Session","Trial","Date","TimeDif","Condition.Number","Stimuli.File","Order.File","Condition.Description","Condition.Notes","Stimuli.Cue","Stimuli.Answer","Stimuli.Shuffle","Stimuli.Stimuli.Notes","Stimuli.Value","Procedure.Item","Procedure.Trial.Type","Procedure.Max.Time","Procedure.Min.Time","Procedure.Text","Procedure.Procedure.Notes","Procedure.Shuffle","Response.RT","Response.Response","Response.Accuracy","Response.RTfirst","Response.RTlast","Response.strictAcc","Response.lenientAcc","Response.focus","Response.JOL","Response.Focus"
"Hcs071604HCS","jjei2wkj77","Affordance Norms_South Alabama",1,11,"2023-01-26T18:46:18+00:00",36.897306919098,37,"updated stim.csv","Version37.csv","Version 37","List 37","tummy",NA,1105,5.125,2796,1106,"BOI","-","-","Please name all of the ways you could use this object. Keep in mind that one object can have many uses. Separate your responses with a comma.",NA,"y",35099,NA,NA,9686,23899,NA,NA,NA,"eat,digest,rub",1
"Hcs071604HCS","jjei2wkj77","Affordance Norms_South Alabama",1,12,"2023-01-26T18:46:41+00:00",23.163291931152,37,"updated stim.csv","Version37.csv","Version 37","List 37","greenery",NA,1103,4.375,1170,1104,"BOI","-","-","Please name all of the ways you could use this object. Keep in mind that one object can have many uses. Separate your responses with a comma.",NA,"y",22023,NA,NA,4807,21173,NA,NA,NA,"grass,trees,flowers,plants,fake plants",1
"Hcs071604HCS","jjei2wkj77","Affordance Norms_South Alabama",1,13,"2023-01-26T18:47:07+00:00",25.68884396553,37,"updated stim.csv","Version37.csv","Version 37","List 37","dressing",NA,1098,5.08,845,1099,"BOI","-","-","Please name all of the ways you could use this object. Keep in mind that one object can have many uses. Separate your responses with a comma.",NA,"y",24344,NA,NA,4011,23178,NA,NA,NA,"eat,sauce,or to dress up ",1
"Hcs071604HCS","jjei2wkj77","Affordance Norms_South Alabama",1,14,"2023-01-26T18:47:22+00:00",14.736179113388,37,"updated stim.csv","Version37.csv","Version 37","List 37","handle",NA,1086,4.958333333,1239,1087,"BOI","-","-","Please name all of the ways you could use this object. Keep in mind that one object can have many uses. Separate your responses with a comma.",NA,"y",14239,NA,NA,2713,13396,NA,NA,NA,"hold,carry,dispose of",1
"Hcs071604HCS","jjei2wkj77","Affordance Norms_South Alabama",1,15,"2023-01-26T18:47:43+00:00",21.155199050903,37,"updated stim.csv","Version37.csv","Version 37","List 37","auto",NA,1096,4.391304348,100,1097,"BOI","-","-","Please name all of the ways you could use this object. Keep in mind that one object can have many uses. Separate your responses with a comma.",NA,"y",20800,NA,NA,4469,19902,NA,NA,NA,"fix,change,make correct,car",1
"Hcs071604HCS","jjei2wkj77","Affordance Norms_South Alabama",1,16,"2023-01-26T18:47:55+00:00",12.532558917999,37,"updated stim.csv","Version37.csv","Version 37","List 37","pistachio",NA,1101,5.541666667,1978,1102,"BOI","-","-","Please name all of the ways you could use this object. Keep in mind that one object can have many uses. Separate your responses with a comma.",NA,"y",12414,NA,NA,3637,11710,NA,NA,NA,"eat,cook,give to birds",1
"Hcs071604HCS","jjei2wkj77","Affordance Norms_South Alabama",1,17,"2023-01-26T18:48:21+00:00",25.384072065353,37,"updated stim.csv","Version37.csv","Version 37","List 37","lotion",NA,1097,6.28,1548,1098,"BOI","-","-","Please name all of the ways you could use this object. Keep in mind that one object can have many uses. Separate your responses with a comma.",NA,"y",25005,NA,NA,4091,24391,NA,NA,NA,"to put on,moisturizer, soft skin",1
"Hcs071604HCS","jjei2wkj77","Affordance Norms_South Alabama",1,18,"2023-01-26T18:48:40+00:00",19.459555864334,37,"updated stim.csv","Version37.csv","Version 37","List 37","tub",NA,1099,6.086956522,2789,1100,"BOI","-","-","Please name all of the ways you could use this object. Keep in mind that one object can have many uses. Separate your responses with a comma.",NA,"y",19285,NA,NA,2105,17844,NA,NA,NA,"to take a bath,clean things,store things",1
"Hcs071604HCS","jjei2wkj77","Affordance Norms_South Alabama",1,19,"2023-01-26T18:49:03+00:00",22.957178115845,37,"updated stim.csv","Version37.csv","Version 37","List 37","lamplight",NA,1095,4.291666667,1456,1096,"BOI","-","-","Please name all of the ways you could use this object. Keep in mind that one object can have many uses. Separate your responses with a comma.",NA,"y",22289,NA,NA,5085,21424,NA,NA,NA,"for lighting,for warth",1
"Hcs071604HCS","jjei2wkj77","Affordance Norms_South Alabama",1,20,"2023-01-26T18:49:18+00:00",14.78345990181,37,"updated stim.csv","Version37.csv","Version 37","List 37","rosary",NA,1082,5.791666667,2193,1083,"BOI","-","-","Please name all of the ways you could use this object. Keep in mind that one object can have many uses. Separate your responses with a comma.",NA,"y",14612,NA,NA,2883,13471,NA,NA,NA,"praying,worshiping ",1
"Hcs071604HCS","jjei2wkj77","Affordance Norms_South Alabama",1,21,"2023-01-26T18:49:45+00:00",27.142445087433,37,"updated stim.csv","Version37.csv","Version 37","List 37","glue",NA,1106,5.043478261,1118,1107,"BOI","-","-","Please name all of the ways you could use this object. Keep in mind that one object can have many uses. Separate your responses with a comma.",NA,"y",26371,NA,NA,2566,25769,NA,NA,NA,"to make things stick together,hold something in one place,put something where you want it",1
"Hcs071604HCS","jjei2wkj77","Affordance Norms_South Alabama",1,22,"2023-01-26T18:50:05+00:00",19.937068939209,37,"updated stim.csv","Version37.csv","Version 37","List 37","vase",NA,1081,5.36,2838,1082,"BOI","-","-","Please name all of the ways you could use this object. Keep in mind that one object can have many uses. Separate your responses with a comma.",NA,"y",19641,NA,NA,13830,18771,NA,NA,NA,"flowers,water",1
"Hcs071604HCS","jjei2wkj77","Affordance Norms_South Alabama",1,23,"2023-01-26T18:50:18+00:00",12.529165029526,37,"updated stim.csv","Version37.csv","Version 37","List 37","kneecap",NA,1092,5.714285714,1434,1093,"BOI","-","-","Please name all of the ways you could use this object. Keep in mind that one object can have many uses. Separate your responses with a comma.",NA,"y",11237,NA,NA,3991,10106,NA,NA,NA,"walking,running,jumping",1
"Hcs071604HCS","jjei2wkj77","Affordance Norms_South Alabama",1,24,"2023-01-26T18:50:34+00:00",16.739881038666,37,"updated stim.csv","Version37.csv","Version 37","List 37","chair",NA,1110,6.88,485,1111,"BOI","-","-","Please name all of the ways you could use this object. Keep in mind that one object can have many uses. Separate your responses with a comma.",NA,"y",16563,NA,NA,1875,15713,NA,NA,NA,"sitting,standing,resting",1
"Hcs071604HCS","jjei2wkj77","Affordance Norms_South Alabama",1,25,"2023-01-26T18:51:01+00:00",27.062996864319,37,"updated stim.csv","Version37.csv","Version 37","List 37","forklift",NA,1094,5.541666667,1048,1095,"BOI","-","-","Please name all of the ways you could use this object. Keep in mind that one object can have many uses. Separate your responses with a comma.",NA,"y",26790,NA,NA,2897,26118,NA,NA,NA,"to move heavy items,put something heavy somewhere else ",1
"Hcs071604HCS","jjei2wkj77","Affordance Norms_South Alabama",1,26,"2023-01-26T18:51:11+00:00",9.7388470172882,37,"updated stim.csv","Version37.csv","Version 37","List 37","jet",NA,1084,5.041666667,1383,1085,"BOI","-","-","Please name all of the ways you could use this object. Keep in mind that one object can have many uses. Separate your responses with a comma.",NA,"y",9615,NA,NA,1891,8828,NA,NA,NA,"fly,move,air",1
"Hcs071604HCS","jjei2wkj77","Affordance Norms_South Alabama",1,27,"2023-01-26T18:51:30+00:00",19.099447965622,37,"updated stim.csv","Version37.csv","Version 37","List 37","scorecard",NA,1090,4.875,2279,1091,"BOI","-","-","Please name all of the ways you could use this object. Keep in mind that one object can have many uses. Separate your responses with a comma.",NA,"y",18961,NA,NA,5500,18294,NA,NA,NA,"to see what you scored,to review your score",1
"Hcs071604HCS","jjei2wkj77","Affordance Norms_South Alabama",1,28,"2023-01-26T18:51:40+00:00",9.917515039444,37,"updated stim.csv","Version37.csv","Version 37","List 37","toffee",NA,1091,5.608695652,2716,1092,"BOI","-","-","Please name all of the ways you could use this object. Keep in mind that one object can have many uses. Separate your responses with a comma.",NA,"y",9802,NA,NA,2098,8593,NA,NA,NA,"eating,making treats",1
"Hcs071604HCS","jjei2wkj77","Affordance Norms_South Alabama",1,29,"2023-01-26T18:52:04+00:00",23.462424993515,37,"updated stim.csv","Version37.csv","Version 37","List 37","jeweler",NA,1100,4.695652174,1385,1101,"BOI","-","-","Please name all of the ways you could use this object. Keep in mind that one object can have many uses. Separate your responses with a comma.",NA,"y",23267,NA,NA,5378,18221,NA,NA,NA,"to make jewelry,sell jewelry",1
"Hcs071604HCS","jjei2wkj77","Affordance Norms_South Alabama",1,30,"2023-01-26T18:52:16+00:00",11.813920974731,37,"updated stim.csv","Version37.csv","Version 37","List 37","critter",NA,1087,4.863636364,697,1088,"BOI","-","-","Please name all of the ways you could use this object. Keep in mind that one object can have many uses. Separate your responses with a comma.",NA,"y",11664,NA,NA,2114,10932,NA,NA,NA,"bugs,rodents,small animals",1
"Hcs071604HCS","jjei2wkj77","Affordance Norms_South Alabama",1,31,"2023-01-26T18:53:14+00:00",58.045109987259,37,"updated stim.csv","Version37.csv","Version 37","List 37","clover",NA,1089,4.695652174,574,1090,"BOI","-","-","Please name all of the ways you could use this object. Keep in mind that one object can have many uses. Separate your responses with a comma.",NA,"y",57675,NA,NA,50778,56985,NA,NA,NA,"plant, good luck",1
"Hcs071604HCS","jjei2wkj77","Affordance Norms_South Alabama",1,32,"2023-01-26T18:53:36+00:00",22.286907196045,37,"updated stim.csv","Version37.csv","Version 37","List 37","rag",NA,1085,5.666666667,2126,1086,"BOI","-","-","Please name all of the ways you could use this object. Keep in mind that one object can have many uses. Separate your responses with a comma.",NA,"y",21958,NA,NA,15872,21438,NA,NA,NA,"cleaning,washing,bathing",1
"Hcs071604HCS","jjei2wkj77","Affordance Norms_South Alabama",1,33,"2023-01-26T18:53:45+00:00",9.1839678287506,37,"updated stim.csv","Version37.csv","Version 37","List 37","stereo",NA,1102,5.68,2531,1103,"BOI","-","-","Please name all of the ways you could use this object. Keep in mind that one object can have many uses. Separate your responses with a comma.",NA,"y",9072,NA,NA,2668,8114,NA,NA,NA,"music,news,podcast",1
"Hcs071604HCS","jjei2wkj77","Affordance Norms_South Alabama",1,34,"2023-01-26T18:54:06+00:00",21.105502128601,37,"updated stim.csv","Version37.csv","Version 37","List 37","mustard",NA,1104,5.8,1727,1105,"BOI","-","-","Please name all of the ways you could use this object. Keep in mind that one object can have many uses. Separate your responses with a comma.",NA,"y",20815,NA,NA,3082,19923,NA,NA,NA,"eating,condiment,sauce",1
"Hcs071604HCS","jjei2wkj77","Affordance Norms_South Alabama",1,35,"2023-01-26T18:54:20+00:00",13.776392936707,37,"updated stim.csv","Version37.csv","Version 37","List 37","shirttail",NA,1093,5.333333333,2348,1094,"BOI","-","-","Please name all of the ways you could use this object. Keep in mind that one object can have many uses. Separate your responses with a comma.",NA,"y",13659,NA,NA,6769,13091,NA,NA,NA,"to go with your coat tail",1
"Hcs071604HCS","jjei2wkj77","Affordance Norms_South Alabama",1,36,"2023-01-26T18:54:37+00:00",17.443957090378,37,"updated stim.csv","Version37.csv","Version 37","List 37","locket",NA,1088,5.333333333,1537,1089,"BOI","-","-","Please name all of the ways you could use this object. Keep in mind that one object can have many uses. Separate your responses with a comma.",NA,"y",17326,NA,NA,3376,13626,NA,NA,NA,"keeping,safety,trust",1
"Hcs071604HCS","jjei2wkj77","Affordance Norms_South Alabama",1,37,"2023-01-26T18:54:51+00:00",14.11296081543,37,"updated stim.csv","Version37.csv","Version 37","List 37","gear",NA,1083,4.695652174,1091,1084,"BOI","-","-","Please name all of the ways you could use this object. Keep in mind that one object can have many uses. Separate your responses with a comma.",NA,"y",13975,NA,NA,4907,13209,NA,NA,NA,"outside,outdoors,indoors",1
"Hcs071604HCS","jjei2wkj77","Affordance Norms_South Alabama",1,38,"2023-01-26T18:55:10+00:00",18.137050151825,37,"updated stim.csv","Version37.csv","Version 37","List 37","lid",NA,1107,5.428571429,1503,1108,"BOI","-","-","Please name all of the ways you could use this object. Keep in mind that one object can have many uses. Separate your responses with a comma.",NA,"y",17950,NA,NA,2080,17419,NA,NA,NA,"cover,hat,go over",1
"Hcs071604HCS","jjei2wkj77","Affordance Norms_South Alabama",1,39,"2023-01-26T18:55:22+00:00",12.164871931076,37,"updated stim.csv","Version37.csv","Version 37","List 37","elephant",NA,1108,4.36,900,1109,"BOI","-","-","Please name all of the ways you could use this object. Keep in mind that one object can have many uses. Separate your responses with a comma.",NA,"y",12003,NA,NA,2520,10566,NA,NA,NA,"animal,statue ",1
"Hcs071604HCS","jjei2wkj77","Affordance Norms_South Alabama",1,40,"2023-01-26T18:55:36+00:00",14.498131990433,37,"updated stim.csv","Version37.csv","Version 37","List 37","twig",NA,1109,5.28,2811,1110,"BOI","-","-","Please name all of the ways you could use this object. Keep in mind that one object can have many uses. Separate your responses with a comma.",NA,"y",14349,NA,NA,2012,13696,NA,NA,NA,"stick,could use to start fire",1
"J00095559_amp","053qfuv3eg","Affordance Norms_South Alabama",1,11,"2023-04-19T14:25:39+00:00",124.67335700989,9,"updated stim.csv","Version9.csv","Version 9","List 9","coleslaw",NA,254,4.72,599,255,"BOI","-","-","Please name all of the ways you could use this object. Keep in mind that one object can have many uses. Separate your responses with a comma.",NA,"y",124346,NA,NA,8600,87135,NA,NA,NA,"eat, stir, cook, measure, refrigerate, bury, dispose",1
"J00095559_amp","053qfuv3eg","Affordance Norms_South Alabama",1,12,"2023-04-19T14:27:19+00:00",100.04670500755,9,"updated stim.csv","Version9.csv","Version 9","List 9","bench",NA,242,6.166666667,203,243,"BOI","-","-","Please name all of the ways you could use this object. Keep in mind that one object can have many uses. Separate your responses with a comma.",NA,"y",99711,NA,NA,2579,52068,NA,NA,NA,"sit on, paint, sand, break, stack, hang, stand on, burn",1
"J00095559_amp","053qfuv3eg","Affordance Norms_South Alabama",1,13,"2023-04-19T14:28:56+00:00",97.46729683876,9,"updated stim.csv","Version9.csv","Version 9","List 9","token",NA,255,5.2,2721,256,"BOI","-","-","Please name all of the ways you could use this object. Keep in mind that one object can have many uses. Separate your responses with a comma.",NA,"y",97108,NA,NA,2565,63620,NA,NA,NA,"polish, count, spend, insert, spin, throw, flip, roll",1
"J00095559_amp","053qfuv3eg","Affordance Norms_South Alabama",1,14,"2023-04-19T14:32:37+00:00",220.91581010818,9,"updated stim.csv","Version9.csv","Version 9","List 9","rancher",NA,243,4.68,2137,244,"BOI","-","-","Please name all of the ways you could use this object. Keep in mind that one object can have many uses. Separate your responses with a comma.",NA,"y",220582,NA,NA,32533,216564,NA,NA,NA,"hit, slap, kiss, hug, punch, tickle, push, shoot, bind, dress, kick",0.977
"J00095559_amp","053qfuv3eg","Affordance Norms_South Alabama",1,15,"2023-04-19T14:35:11+00:00",153.48314905167,9,"updated stim.csv","Version9.csv","Version 9","List 9","veal",NA,260,4.5,2840,261,"BOI","-","-","Please name all of the ways you could use this object. Keep in mind that one object can have many uses. Separate your responses with a comma.",NA,"y",153092,NA,NA,2600,143927,NA,NA,NA,"eat, cook, fry, bake, slice, dip, burn, refrigerate, freeze, slap, tenderize, grill, grind, marinate, smoke, microwave, wear ",1
"J00095559_amp","053qfuv3eg","Affordance Norms_South Alabama",1,16,"2023-04-19T14:37:34+00:00",143.61976981163,9,"updated stim.csv","Version9.csv","Version 9","List 9","block",NA,244,5.413793103,239,245,"BOI","-","-","Please name all of the ways you could use this object. Keep in mind that one object can have many uses. Separate your responses with a comma.",NA,"y",143282,NA,NA,4326,130938,NA,NA,NA,"stack, paint, stain, sand, break, throw, drop, insert, sort, organize, measure",1
"J00095559_amp","053qfuv3eg","Affordance Norms_South Alabama",1,17,"2023-04-19T14:39:29+00:00",115.03746819496,9,"updated stim.csv","Version9.csv","Version 9","List 9","purse",NA,265,6.291666667,2105,266,"BOI","-","-","Please name all of the ways you could use this object. Keep in mind that one object can have many uses. Separate your responses with a comma.",NA,"y",114675,NA,NA,1600,107365,NA,NA,NA,"fill, carry, sew, wear, hang, organize, display, sell",1
"J00095559_amp","053qfuv3eg","Affordance Norms_South Alabama",1,18,"2023-04-19T14:42:05+00:00",155.40962100029,9,"updated stim.csv","Version9.csv","Version 9","List 9","asparagus",NA,251,5.56,85,252,"BOI","-","-","Please name all of the ways you could use this object. Keep in mind that one object can have many uses. Separate your responses with a comma.",NA,"y",155076,NA,NA,2452,141172,NA,NA,NA,"eat, boil, bake, fry, slice, grow, plant, pick, sell, wash, bag",1
"J00095559_amp","053qfuv3eg","Affordance Norms_South Alabama",1,19,"2023-04-19T14:43:10+00:00",65.168948888779,9,"updated stim.csv","Version9.csv","Version 9","List 9","suit",NA,249,6.52173913,2582,250,"BOI","-","-","Please name all of the ways you could use this object. Keep in mind that one object can have many uses. Separate your responses with a comma.",NA,"y",64830,NA,NA,2212,58925,NA,NA,NA,"wear, wash, iron, brush, sell, hang, fold, sew",1
"J00095559_amp","053qfuv3eg","Affordance Norms_South Alabama",1,20,"2023-04-19T14:44:34+00:00",84.082035064697,9,"updated stim.csv","Version9.csv","Version 9","List 9","shell",NA,261,5.291666667,2333,262,"BOI","-","-","Please name all of the ways you could use this object. Keep in mind that one object can have many uses. Separate your responses with a comma.",NA,"y",83665,NA,NA,5087,77271,NA,NA,NA,"collect, wash, display, polish, engrave, thread, wear, paint",1
"J00095559_amp","053qfuv3eg","Affordance Norms_South Alabama",1,21,"2023-04-19T14:46:09+00:00",95.553707838058,9,"updated stim.csv","Version9.csv","Version 9","List 9","mayor",NA,241,4.28,1629,242,"BOI","-","-","Please name all of the ways you could use this object. Keep in mind that one object can have many uses. Separate your responses with a comma.",NA,"y",95222,NA,NA,12333,73698,NA,NA,NA,"vote for, write to, elect, listen to, watch",1
"J00095559_amp","053qfuv3eg","Affordance Norms_South Alabama",1,22,"2023-04-19T14:47:28+00:00",78.869002103806,9,"updated stim.csv","Version9.csv","Version 9","List 9","elbow",NA,258,6.458333333,896,259,"BOI","-","-","Please name all of the ways you could use this object. Keep in mind that one object can have many uses. Separate your responses with a comma.",NA,"y",78529,NA,NA,2610,62141,NA,NA,NA,"hit, bend, rub, massage, scrape, break, burn, scratch",1
"J00095559_amp","053qfuv3eg","Affordance Norms_South Alabama",1,23,"2023-04-19T14:49:23+00:00",114.99149298668,9,"updated stim.csv","Version9.csv","Version 9","List 9","belly",NA,250,5.846153846,200,251,"BOI","-","-","Please name all of the ways you could use this object. Keep in mind that one object can have many uses. Separate your responses with a comma.",NA,"y",114654,NA,NA,2524,99339,NA,NA,NA,"rub, poke, pinch, punch, contract, scratch, burn, fill, sear, eat",1
"J00095559_amp","053qfuv3eg","Affordance Norms_South Alabama",1,24,"2023-04-19T14:50:32+00:00",69.022171020508,9,"updated stim.csv","Version9.csv","Version 9","List 9","wound",NA,256,4.583333333,2976,257,"BOI","-","-","Please name all of the ways you could use this object. Keep in mind that one object can have many uses. Separate your responses with a comma.",NA,"y",68674,NA,NA,2359,34518,NA,NA,NA,"cover, spray, wash, suture, cauterize",1
"J00095559_amp","053qfuv3eg","Affordance Norms_South Alabama",1,25,"2023-04-19T14:51:12+00:00",40.058979988098,9,"updated stim.csv","Version9.csv","Version 9","List 9","wrapper",NA,266,5.791666667,2978,267,"BOI","-","-","Please name all of the ways you could use this object. Keep in mind that one object can have many uses. Separate your responses with a comma.",NA,"y",39725,NA,NA,1994,29257,NA,NA,NA,"crumple, throw, tear, fold, burn",1
"J00095559_amp","053qfuv3eg","Affordance Norms_South Alabama",1,26,"2023-04-19T14:52:15+00:00",62.481256008148,9,"updated stim.csv","Version9.csv","Version 9","List 9","landscape",NA,252,4.384615385,1462,253,"BOI","-","-","Please name all of the ways you could use this object. Keep in mind that one object can have many uses. Separate your responses with a comma.",NA,"y",62155,NA,NA,1824,46546,NA,NA,NA,"paint, photograph, observe, appreciate, draw",1
"J00095559_amp","053qfuv3eg","Affordance Norms_South Alabama",1,27,"2023-04-19T14:53:47+00:00",92.218554973602,9,"updated stim.csv","Version9.csv","Version 9","List 9","altarpiece",NA,269,4.80952381,31,270,"BOI","-","-","Please name all of the ways you could use this object. Keep in mind that one object can have many uses. Separate your responses with a comma.",NA,"y",91874,NA,NA,6594,81325,NA,NA,NA,"place, appreciate, hang, paint, destroy",1
"J00095559_amp","053qfuv3eg","Affordance Norms_South Alabama",1,28,"2023-04-19T14:54:34+00:00",47.383901119232,9,"updated stim.csv","Version9.csv","Version 9","List 9","platter",NA,268,5.75,1998,269,"BOI","-","-","Please name all of the ways you could use this object. Keep in mind that one object can have many uses. Separate your responses with a comma.",NA,"y",47032,NA,NA,2355,40423,NA,NA,NA,"fill, smash, break, wash, dry, paint, stack",1
"J00095559_amp","053qfuv3eg","Affordance Norms_South Alabama",1,29,"2023-04-19T14:55:05+00:00",30.550912857056,9,"updated stim.csv","Version9.csv","Version 9","List 9","goblet",NA,262,5.826086957,1125,263,"BOI","-","-","Please name all of the ways you could use this object. Keep in mind that one object can have many uses. Separate your responses with a comma.",NA,"y",30219,NA,NA,1371,27396,NA,NA,NA,"fill, wash, dry, drink from, display",1
"J00095559_amp","053qfuv3eg","Affordance Norms_South Alabama",1,30,"2023-04-19T14:55:53+00:00",48.322226047516,9,"updated stim.csv","Version9.csv","Version 9","List 9","orchard",NA,270,4.333333333,1816,271,"BOI","-","-","Please name all of the ways you could use this object. Keep in mind that one object can have many uses. Separate your responses with a comma.",NA,"y",47985,NA,NA,1916,29190,NA,NA,NA,"plant, walk through, pick from, burn",1
"J00095559_amp","053qfuv3eg","Affordance Norms_South Alabama",1,31,"2023-04-19T14:57:47+00:00",113.78649902344,9,"updated stim.csv","Version9.csv","Version 9","List 9","cane",NA,257,6.068965517,413,258,"BOI","-","-","Please name all of the ways you could use this object. Keep in mind that one object can have many uses. Separate your responses with a comma.",NA,"y",113436,NA,NA,4641,110916,NA,NA,NA,"twirl, break, tap, cut, fish with, walk with, eat",1
"J00095559_amp","053qfuv3eg","Affordance Norms_South Alabama",1,32,"2023-04-19T14:58:58+00:00",70.954570055008,9,"updated stim.csv","Version9.csv","Version 9","List 9","clay",NA,263,5.52,551,264,"BOI","-","-","Please name all of the ways you could use this object. Keep in mind that one object can have many uses. Separate your responses with a comma.",NA,"y",70621,NA,NA,1965,66217,NA,NA,NA,"mold, bake, kneed, shape, pound, fold, paint, wear, spread, eat",1
"J00095559_amp","053qfuv3eg","Affordance Norms_South Alabama",1,33,"2023-04-19T14:59:52+00:00",54.200714826584,9,"updated stim.csv","Version9.csv","Version 9","List 9","chemicals",NA,259,5.04,510,260,"BOI","-","-","Please name all of the ways you could use this object. Keep in mind that one object can have many uses. Separate your responses with a comma.",NA,"y",53764,NA,NA,3500,36235,NA,NA,NA,"mix, smell, spray, measure, pour",1
"J00095559_amp","053qfuv3eg","Affordance Norms_South Alabama",1,34,"2023-04-19T15:00:56+00:00",63.653443098068,9,"updated stim.csv","Version9.csv","Version 9","List 9","tyke",NA,245,5.05,2813,246,"BOI","-","-","Please name all of the ways you could use this object. Keep in mind that one object can have many uses. Separate your responses with a comma.",NA,"y",63320,NA,NA,11846,43907,NA,NA,NA,"hug, hold, tickle, observe",1
"J00095559_amp","053qfuv3eg","Affordance Norms_South Alabama",1,35,"2023-04-19T15:01:36+00:00",39.856147050858,9,"updated stim.csv","Version9.csv","Version 9","List 9","saleslady",NA,264,4.28,2221,265,"BOI","-","-","Please name all of the ways you could use this object. Keep in mind that one object can have many uses. Separate your responses with a comma.",NA,"y",39519,NA,NA,12029,35456,NA,NA,NA,"listen to, observe",1
"J00095559_amp","053qfuv3eg","Affordance Norms_South Alabama",1,36,"2023-04-19T15:02:22+00:00",46.080247879028,9,"updated stim.csv","Version9.csv","Version 9","List 9","hardware",NA,267,5.52,1249,268,"BOI","-","-","Please name all of the ways you could use this object. Keep in mind that one object can have many uses. Separate your responses with a comma.",NA,"y",45751,NA,NA,2238,39378,NA,NA,NA,"buy, hammer, screw, polish, install",1
"J00095559_amp","053qfuv3eg","Affordance Norms_South Alabama",1,37,"2023-04-19T15:02:50+00:00",27.630568981171,9,"updated stim.csv","Version9.csv","Version 9","List 9","strainer",NA,253,4.875,2557,254,"BOI","-","-","Please name all of the ways you could use this object. Keep in mind that one object can have many uses. Separate your responses with a comma.",NA,"y",27286,NA,NA,3908,8520,NA,NA,NA,"wash, dry, hang",1
"J00095559_amp","053qfuv3eg","Affordance Norms_South Alabama",1,38,"2023-04-19T15:04:27+00:00",97.499907016754,9,"updated stim.csv","Version9.csv","Version 9","List 9","tube",NA,247,4.916666667,2791,248,"BOI","-","-","Please name all of the ways you could use this object. Keep in mind that one object can have many uses. Separate your responses with a comma.",NA,"y",97184,NA,NA,6379,95646,NA,NA,NA,"thread, paint, crawl through, enter, bury, wear, blow, ride",1
"J00095559_amp","053qfuv3eg","Affordance Norms_South Alabama",1,39,"2023-04-19T15:05:24+00:00",57.357808113098,9,"updated stim.csv","Version9.csv","Version 9","List 9","vessel",NA,248,4.925925926,2852,249,"BOI","-","-","Please name all of the ways you could use this object. Keep in mind that one object can have many uses. Separate your responses with a comma.",NA,"y",57011,NA,NA,3040,42892,NA,NA,NA,"float, board, paint, fill",1
"J00095559_amp","053qfuv3eg","Affordance Norms_South Alabama",1,40,"2023-04-19T15:06:27+00:00",62.269757032394,9,"updated stim.csv","Version9.csv","Version 9","List 9","duck",NA,246,5.041666667,859,247,"BOI","-","-","Please name all of the ways you could use this object. Keep in mind that one object can have many uses. Separate your responses with a comma.",NA,"y",61922,NA,NA,4495,55398,NA,NA,NA,"feed, eat, bake, fry, stuff, shoot, raise",1
"j00267298_sai","wmdeffumpy","Affordance Norms_South Alabama",1,11,"2023-01-30T23:50:47+00:00",50.099506139755,40,"updated stim.csv","Version40.csv","Version 40","List 40","sushi",NA,1199,5.708333333,2597,1200,"BOI","-","-","Please name all of the ways you could use this object. Keep in mind that one object can have many uses. Separate your responses with a comma.",NA,"y",49762,NA,NA,21815,42471,NA,NA,NA,"hands, fork, chopsticks",1
"j00267298_sai","wmdeffumpy","Affordance Norms_South Alabama",1,12,"2023-01-30T23:51:40+00:00",52.243798971176,40,"updated stim.csv","Version40.csv","Version 40","List 40","twine",NA,1177,5.5,2812,1178,"BOI","-","-","Please name all of the ways you could use this object. Keep in mind that one object can have many uses. Separate your responses with a comma.",NA,"y",51917,NA,NA,5523,49549,NA,NA,NA,"sow, cross stitch, fasten, tie, ball, ",1
"j00267298_sai","wmdeffumpy","Affordance Norms_South Alabama",1,13,"2023-01-30T23:53:09+00:00",89.594117879868,40,"updated stim.csv","Version40.csv","Version 40","List 40","gyroscope",NA,1189,4.814814815,1207,1190,"BOI","-","-","Please name all of the ways you could use this object. Keep in mind that one object can have many uses. Separate your responses with a comma.",NA,"y",89101,NA,NA,69603,78833,NA,NA,NA,"science, astronomy, physics",1
"j00267298_sai","wmdeffumpy","Affordance Norms_South Alabama",1,14,"2023-01-30T23:53:27+00:00",17.965727090836,40,"updated stim.csv","Version40.csv","Version 40","List 40","porridge",NA,1190,4.80952381,2038,1191,"BOI","-","-","Please name all of the ways you could use this object. Keep in mind that one object can have many uses. Separate your responses with a comma.",NA,"y",17762,NA,NA,3176,3694,NA,NA,NA,"eat",1
"j00267298_sai","wmdeffumpy","Affordance Norms_South Alabama",1,15,"2023-01-30T23:53:27+00:00",0.23785805702209,40,"updated stim.csv","Version40.csv","Version 40","List 40","walker",NA,1179,5.181818182,2885,1180,"BOI","-","-","Please name all of the ways you could use this object. Keep in mind that one object can have many uses. Separate your responses with a comma.",NA,"y",31,NA,NA,-1,-1,NA,NA,NA,"",1
"j00267298_sai","wmdeffumpy","Affordance Norms_South Alabama",1,16,"2023-01-30T23:54:25+00:00",57.712453842163,40,"updated stim.csv","Version40.csv","Version 40","List 40","tank",NA,1173,4.608695652,2631,1174,"BOI","-","-","Please name all of the ways you could use this object. Keep in mind that one object can have many uses. Separate your responses with a comma.",NA,"y",50881,NA,NA,9269,40043,NA,NA,NA,"drive, war, shoot, lose, house, clean, fill",1
"j00267298_sai","wmdeffumpy","Affordance Norms_South Alabama",1,17,"2023-01-30T23:54:51+00:00",25.430586099625,40,"updated stim.csv","Version40.csv","Version 40","List 40","salad",NA,1175,6.111111111,2218,1176,"BOI","-","-","Please name all of the ways you could use this object. Keep in mind that one object can have many uses. Separate your responses with a comma.",NA,"y",25111,NA,NA,7040,15655,NA,NA,NA,"eat, toss, make, chop",1
"j00267298_sai","wmdeffumpy","Affordance Norms_South Alabama",1,18,"2023-01-30T23:55:59+00:00",68.805293083191,40,"updated stim.csv","Version40.csv","Version 40","List 40","makeup",NA,1186,6,1580,1187,"BOI","-","-","Please name all of the ways you could use this object. Keep in mind that one object can have many uses. Separate your responses with a comma.",NA,"y",68583,NA,NA,37649,59857,NA,NA,NA,"apply, smear, retry, turn in, ",1
"j00267298_sai","wmdeffumpy","Affordance Norms_South Alabama",1,19,"2023-01-30T23:56:43+00:00",43.479565858841,40,"updated stim.csv","Version40.csv","Version 40","List 40","oilcan",NA,1200,4.782608696,1802,1201,"BOI","-","-","Please name all of the ways you could use this object. Keep in mind that one object can have many uses. Separate your responses with a comma.",NA,"y",43160,NA,NA,11532,41777,NA,NA,NA,"fill, apply, tin man, change, baseball",1
"j00267298_sai","wmdeffumpy","Affordance Norms_South Alabama",1,20,"2023-01-30T23:57:27+00:00",44.103767156601,40,"updated stim.csv","Version40.csv","Version 40","List 40","clitoris",NA,1172,6.090909091,564,1173,"BOI","-","-","Please name all of the ways you could use this object. Keep in mind that one object can have many uses. Separate your responses with a comma.",NA,"y",43774,NA,NA,11020,41638,NA,NA,NA,"rub, massage, lick, flick, grind, pound",1
"j00267298_sai","wmdeffumpy","Affordance Norms_South Alabama",1,21,"2023-01-30T23:58:18+00:00",51.500423908234,40,"updated stim.csv","Version40.csv","Version 40","List 40","epidermis",NA,1191,5.636363636,916,1192,"BOI","-","-","Please name all of the ways you could use this object. Keep in mind that one object can have many uses. Separate your responses with a comma.",NA,"y",51178,NA,NA,3743,49716,NA,NA,NA,"wash, dry, shave, lotion, cut, bandage,oil",1
"j00267298_sai","wmdeffumpy","Affordance Norms_South Alabama",1,22,"2023-01-30T23:58:46+00:00",27.897780895233,40,"updated stim.csv","Version40.csv","Version 40","List 40","goldsmith",NA,1193,4.375,1134,1194,"BOI","-","-","Please name all of the ways you could use this object. Keep in mind that one object can have many uses. Separate your responses with a comma.",NA,"y",27522,NA,NA,11455,26322,NA,NA,NA,"jewelry, repair, coins",1
"j00267298_sai","wmdeffumpy","Affordance Norms_South Alabama",1,23,"2023-01-30T23:59:03+00:00",16.60612821579,40,"updated stim.csv","Version40.csv","Version 40","List 40","piccolo",NA,1182,4.956521739,1948,1183,"BOI","-","-","Please name all of the ways you could use this object. Keep in mind that one object can have many uses. Separate your responses with a comma.",NA,"y",16369,NA,NA,4458,12839,NA,NA,NA,"blow, finger, music",1
"j00267298_sai","wmdeffumpy","Affordance Norms_South Alabama",1,24,"2023-01-30T23:59:34+00:00",31.409480810165,40,"updated stim.csv","Version40.csv","Version 40","List 40","bedspread",NA,1174,6.08,188,1175,"BOI","-","-","Please name all of the ways you could use this object. Keep in mind that one object can have many uses. Separate your responses with a comma.",NA,"y",31078,NA,NA,12086,29909,NA,NA,NA,"make, cover, wash, dry, dry clean",1
"j00267298_sai","wmdeffumpy","Affordance Norms_South Alabama",1,25,"2023-01-30T23:59:53+00:00",18.78874206543,40,"updated stim.csv","Version40.csv","Version 40","List 40","canteen",NA,1183,5.607142857,419,1184,"BOI","-","-","Please name all of the ways you could use this object. Keep in mind that one object can have many uses. Separate your responses with a comma.",NA,"y",18565,NA,NA,4150,16261,NA,NA,NA,"fill, drink, spike, adam sandler",1
"j00267298_sai","wmdeffumpy","Affordance Norms_South Alabama",1,26,"2023-01-31T00:00:20+00:00",26.496696949005,40,"updated stim.csv","Version40.csv","Version 40","List 40","acorn",NA,1197,5.28,8,1198,"BOI","-","-","Please name all of the ways you could use this object. Keep in mind that one object can have many uses. Separate your responses with a comma.",NA,"y",26174,NA,NA,5697,24498,NA,NA,NA,"nut, squirrel, tree, root, forest",1
"j00267298_sai","wmdeffumpy","Affordance Norms_South Alabama",1,27,"2023-01-31T00:00:43+00:00",23.47155714035,40,"updated stim.csv","Version40.csv","Version 40","List 40","newspaperman",NA,1195,4.48,1761,1196,"BOI","-","-","Please name all of the ways you could use this object. Keep in mind that one object can have many uses. Separate your responses with a comma.",NA,"y",23157,NA,NA,10653,19843,NA,NA,NA,"write, deliver, extinct",1
"j00267298_sai","wmdeffumpy","Affordance Norms_South Alabama",1,28,"2023-01-31T00:01:10+00:00",27.0891020298,40,"updated stim.csv","Version40.csv","Version 40","List 40","buckle",NA,1188,4.846153846,342,1189,"BOI","-","-","Please name all of the ways you could use this object. Keep in mind that one object can have many uses. Separate your responses with a comma.",NA,"y",26738,NA,NA,3385,24287,NA,NA,NA,"fasten, unfasten, rodeo, shoe",1
"j00267298_sai","wmdeffumpy","Affordance Norms_South Alabama",1,29,"2023-01-31T00:01:36+00:00",25.634893894196,40,"updated stim.csv","Version40.csv","Version 40","List 40","signpost",NA,1198,5.25,2380,1199,"BOI","-","-","Please name all of the ways you could use this object. Keep in mind that one object can have many uses. Separate your responses with a comma.",NA,"y",25314,NA,NA,12193,18290,NA,NA,NA,"stop, yield, ",1
"j00267298_sai","wmdeffumpy","Affordance Norms_South Alabama",1,30,"2023-01-31T00:01:54+00:00",17.811870098114,40,"updated stim.csv","Version40.csv","Version 40","List 40","bleacher",NA,1196,5.083333333,235,1197,"BOI","-","-","Please name all of the ways you could use this object. Keep in mind that one object can have many uses. Separate your responses with a comma.",NA,"y",17585,NA,NA,2539,13391,NA,NA,NA,"stadium, gym, sit, uncomfortable,",1
"j00267298_sai","wmdeffumpy","Affordance Norms_South Alabama",1,31,"2023-01-31T00:02:49+00:00",55.152628898621,40,"updated stim.csv","Version40.csv","Version 40","List 40","stopwatch",NA,1185,6.041666667,2549,1186,"BOI","-","-","Please name all of the ways you could use this object. Keep in mind that one object can have many uses. Separate your responses with a comma.",NA,"y",54819,NA,NA,2793,50627,NA,NA,NA,"time, countdown, speed, ",1
"j00267298_sai","wmdeffumpy","Affordance Norms_South Alabama",1,32,"2023-01-31T00:03:21+00:00",32.28831911087,40,"updated stim.csv","Version40.csv","Version 40","List 40","straitjacket",NA,1187,5.037037037,2558,1188,"BOI","-","-","Please name all of the ways you could use this object. Keep in mind that one object can have many uses. Separate your responses with a comma.",NA,"y",31958,NA,NA,3583,29564,NA,NA,NA,"immobilize, safety, security, crazy, harmful",1
"j00267298_sai","wmdeffumpy","Affordance Norms_South Alabama",1,33,"2023-01-31T00:04:02+00:00",40.832932949066,40,"updated stim.csv","Version40.csv","Version 40","List 40","monk",NA,1176,5.173913043,1680,1177,"BOI","-","-","Please name all of the ways you could use this object. Keep in mind that one object can have many uses. Separate your responses with a comma.",NA,"y",40415,NA,NA,3111,39153,NA,NA,NA,"priest, meditate, bald, Tony Shalhoub",1
"j00267298_sai","wmdeffumpy","Affordance Norms_South Alabama",1,34,"2023-01-31T00:04:38+00:00",36.441508054733,40,"updated stim.csv","Version40.csv","Version 40","List 40","baklava",NA,1171,5.454545455,126,1172,"BOI","-","-","Please name all of the ways you could use this object. Keep in mind that one object can have many uses. Separate your responses with a comma.",NA,"y",36125,NA,NA,3659,34942,NA,NA,NA,"delicious, pastry, Turkish",1
"j00267298_sai","wmdeffumpy","Affordance Norms_South Alabama",1,35,"2023-01-31T00:06:09+00:00",90.447344779968,40,"updated stim.csv","Version40.csv","Version 40","List 40","piercing",NA,1184,5,1954,1185,"BOI","-","-","Please name all of the ways you could use this object. Keep in mind that one object can have many uses. Separate your responses with a comma.",NA,"y",90133,NA,NA,4393,89203,NA,NA,NA,"ears, body, striking, eye color, stab, sword",1
"j00267298_sai","wmdeffumpy","Affordance Norms_South Alabama",1,36,"2023-01-31T00:06:37+00:00",28.37274813652,40,"updated stim.csv","Version40.csv","Version 40","List 40","trombone",NA,1194,5.75,2781,1195,"BOI","-","-","Please name all of the ways you could use this object. Keep in mind that one object can have many uses. Separate your responses with a comma.",NA,"y",28052,NA,NA,6017,26762,NA,NA,NA,"bell, slide, brass, band, music",1
"j00267298_sai","wmdeffumpy","Affordance Norms_South Alabama",1,37,"2023-01-31T00:07:16+00:00",38.926303863525,40,"updated stim.csv","Version40.csv","Version 40","List 40","pie",NA,1178,5.869565217,1953,1179,"BOI","-","-","Please name all of the ways you could use this object. Keep in mind that one object can have many uses. Separate your responses with a comma.",NA,"y",38609,NA,NA,5834,37733,NA,NA,NA,"fruit, humble, bake, eat, cool",1
"j00267298_sai","wmdeffumpy","Affordance Norms_South Alabama",1,38,"2023-01-31T00:08:00+00:00",43.699839115143,40,"updated stim.csv","Version40.csv","Version 40","List 40","dance",NA,1180,4.44,753,1181,"BOI","-","-","Please name all of the ways you could use this object. Keep in mind that one object can have many uses. Separate your responses with a comma.",NA,"y",43366,NA,NA,8964,38351,NA,NA,NA,"break, slow, fight, showdown",1
"j00267298_sai","wmdeffumpy","Affordance Norms_South Alabama",1,39,"2023-01-31T00:08:26+00:00",26.407538890839,40,"updated stim.csv","Version40.csv","Version 40","List 40","denims",NA,1181,5.541666667,774,1182,"BOI","-","-","Please name all of the ways you could use this object. Keep in mind that one object can have many uses. Separate your responses with a comma.",NA,"y",26076,NA,NA,3576,23508,NA,NA,NA,"jeans, jorts, wear, pants, jacket",1
"j00267298_sai","wmdeffumpy","Affordance Norms_South Alabama",1,40,"2023-01-31T00:08:55+00:00",29.054493188858,40,"updated stim.csv","Version40.csv","Version 40","List 40","bat",NA,1192,5.041666667,166,1193,"BOI","-","-","Please name all of the ways you could use this object. Keep in mind that one object can have many uses. Separate your responses with a comma.",NA,"y",28743,NA,NA,2696,18434,NA,NA,NA,"animal, baseball, swing, blink",1
"j00316490dl","zv0xovk36c","Affordance Norms_South Alabama",1,11,"2023-02-24T03:06:39+00:00",4.3699271678925,65,"updated stim.csv","Version65.csv","Version 65","List 65","cob",NA,1949,4.636363636,582,1950,"BOI","-","-","Please name all of the ways you could use this object. Keep in mind that one object can have many uses. Separate your responses with a comma.",NA,"y",3759,NA,NA,-1,-1,NA,NA,NA,"",1
"j00316490dl","zv0xovk36c","Affordance Norms_South Alabama",1,12,"2023-02-24T03:06:46+00:00",6.593101978302,65,"updated stim.csv","Version65.csv","Version 65","List 65","optician",NA,1922,4.851851852,1813,1923,"BOI","-","-","Please name all of the ways you could use this object. Keep in mind that one object can have many uses. Separate your responses with a comma.",NA,"y",5941,NA,NA,3956,4489,NA,NA,NA,"Eye ",1
"j00316490dl","zv0xovk36c","Affordance Norms_South Alabama",1,13,"2023-02-24T03:07:00+00:00",13.890357017517,65,"updated stim.csv","Version65.csv","Version 65","List 65","ocean",NA,1921,5.217391304,1799,1922,"BOI","-","-","Please name all of the ways you could use this object. Keep in mind that one object can have many uses. Separate your responses with a comma.",NA,"y",13251,NA,NA,4771,12265,NA,NA,NA,"Fish, dolphin, cruis ship ",1
"j00316490dl","zv0xovk36c","Affordance Norms_South Alabama",1,14,"2023-02-24T03:07:21+00:00",21.10875582695,65,"updated stim.csv","Version65.csv","Version 65","List 65","toaster",NA,1929,6.04,2710,1930,"BOI","-","-","Please name all of the ways you could use this object. Keep in mind that one object can have many uses. Separate your responses with a comma.",NA,"y",20471,NA,NA,2197,15592,NA,NA,NA,"Sandwiches, strudels, toast ",1
"j00316490dl","zv0xovk36c","Affordance Norms_South Alabama",1,15,"2023-02-24T03:07:36+00:00",14.928032159805,65,"updated stim.csv","Version65.csv","Version 65","List 65","wood",NA,1946,5.590909091,2956,1947,"BOI","-","-","Please name all of the ways you could use this object. Keep in mind that one object can have many uses. Separate your responses with a comma.",NA,"y",14277,NA,NA,3214,13273,NA,NA,NA,"Fire place, house, boat, chair, table",1
"j00316490dl","zv0xovk36c","Affordance Norms_South Alabama",1,16,"2023-02-24T03:07:41+00:00",5.8408670425415,65,"updated stim.csv","Version65.csv","Version 65","List 65","fist",NA,1928,6.08,993,1929,"BOI","-","-","Please name all of the ways you could use this object. Keep in mind that one object can have many uses. Separate your responses with a comma.",NA,"y",5072,NA,NA,2371,4187,NA,NA,NA,"Fighting ",1
"j00316490dl","zv0xovk36c","Affordance Norms_South Alabama",1,17,"2023-02-24T03:07:48+00:00",6.2400839328766,65,"updated stim.csv","Version65.csv","Version 65","List 65","carpenter",NA,1924,5.464285714,436,1925,"BOI","-","-","Please name all of the ways you could use this object. Keep in mind that one object can have many uses. Separate your responses with a comma.",NA,"y",5389,NA,NA,3220,4518,NA,NA,NA,"House ",1
"j00316490dl","zv0xovk36c","Affordance Norms_South Alabama",1,18,"2023-02-24T03:07:52+00:00",4.5199899673462,65,"updated stim.csv","Version65.csv","Version 65","List 65","tractor",NA,1935,5.590909091,2753,1936,"BOI","-","-","Please name all of the ways you could use this object. Keep in mind that one object can have many uses. Separate your responses with a comma.",NA,"y",3837,NA,NA,1986,3036,NA,NA,NA,"Farming ",1
"j00316490dl","zv0xovk36c","Affordance Norms_South Alabama",1,19,"2023-02-24T03:08:02+00:00",9.6913869380951,65,"updated stim.csv","Version65.csv","Version 65","List 65","canoe",NA,1923,5.818181818,417,1924,"BOI","-","-","Please name all of the ways you could use this object. Keep in mind that one object can have many uses. Separate your responses with a comma.",NA,"y",9000,NA,NA,3329,8154,NA,NA,NA,"Actives water ",1
"j00316490dl","zv0xovk36c","Affordance Norms_South Alabama",1,20,"2023-02-24T03:08:06+00:00",4.3158011436462,65,"updated stim.csv","Version65.csv","Version 65","List 65","holding",NA,1941,4.428571429,1297,1942,"BOI","-","-","Please name all of the ways you could use this object. Keep in mind that one object can have many uses. Separate your responses with a comma.",NA,"y",3718,NA,NA,1970,2703,NA,NA,NA,"Hands ",1
"j00316490dl","zv0xovk36c","Affordance Norms_South Alabama",1,21,"2023-02-24T03:08:16+00:00",9.4398589134216,65,"updated stim.csv","Version65.csv","Version 65","List 65","cardigan",NA,1947,6.130434783,432,1948,"BOI","-","-","Please name all of the ways you could use this object. Keep in mind that one object can have many uses. Separate your responses with a comma.",NA,"y",8802,NA,NA,4404,7633,NA,NA,NA,"Shirt ",1
"j00316490dl","zv0xovk36c","Affordance Norms_South Alabama",1,22,"2023-02-24T03:08:23+00:00",6.9947390556335,65,"updated stim.csv","Version65.csv","Version 65","List 65","lollipop",NA,1925,6.48,1545,1926,"BOI","-","-","Please name all of the ways you could use this object. Keep in mind that one object can have many uses. Separate your responses with a comma.",NA,"y",6307,NA,NA,4638,5452,NA,NA,NA,"Candy ",1
"j00316490dl","zv0xovk36c","Affordance Norms_South Alabama",1,23,"2023-02-24T03:08:28+00:00",5.2786359786987,65,"updated stim.csv","Version65.csv","Version 65","List 65","stirrup",NA,1944,4.958333333,2538,1945,"BOI","-","-","Please name all of the ways you could use this object. Keep in mind that one object can have many uses. Separate your responses with a comma.",NA,"y",4590,NA,NA,2104,3768,NA,NA,NA,"Horse riding ",1
"j00316490dl","zv0xovk36c","Affordance Norms_South Alabama",1,24,"2023-02-24T03:08:33+00:00",5.0905129909515,65,"updated stim.csv","Version65.csv","Version 65","List 65","hall",NA,1950,4.346153846,1219,1951,"BOI","-","-","Please name all of the ways you could use this object. Keep in mind that one object can have many uses. Separate your responses with a comma.",NA,"y",4384,NA,NA,2915,3531,NA,NA,NA,"Pass ",1
"j00316490dl","zv0xovk36c","Affordance Norms_South Alabama",1,25,"2023-02-24T03:08:39+00:00",5.8835818767548,65,"updated stim.csv","Version65.csv","Version 65","List 65","ladybug",NA,1948,4.875,1450,1949,"BOI","-","-","Please name all of the ways you could use this object. Keep in mind that one object can have many uses. Separate your responses with a comma.",NA,"y",5259,NA,NA,2841,3724,NA,NA,NA,"Pollen ",1
"j00316490dl","zv0xovk36c","Affordance Norms_South Alabama",1,26,"2023-02-24T03:08:49+00:00",9.6838870048523,65,"updated stim.csv","Version65.csv","Version 65","List 65","wheel",NA,1927,5.458333333,2921,1928,"BOI","-","-","Please name all of the ways you could use this object. Keep in mind that one object can have many uses. Separate your responses with a comma.",NA,"y",8919,NA,NA,6235,7767,NA,NA,NA,"Barrow ",1
"j00316490dl","zv0xovk36c","Affordance Norms_South Alabama",1,27,"2023-02-24T03:08:58+00:00",9.6642479896545,65,"updated stim.csv","Version65.csv","Version 65","List 65","machete",NA,1930,5.791666667,1565,1931,"BOI","-","-","Please name all of the ways you could use this object. Keep in mind that one object can have many uses. Separate your responses with a comma.",NA,"y",8901,NA,NA,2485,7997,NA,NA,NA,"Chopping trees ",1
"j00316490dl","zv0xovk36c","Affordance Norms_South Alabama",1,28,"2023-02-24T03:09:08+00:00",10.124158143997,65,"updated stim.csv","Version65.csv","Version 65","List 65","chalk",NA,1931,5.92,491,1932,"BOI","-","-","Please name all of the ways you could use this object. Keep in mind that one object can have many uses. Separate your responses with a comma.",NA,"y",9278,NA,NA,4370,8432,NA,NA,NA,"Art side walk ",1
"j00316490dl","zv0xovk36c","Affordance Norms_South Alabama",1,29,"2023-02-24T03:09:15+00:00",6.4395110607147,65,"updated stim.csv","Version65.csv","Version 65","List 65","tag",NA,1937,4.72,2623,1938,"BOI","-","-","Please name all of the ways you could use this object. Keep in mind that one object can have many uses. Separate your responses with a comma.",NA,"y",5537,NA,NA,3218,4730,NA,NA,NA,"Car ",1
"j00316490dl","zv0xovk36c","Affordance Norms_South Alabama",1,30,"2023-02-24T03:09:21+00:00",6.367978811264,65,"updated stim.csv","Version65.csv","Version 65","List 65","ski",NA,1943,5.52,2397,1944,"BOI","-","-","Please name all of the ways you could use this object. Keep in mind that one object can have many uses. Separate your responses with a comma.",NA,"y",5473,NA,NA,3323,4601,NA,NA,NA,"Mountains ",1
"j00316490dl","zv0xovk36c","Affordance Norms_South Alabama",1,31,"2023-02-24T03:09:27+00:00",5.9943540096283,65,"updated stim.csv","Version65.csv","Version 65","List 65","Swan",NA,1932,NA,3004,1933,"BOI","-","-","Please name all of the ways you could use this object. Keep in mind that one object can have many uses. Separate your responses with a comma.",NA,"y",4954,NA,NA,3268,4151,NA,NA,NA,"Black ",1
"j00316490dl","zv0xovk36c","Affordance Norms_South Alabama",1,32,"2023-02-24T03:09:33+00:00",6.1459140777588,65,"updated stim.csv","Version65.csv","Version 65","List 65","scribbling",NA,1934,4.814814815,2288,1935,"BOI","-","-","Please name all of the ways you could use this object. Keep in mind that one object can have many uses. Separate your responses with a comma.",NA,"y",5464,NA,NA,3529,4609,NA,NA,NA,"Coloring ",1
"j00316490dl","zv0xovk36c","Affordance Norms_South Alabama",1,33,"2023-02-24T03:09:53+00:00",20.111206054688,65,"updated stim.csv","Version65.csv","Version 65","List 65","barrel",NA,1933,5.304347826,153,1934,"BOI","-","-","Please name all of the ways you could use this object. Keep in mind that one object can have many uses. Separate your responses with a comma.",NA,"y",19479,NA,NA,15513,18476,NA,NA,NA,"Wheel, cracker ",1
"j00316490dl","zv0xovk36c","Affordance Norms_South Alabama",1,34,"2023-02-24T03:09:57+00:00",3.7254269123077,65,"updated stim.csv","Version65.csv","Version 65","List 65","stroller",NA,1942,6.5,2570,1943,"BOI","-","-","Please name all of the ways you could use this object. Keep in mind that one object can have many uses. Separate your responses with a comma.",NA,"y",3054,NA,NA,1726,2225,NA,NA,NA,"Baby ",1
"j00316490dl","zv0xovk36c","Affordance Norms_South Alabama",1,35,"2023-02-24T03:10:02+00:00",4.6946940422058,65,"updated stim.csv","Version65.csv","Version 65","List 65","scarf",NA,1940,6.434782609,2268,1941,"BOI","-","-","Please name all of the ways you could use this object. Keep in mind that one object can have many uses. Separate your responses with a comma.",NA,"y",4040,NA,NA,2656,3186,NA,NA,NA,"Cold ",1
"j00316490dl","zv0xovk36c","Affordance Norms_South Alabama",1,36,"2023-02-24T03:10:07+00:00",5.5774269104004,65,"updated stim.csv","Version65.csv","Version 65","List 65","sex",NA,1939,5.16,2316,1940,"BOI","-","-","Please name all of the ways you could use this object. Keep in mind that one object can have many uses. Separate your responses with a comma.",NA,"y",4893,NA,NA,3041,4022,NA,NA,NA,"Great ",1
"j00316490dl","zv0xovk36c","Affordance Norms_South Alabama",1,37,"2023-02-24T03:10:15+00:00",7.844297170639,65,"updated stim.csv","Version65.csv","Version 65","List 65","windshield",NA,1945,5.708333333,2945,1946,"BOI","-","-","Please name all of the ways you could use this object. Keep in mind that one object can have many uses. Separate your responses with a comma.",NA,"y",7211,NA,NA,2812,6240,NA,NA,NA,"Protect from elements ",1
"j00316490dl","zv0xovk36c","Affordance Norms_South Alabama",1,38,"2023-02-24T03:10:33+00:00",17.400574922562,65,"updated stim.csv","Version65.csv","Version 65","List 65","pupil",NA,1938,4.8,2102,1939,"BOI","-","-","Please name all of the ways you could use this object. Keep in mind that one object can have many uses. Separate your responses with a comma.",NA,"y",16659,NA,NA,2162,15583,NA,NA,NA,"Dislocated ",1
"j00316490dl","zv0xovk36c","Affordance Norms_South Alabama",1,39,"2023-02-24T03:10:41+00:00",7.933189868927,65,"updated stim.csv","Version65.csv","Version 65","List 65","kidney",NA,1936,4.68,1415,1937,"BOI","-","-","Please name all of the ways you could use this object. Keep in mind that one object can have many uses. Separate your responses with a comma.",NA,"y",7112,NA,NA,3446,6223,NA,NA,NA,"Filtering blood ",1
"j00316490dl","zv0xovk36c","Affordance Norms_South Alabama",1,40,"2023-02-24T03:10:46+00:00",5.8442590236664,65,"updated stim.csv","Version65.csv","Version 65","List 65","tweezer",NA,1926,5.272727273,2810,1927,"BOI","-","-","Please name all of the ways you could use this object. Keep in mind that one object can have many uses. Separate your responses with a comma.",NA,"y",5117,NA,NA,1566,2713,NA,NA,NA,"Eyebrows ",1
"J00371117_PSN","rlmf8sg7kv","Affordance Norms_South Alabama",1,11,"2023-04-05T18:29:37+00:00",148.99096894264,46,"updated stim.csv","Version46.csv","Version 46","List 46","pompom",NA,1378,5.16,2027,1379,"BOI","-","-","Please name all of the ways you could use this object. Keep in mind that one object can have many uses. Separate your responses with a comma.",NA,"y",148696,NA,NA,1717,147589,NA,NA,NA,"shake, toss, cheer, entice audience, creative nude screen for dancing (like fans), utilized in asking for letters from crowd, noise maker, creative clothing statement, toxic kindling (emergencies), funny mustache",1
"J00371117_PSN","rlmf8sg7kv","Affordance Norms_South Alabama",1,12,"2023-04-05T18:31:46+00:00",128.91351103783,46,"updated stim.csv","Version46.csv","Version 46","List 46","scratches",NA,1363,4.4,2284,1364,"BOI","-","-","Please name all of the ways you could use this object. Keep in mind that one object can have many uses. Separate your responses with a comma.",NA,"y",128731,NA,NA,3563,122763,NA,NA,NA,"received, given, used on doors to be let in, markers on trees for direction, digging for food, showing pet love, sharpening claws (various animals), tearing flesh, self defense, offensive fighting, Doctor's note (jk), secret codes, evidence of a scuffle",1
"J00371117_PSN","rlmf8sg7kv","Affordance Norms_South Alabama",1,13,"2023-04-05T18:34:18+00:00",151.86913204193,46,"updated stim.csv","Version46.csv","Version 46","List 46","bouquet",NA,1352,4.909090909,289,1353,"BOI","-","-","Please name all of the ways you could use this object. Keep in mind that one object can have many uses. Separate your responses with a comma.",NA,"y",151593,NA,NA,3161,130229,NA,NA,NA,"bought, given, thrown, caught, souvenier'd, displayed, eaten (if bouqet of edibles), put in vase, ",1
"J00371117_PSN","rlmf8sg7kv","Affordance Norms_South Alabama",1,14,"2023-04-05T18:38:21+00:00",242.79905295372,46,"updated stim.csv","Version46.csv","Version 46","List 46","mixer",NA,1359,5,1672,1360,"BOI","-","-","Please name all of the ways you could use this object. Keep in mind that one object can have many uses. Separate your responses with a comma.",NA,"y",242602,NA,NA,1496,201529,NA,NA,NA,"mixing (all things mixable), poor self defense weapon, making a mess, movie/theatre prop, decoration, unwieldy paperweight, ",1
"J00371117_PSN","rlmf8sg7kv","Affordance Norms_South Alabama",1,15,"2023-04-05T18:41:40+00:00",199.08684706688,46,"updated stim.csv","Version46.csv","Version 46","List 46","cornbread",NA,1371,5.16,645,1372,"BOI","-","-","Please name all of the ways you could use this object. Keep in mind that one object can have many uses. Separate your responses with a comma.",NA,"y",198830,NA,NA,1578,195769,NA,NA,NA,"eaten (people), feed (for chickens/birds), compost, set decoration for family thanksgiving because no one eats it, combined with milk for drink to-go (seriously), thrown, used as animal-safe sub for confetti/rice at end of wedding",1
"J00371117_PSN","rlmf8sg7kv","Affordance Norms_South Alabama",1,16,"2023-04-05T18:46:00+00:00",260.08129787445,46,"updated stim.csv","Version46.csv","Version 46","List 46","vitamin",NA,1357,5.2,2869,1358,"BOI","-","-","Please name all of the ways you could use this object. Keep in mind that one object can have many uses. Separate your responses with a comma.",NA,"y",259897,NA,NA,5366,257635,NA,NA,NA,"taken orally, taken alternatively (intravaneously, anally, intramuscularly, intranasal, smoked), sold, replenishing levels of lost vitamins, homeostasis, proper body function, a long form assassination (overdose, esp calcium/potassium), scalped, become wealthy via snakeoil salesmen tactics (vitamin infusion clinics)",1
"J00371117_PSN","rlmf8sg7kv","Affordance Norms_South Alabama",1,17,"2023-04-05T18:48:41+00:00",161.56354117393,46,"updated stim.csv","Version46.csv","Version 46","List 46","footpad",NA,1370,5.041666667,1036,1371,"BOI","-","-","Please name all of the ways you could use this object. Keep in mind that one object can have many uses. Separate your responses with a comma.",NA,"y",161252,NA,NA,36276,151776,NA,NA,NA,"(if object) hold and ask someone what this is, (if pad of foot) balance, cushion impact of skeleton on solid ground, protect feet, (if foot-mounted soldier) combat",1
"J00371117_PSN","rlmf8sg7kv","Affordance Norms_South Alabama",1,18,"2023-04-05T18:51:41+00:00",180.03918886185,46,"updated stim.csv","Version46.csv","Version 46","List 46","saleswoman",NA,1362,4.608695652,2223,1363,"BOI","-","-","Please name all of the ways you could use this object. Keep in mind that one object can have many uses. Separate your responses with a comma.",NA,"y",179766,NA,NA,4398,169424,NA,NA,NA,"sales, honeypotting, giving respect to in the workplace, point of information for given sales items, pitch ideas to clients ",1
"J00371117_PSN","rlmf8sg7kv","Affordance Norms_South Alabama",1,19,"2023-04-05T18:53:33+00:00",111.23108506203,46,"updated stim.csv","Version46.csv","Version 46","List 46","arachnid",NA,1368,4.904761905,69,1369,"BOI","-","-","Please name all of the ways you could use this object. Keep in mind that one object can have many uses. Separate your responses with a comma.",NA,"y",110949,NA,NA,5785,104989,NA,NA,NA,"pet, named member of household that eats flies, let out of the house without harm, research, scraring your wife, environmenal homeostasis, counting to the number 8",1
"J00371117_PSN","rlmf8sg7kv","Affordance Norms_South Alabama",1,20,"2023-04-05T18:58:15+00:00",282.78763508797,46,"updated stim.csv","Version46.csv","Version 46","List 46","boyfriend",NA,1373,6.310344828,297,1374,"BOI","-","-","Please name all of the ways you could use this object. Keep in mind that one object can have many uses. Separate your responses with a comma.",NA,"y",282454,NA,NA,8639,270064,NA,NA,NA,"kissed, hugged, financial support, emotional support, weaponized ex jealousy, honeypotting, sexual gratification, jar opener, getting advice when I only want to vent, someone to ask if they would love me if I was a gummy worm, physical protection, arm candy, household chores, tire changer, reach tall things, trashcan (eats leftovers), always has a coat, hair holder, scratches, massages, scaring the ps5 by yelling at it, family mediator, heavy lifter, gym partner, ",1
"J00371117_PSN","rlmf8sg7kv","Affordance Norms_South Alabama",1,21,"2023-04-05T19:01:21+00:00",185.33105683327,46,"updated stim.csv","Version46.csv","Version 46","List 46","broth",NA,1360,5.321428571,334,1361,"BOI","-","-","Please name all of the ways you could use this object. Keep in mind that one object can have many uses. Separate your responses with a comma.",NA,"y",185158,NA,NA,2808,184375,NA,NA,NA,"chaser (when out of standard chasers), drank, being a tasty addition to any stew/soup, dusty pantry decor",1
"J00371117_PSN","rlmf8sg7kv","Affordance Norms_South Alabama",1,22,"2023-04-05T19:05:42+00:00",261.69149303436,46,"updated stim.csv","Version46.csv","Version 46","List 46","paper",NA,1375,5.695652174,1862,1376,"BOI","-","-","Please name all of the ways you could use this object. Keep in mind that one object can have many uses. Separate your responses with a comma.",NA,"y",261432,NA,NA,4520,259492,NA,NA,NA,"printer ammo, drawing, writing, tearing, burning/kindling, papercuts, paper airplanes, origami, shredding (for fun), turning into small pet rodent flooring, made into books, alternative to computers whent the power grid fails, temporary window screening, weapon (if in reams)",1
"J00371117_PSN","rlmf8sg7kv","Affordance Norms_South Alabama",1,23,"2023-04-05T19:10:02+00:00",259.66017198563,46,"updated stim.csv","Version46.csv","Version 46","List 46","mistress",NA,1377,5,1669,1378,"BOI","-","-","Please name all of the ways you could use this object. Keep in mind that one object can have many uses. Separate your responses with a comma.",NA,"y",259473,NA,NA,2474,250728,NA,NA,NA,"honeypotting, emotional and/or physical outlet due to unacknowledged insecurities and/or failing primary relationship, ego boost, maintaining narcissistic need for attention, cheating for the thrill of it, indirect way to get a divorce when unable to end relationship due to choice paralysis, secretary to republican in office, ",1
"J00371117_PSN","rlmf8sg7kv","Affordance Norms_South Alabama",1,24,"2023-04-05T19:13:53+00:00",231.29229998589,46,"updated stim.csv","Version46.csv","Version 46","List 46","washbowl",NA,1374,5.692307692,2897,1375,"BOI","-","-","Please name all of the ways you could use this object. Keep in mind that one object can have many uses. Separate your responses with a comma.",NA,"y",230966,NA,NA,1240,226570,NA,NA,NA,"washing hands/feet/dishes, eating out of (bowl), defense weapon of opportunity (poor), funny hat, a base for smaller bowls, impromptu fruit basket/bowl, impromptu bedpan, meat dethawer, house cat hangout, mixer bowl, putting under shirt to fake pregnancy, generally whatever a normal large bowl could do",1
"J00371117_PSN","rlmf8sg7kv","Affordance Norms_South Alabama",1,25,"2023-04-05T19:18:49+00:00",295.46322512627,46,"updated stim.csv","Version46.csv","Version 46","List 46","interviewer",NA,1356,4.75,1365,1357,"BOI","-","-","Please name all of the ways you could use this object. Keep in mind that one object can have many uses. Separate your responses with a comma.",NA,"y",295190,NA,NA,4227,288913,NA,NA,NA,"interview, hire qualified individuals, weed out unqualified individuals, ambassador for [company/organizational] values, talk show host, journalist, celebrity gossip acquirer, potential CIA/equivalent information collector due to extremely developed interpersonal skills",1
"J00371117_PSN","rlmf8sg7kv","Affordance Norms_South Alabama",1,26,"2023-04-05T19:22:02+00:00",193.05903887749,46,"updated stim.csv","Version46.csv","Version 46","List 46","antenna",NA,1353,4.695652174,46,1354,"BOI","-","-","Please name all of the ways you could use this object. Keep in mind that one object can have many uses. Separate your responses with a comma.",NA,"y",192888,NA,NA,2700,191812,NA,NA,NA,"receiving radio signals, using as sword, extending and collapsing, probe, getting things out from under the couch, instructional aid (pointer), navigational aid (insects), decoration (antenna bling), improvised corporal punishment device ",1
"J00371117_PSN","rlmf8sg7kv","Affordance Norms_South Alabama",1,27,"2023-04-05T19:24:53+00:00",170.78078913689,46,"updated stim.csv","Version46.csv","Version 46","List 46","quarter",NA,1366,5.333333333,2110,1367,"BOI","-","-","Please name all of the ways you could use this object. Keep in mind that one object can have many uses. Separate your responses with a comma.",NA,"y",170522,NA,NA,4697,169030,NA,NA,NA,"(if currency) used to exchange for goods or services, flipped, spun, knuckle tricks, fountain wish ammo, rolling down those spinny circle things in museums, melting into a ring, collecting, making change (cash), self defense weapon (decent, if in rolls)",1
"J00371117_PSN","rlmf8sg7kv","Affordance Norms_South Alabama",1,28,"2023-04-05T19:26:43+00:00",110.04101204872,46,"updated stim.csv","Version46.csv","Version 46","List 46","gardener",NA,1361,4.958333333,1077,1362,"BOI","-","-","Please name all of the ways you could use this object. Keep in mind that one object can have many uses. Separate your responses with a comma.",NA,"y",109783,NA,NA,1601,105899,NA,NA,NA,"Garden design, garden tending, small scale crops (for eating), seed acquisition, borrowing garden specific tools most people don't have, apocalypse team candidate, knows where the hoes are at",1
"J00371117_PSN","rlmf8sg7kv","Affordance Norms_South Alabama",1,29,"2023-04-05T19:28:40+00:00",116.85802078247,46,"updated stim.csv","Version46.csv","Version 46","List 46","remote",NA,1351,4.357142857,2154,1352,"BOI","-","-","Please name all of the ways you could use this object. Keep in mind that one object can have many uses. Separate your responses with a comma.",NA,"y",116596,NA,NA,3804,104562,NA,NA,NA,"changing the channel, creating family trust issues when lost, making life easier in terms of electronically controlling anything with a remote, self defense weapon (thrown), chew toy (dog), ",1
"J00371117_PSN","rlmf8sg7kv","Affordance Norms_South Alabama",1,30,"2023-04-05T19:30:02+00:00",82.441832065582,46,"updated stim.csv","Version46.csv","Version 46","List 46","treasure",NA,1369,4.666666667,2770,1370,"BOI","-","-","Please name all of the ways you could use this object. Keep in mind that one object can have many uses. Separate your responses with a comma.",NA,"y",82192,NA,NA,2561,81436,NA,NA,NA,"hoarding, selling, hiding/burying, seeking, treasuring, realizing that it was the friends you made along the way",1
"J00371117_PSN","rlmf8sg7kv","Affordance Norms_South Alabama",1,31,"2023-04-05T19:32:37+00:00",155.03691411018,46,"updated stim.csv","Version46.csv","Version 46","List 46","chairman",NA,1372,4.965517241,486,1373,"BOI","-","-","Please name all of the ways you could use this object. Keep in mind that one object can have many uses. Separate your responses with a comma.",NA,"y",154770,NA,NA,8405,138812,NA,NA,NA,"making decisions that reflect upon the greater health of the organization in which they are chairman, fall guy, weeding out inefficiency, controlling future direction of organization, ",1
"J00371117_PSN","rlmf8sg7kv","Affordance Norms_South Alabama",1,32,"2023-04-05T19:34:34+00:00",117.36082386971,46,"updated stim.csv","Version46.csv","Version 46","List 46","diner",NA,1358,4.375,794,1359,"BOI","-","-","Please name all of the ways you could use this object. Keep in mind that one object can have many uses. Separate your responses with a comma.",NA,"y",117108,NA,NA,1234,116024,NA,NA,NA,"eat, hang out, employment, small town gossip center, horror movie location, place you go that is indifferent to time and the woes of the outside world where you can sit and zen before facing reality again",1
"J00371117_PSN","rlmf8sg7kv","Affordance Norms_South Alabama",1,33,"2023-04-05T19:37:38+00:00",184.01128816605,46,"updated stim.csv","Version46.csv","Version 46","List 46","sword",NA,1355,5.461538462,2611,1356,"BOI","-","-","Please name all of the ways you could use this object. Keep in mind that one object can have many uses. Separate your responses with a comma.",NA,"y",183807,NA,NA,1367,179607,NA,NA,NA,"slicing, stabbing, decoration, military ceremony, mall ninja collection, thrown (poor), dual wielded (also poor), duel, play sport of fencing, costume prop, swallowing, unwieldy bread slicer",1
"J00371117_PSN","rlmf8sg7kv","Affordance Norms_South Alabama",1,34,"2023-04-05T19:40:00+00:00",141.12608981133,46,"updated stim.csv","Version46.csv","Version 46","List 46","muscle",NA,1354,5.12,1721,1355,"BOI","-","-","Please name all of the ways you could use this object. Keep in mind that one object can have many uses. Separate your responses with a comma.",NA,"y",140863,NA,NA,2881,137277,NA,NA,NA,"grown, protein (body absorption), shown off, used for physically intense activity, threat aversion (hard target), imposing will, ",1
"J00371117_PSN","rlmf8sg7kv","Affordance Norms_South Alabama",1,35,"2023-04-05T19:43:27+00:00",207.45468401909,46,"updated stim.csv","Version46.csv","Version 46","List 46","handclasp",NA,1376,4.681818182,1235,1377,"BOI","-","-","Please name all of the ways you could use this object. Keep in mind that one object can have many uses. Separate your responses with a comma.",NA,"y",207161,NA,NA,23784,206429,NA,NA,NA,"telling someone its time to leave (southern), nonverbal cue that precedes non-sugar coated information/criticism, cue of discomfort (blocking body off), cue of confidence (combined with leaning), cue of low hand temperature, intimidation (circumstantial)",1
"J00371117_PSN","rlmf8sg7kv","Affordance Norms_South Alabama",1,36,"2023-04-05T19:46:10+00:00",162.83871006966,46,"updated stim.csv","Version46.csv","Version 46","List 46","southerner",NA,1380,5.045454545,2456,1381,"BOI","-","-","Please name all of the ways you could use this object. Keep in mind that one object can have many uses. Separate your responses with a comma.",NA,"y",162571,NA,NA,17479,158273,NA,NA,NA,"misunderstanding what BLM is about, being generally nicer to strangers than compared to northerners, voting against women's autonomy, having the worst education, refusing sex education, keeping general ignorance alive",1
"J00371117_PSN","rlmf8sg7kv","Affordance Norms_South Alabama",1,37,"2023-04-05T19:47:47+00:00",97.079492092133,46,"updated stim.csv","Version46.csv","Version 46","List 46","drainpipe",NA,1364,4.875,837,1365,"BOI","-","-","Please name all of the ways you could use this object. Keep in mind that one object can have many uses. Separate your responses with a comma.",NA,"y",96836,NA,NA,1610,91513,NA,NA,NA,"draining water, weapon of opportunity (excellent), door prop, decoration (that brick chic from the late 20teens), impromptu splint, impromptu horn",1
"J00371117_PSN","rlmf8sg7kv","Affordance Norms_South Alabama",1,38,"2023-04-05T19:48:38+00:00",50.700589895248,46,"updated stim.csv","Version46.csv","Version 46","List 46","flute",NA,1367,5.75,1019,1368,"BOI","-","-","Please name all of the ways you could use this object. Keep in mind that one object can have many uses. Separate your responses with a comma.",NA,"y",50439,NA,NA,1873,49590,NA,NA,NA,"playing music, decoration, collecting, weapon of opportunity (decent), phallic object, presentation tool (pointer)",1
"J00371117_PSN","rlmf8sg7kv","Affordance Norms_South Alabama",1,39,"2023-04-05T19:50:14+00:00",96.652493000031,46,"updated stim.csv","Version46.csv","Version 46","List 46","pump",NA,1365,4.347826087,2096,1366,"BOI","-","-","Please name all of the ways you could use this object. Keep in mind that one object can have many uses. Separate your responses with a comma.",NA,"y",96405,NA,NA,5260,93498,NA,NA,NA,"(if gas pump) pumping gasoline into various receptacles, (if air pump) convenient way to air up balls/beds/air-needing items, sexual device, ",1
"J00371117_PSN","rlmf8sg7kv","Affordance Norms_South Alabama",1,40,"2023-04-05T19:51:42+00:00",87.835952997208,46,"updated stim.csv","Version46.csv","Version 46","List 46","golfer",NA,1379,4.583333333,1136,1380,"BOI","-","-","Please name all of the ways you could use this object. Keep in mind that one object can have many uses. Separate your responses with a comma.",NA,"y",87574,NA,NA,3195,79020,NA,NA,NA,"golfing, teaching golf, likely has a cart you can borrow, ",1
"J00567780OT","hcz816wkiy","Affordance Norms_South Alabama",1,11,"2023-04-03T00:12:04+00:00",36.667106866837,33,"updated stim.csv","Version33.csv","Version 33","List 33","mannequin",NA,982,4.48,1592,983,"BOI","-","-","Please name all of the ways you could use this object. Keep in mind that one object can have many uses. Separate your responses with a comma.",NA,"y",36009,NA,NA,25829,35811,NA,NA,NA,"Styling, sewing, advertising,",1
"J00567780OT","hcz816wkiy","Affordance Norms_South Alabama",1,12,"2023-04-03T00:12:35+00:00",30.679105997086,33,"updated stim.csv","Version33.csv","Version 33","List 33","senorita",NA,988,4.391304348,2311,989,"BOI","-","-","Please name all of the ways you could use this object. Keep in mind that one object can have many uses. Separate your responses with a comma.",NA,"y",29943,NA,NA,15881,28902,NA,NA,NA,"Young, unmarried, Spanish ",1
"J00567780OT","hcz816wkiy","Affordance Norms_South Alabama",1,13,"2023-04-03T00:13:17+00:00",42.127679109573,33,"updated stim.csv","Version33.csv","Version 33","List 33","mango",NA,967,6.24,1588,968,"BOI","-","-","Please name all of the ways you could use this object. Keep in mind that one object can have many uses. Separate your responses with a comma.",NA,"y",41530,NA,NA,2354,40522,NA,NA,NA,"Smoothie, immunity, anticancer ",1
"J00567780OT","hcz816wkiy","Affordance Norms_South Alabama",1,14,"2023-04-03T00:13:35+00:00",17.803297996521,33,"updated stim.csv","Version33.csv","Version 33","List 33","bedroom",NA,989,5.708333333,187,990,"BOI","-","-","Please name all of the ways you could use this object. Keep in mind that one object can have many uses. Separate your responses with a comma.",NA,"y",17247,NA,NA,1918,11945,NA,NA,NA,"Sleep, peace, rest",1
"J00567780OT","hcz816wkiy","Affordance Norms_South Alabama",1,15,"2023-04-03T00:13:52+00:00",17.338340997696,33,"updated stim.csv","Version33.csv","Version 33","List 33","reindeer",NA,976,4.5,2153,977,"BOI","-","-","Please name all of the ways you could use this object. Keep in mind that one object can have many uses. Separate your responses with a comma.",NA,"y",16799,NA,NA,6798,15376,NA,NA,NA,"Reproduction ",1
"J00567780OT","hcz816wkiy","Affordance Norms_South Alabama",1,16,"2023-04-03T00:14:12+00:00",19.978763818741,33,"updated stim.csv","Version33.csv","Version 33","List 33","pajama",NA,963,5.962962963,1850,964,"BOI","-","-","Please name all of the ways you could use this object. Keep in mind that one object can have many uses. Separate your responses with a comma.",NA,"y",19484,NA,NA,2113,18688,NA,NA,NA,"A cover, relax ",1
"J00567780OT","hcz816wkiy","Affordance Norms_South Alabama",1,17,"2023-04-03T00:15:03+00:00",50.751876115799,33,"updated stim.csv","Version33.csv","Version 33","List 33","sculpture",NA,977,5.782608696,2292,978,"BOI","-","-","Please name all of the ways you could use this object. Keep in mind that one object can have many uses. Separate your responses with a comma.",NA,"y",50190,NA,NA,5872,18808,NA,NA,NA,"Imagine, portray, ",1
"J00567780OT","hcz816wkiy","Affordance Norms_South Alabama",1,18,"2023-04-03T00:15:21+00:00",18.748394012451,33,"updated stim.csv","Version33.csv","Version 33","List 33","baseball",NA,975,6.037037037,157,976,"BOI","-","-","Please name all of the ways you could use this object. Keep in mind that one object can have many uses. Separate your responses with a comma.",NA,"y",18180,NA,NA,1998,17375,NA,NA,NA,"Throw, hit, roll, hold ",1
"J00567780OT","hcz816wkiy","Affordance Norms_South Alabama",1,19,"2023-04-03T00:15:40+00:00",18.804934024811,33,"updated stim.csv","Version33.csv","Version 33","List 33","buoy",NA,990,5.125,364,991,"BOI","-","-","Please name all of the ways you could use this object. Keep in mind that one object can have many uses. Separate your responses with a comma.",NA,"y",18121,NA,NA,3478,15594,NA,NA,NA,"Float, survive, awareness ",1
"J00567780OT","hcz816wkiy","Affordance Norms_South Alabama",1,20,"2023-04-03T00:16:06+00:00",25.848891019821,33,"updated stim.csv","Version33.csv","Version 33","List 33","drawing",NA,966,4.695652174,841,967,"BOI","-","-","Please name all of the ways you could use this object. Keep in mind that one object can have many uses. Separate your responses with a comma.",NA,"y",25260,NA,NA,4120,24431,NA,NA,NA,"Art, sale, study, alter ",1
"J00567780OT","hcz816wkiy","Affordance Norms_South Alabama",1,21,"2023-04-03T00:16:42+00:00",36.241722822189,33,"updated stim.csv","Version33.csv","Version 33","List 33","cadet",NA,986,4.291666667,394,987,"BOI","-","-","Please name all of the ways you could use this object. Keep in mind that one object can have many uses. Separate your responses with a comma.",NA,"y",35610,NA,NA,15816,34670,NA,NA,NA,"Train, junior",1
"J00567780OT","hcz816wkiy","Affordance Norms_South Alabama",1,22,"2023-04-03T00:17:13+00:00",30.799839019775,33,"updated stim.csv","Version33.csv","Version 33","List 33","appraiser",NA,980,4.428571429,64,981,"BOI","-","-","Please name all of the ways you could use this object. Keep in mind that one object can have many uses. Separate your responses with a comma.",NA,"y",30311,NA,NA,12504,26830,NA,NA,NA,"Opinion, property values",1
"J00567780OT","hcz816wkiy","Affordance Norms_South Alabama",1,23,"2023-04-03T00:17:52+00:00",38.816482067108,33,"updated stim.csv","Version33.csv","Version 33","List 33","cowskin",NA,983,4.652173913,673,984,"BOI","-","-","Please name all of the ways you could use this object. Keep in mind that one object can have many uses. Separate your responses with a comma.",NA,"y",38264,NA,NA,10116,37444,NA,NA,NA,"Rug, hat, shoes, jacket, car, belts",1
"J00567780OT","hcz816wkiy","Affordance Norms_South Alabama",1,24,"2023-04-03T00:18:34+00:00",42.518809080124,33,"updated stim.csv","Version33.csv","Version 33","List 33","bobsleigh",NA,972,5.64,258,973,"BOI","-","-","Please name all of the ways you could use this object. Keep in mind that one object can have many uses. Separate your responses with a comma.",NA,"y",41904,NA,NA,24018,41468,NA,NA,NA,"Carries, sport, slide down snow ",1
"J00567780OT","hcz816wkiy","Affordance Norms_South Alabama",1,25,"2023-04-03T00:19:06+00:00",32.022639036179,33,"updated stim.csv","Version33.csv","Version 33","List 33","luggage",NA,971,5.304347826,1556,972,"BOI","-","-","Please name all of the ways you could use this object. Keep in mind that one object can have many uses. Separate your responses with a comma.",NA,"y",31520,NA,NA,2189,29859,NA,NA,NA,"Carry belongings, travel, moving ",1
"J00567780OT","hcz816wkiy","Affordance Norms_South Alabama",1,26,"2023-04-03T00:19:47+00:00",40.668813943863,33,"updated stim.csv","Version33.csv","Version 33","List 33","fabric",NA,964,6.08,939,965,"BOI","-","-","Please name all of the ways you could use this object. Keep in mind that one object can have many uses. Separate your responses with a comma.",NA,"y",40125,NA,NA,1930,39606,NA,NA,NA,"Clothes, bedding, hair accessories, furniture, cleaning ",0.95
"J00567780OT","hcz816wkiy","Affordance Norms_South Alabama",1,27,"2023-04-03T00:20:17+00:00",29.791903018951,33,"updated stim.csv","Version33.csv","Version 33","List 33","washcloth",NA,961,6.192307692,2898,962,"BOI","-","-","Please name all of the ways you could use this object. Keep in mind that one object can have many uses. Separate your responses with a comma.",NA,"y",29075,NA,NA,2024,27663,NA,NA,NA,"Cleaning, bathing, drying off, wiping, painting ",1
"J00567780OT","hcz816wkiy","Affordance Norms_South Alabama",1,28,"2023-04-03T00:20:45+00:00",28.286141872406,33,"updated stim.csv","Version33.csv","Version 33","List 33","gazebo",NA,968,5.25,1090,969,"BOI","-","-","Please name all of the ways you could use this object. Keep in mind that one object can have many uses. Separate your responses with a comma.",NA,"y",27700,NA,NA,2775,26779,NA,NA,NA,"Cover, parties, relaxing ",1
"J00567780OT","hcz816wkiy","Affordance Norms_South Alabama",1,29,"2023-04-03T00:20:55+00:00",10.001281023026,33,"updated stim.csv","Version33.csv","Version 33","List 33","dime",NA,978,6.083333333,793,979,"BOI","-","-","Please name all of the ways you could use this object. Keep in mind that one object can have many uses. Separate your responses with a comma.",NA,"y",9549,NA,NA,5554,8781,NA,NA,NA,"Towards payments ",1
"J00567780OT","hcz816wkiy","Affordance Norms_South Alabama",1,30,"2023-04-03T00:21:05+00:00",9.8624050617218,33,"updated stim.csv","Version33.csv","Version 33","List 33","film",NA,962,4.32,976,963,"BOI","-","-","Please name all of the ways you could use this object. Keep in mind that one object can have many uses. Separate your responses with a comma.",NA,"y",9368,NA,NA,2542,8810,NA,NA,NA,"Movie, recording, printing ",1
"J00567780OT","hcz816wkiy","Affordance Norms_South Alabama",1,31,"2023-04-03T00:21:12+00:00",6.9084351062775,33,"updated stim.csv","Version33.csv","Version 33","List 33","outlet",NA,987,4.541666667,1830,988,"BOI","-","-","Please name all of the ways you could use this object. Keep in mind that one object can have many uses. Separate your responses with a comma.",NA,"y",6396,NA,NA,3637,6230,NA,NA,NA,"Power,",1
"J00567780OT","hcz816wkiy","Affordance Norms_South Alabama",1,32,"2023-04-03T00:21:36+00:00",23.815761804581,33,"updated stim.csv","Version33.csv","Version 33","List 33","balloon",NA,965,5.523809524,130,966,"BOI","-","-","Please name all of the ways you could use this object. Keep in mind that one object can have many uses. Separate your responses with a comma.",NA,"y",23310,NA,NA,4589,21669,NA,NA,NA,"Celebrating, decorating, health, healing ",1
"J00567780OT","hcz816wkiy","Affordance Norms_South Alabama",1,33,"2023-04-03T00:21:51+00:00",15.461587190628,33,"updated stim.csv","Version33.csv","Version 33","List 33","hose",NA,969,5.565217391,1318,970,"BOI","-","-","Please name all of the ways you could use this object. Keep in mind that one object can have many uses. Separate your responses with a comma.",NA,"y",14878,NA,NA,2198,7457,NA,NA,NA,"Water, gardening ",1
"J00567780OT","hcz816wkiy","Affordance Norms_South Alabama",1,34,"2023-04-03T00:22:13+00:00",21.383442878723,33,"updated stim.csv","Version33.csv","Version 33","List 33","handshake",NA,981,5.636363636,1243,982,"BOI","-","-","Please name all of the ways you could use this object. Keep in mind that one object can have many uses. Separate your responses with a comma.",NA,"y",20879,NA,NA,2736,16840,NA,NA,NA,"Agreement, greeting",1
"J00567780OT","hcz816wkiy","Affordance Norms_South Alabama",1,35,"2023-04-03T00:22:36+00:00",23.665880918503,33,"updated stim.csv","Version33.csv","Version 33","List 33","bonbon",NA,974,4.807692308,265,975,"BOI","-","-","Please name all of the ways you could use this object. Keep in mind that one object can have many uses. Separate your responses with a comma.",NA,"y",22922,NA,NA,12040,19079,NA,NA,NA,"Dessert ",1
"J00567780OT","hcz816wkiy","Affordance Norms_South Alabama",1,36,"2023-04-03T00:23:03+00:00",26.812975168228,33,"updated stim.csv","Version33.csv","Version 33","List 33","straw",NA,979,6,2560,980,"BOI","-","-","Please name all of the ways you could use this object. Keep in mind that one object can have many uses. Separate your responses with a comma.",NA,"y",26333,NA,NA,2023,23279,NA,NA,NA,"Drinking, experimenting ",1
"J00567780OT","hcz816wkiy","Affordance Norms_South Alabama",1,37,"2023-04-03T00:23:11+00:00",7.7022039890289,33,"updated stim.csv","Version33.csv","Version 33","List 33","magician",NA,973,4.5,1571,974,"BOI","-","-","Please name all of the ways you could use this object. Keep in mind that one object can have many uses. Separate your responses with a comma.",NA,"y",7053,NA,NA,2375,5770,NA,NA,NA,"Tricks, entertainment ",1
"J00567780OT","hcz816wkiy","Affordance Norms_South Alabama",1,38,"2023-04-03T00:23:17+00:00",5.7881329059601,33,"updated stim.csv","Version33.csv","Version 33","List 33","termite",NA,970,4.32,2666,971,"BOI","-","-","Please name all of the ways you could use this object. Keep in mind that one object can have many uses. Separate your responses with a comma.",NA,"y",5332,NA,NA,3159,3710,NA,NA,NA,"Wood",1
"J00567780OT","hcz816wkiy","Affordance Norms_South Alabama",1,39,"2023-04-03T00:23:37+00:00",20.209285974503,33,"updated stim.csv","Version33.csv","Version 33","List 33","hairpiece",NA,985,5.956521739,1215,986,"BOI","-","-","Please name all of the ways you could use this object. Keep in mind that one object can have many uses. Separate your responses with a comma.",NA,"y",19764,NA,NA,9285,18832,NA,NA,NA,"Do hair, style hair ",1
"J00567780OT","hcz816wkiy","Affordance Norms_South Alabama",1,40,"2023-04-03T00:23:48+00:00",11.360699176788,33,"updated stim.csv","Version33.csv","Version 33","List 33","sage",NA,984,4.375,2215,985,"BOI","-","-","Please name all of the ways you could use this object. Keep in mind that one object can have many uses. Separate your responses with a comma.",NA,"y",10863,NA,NA,2141,10379,NA,NA,NA,"Cooking, relaxing, healing ",1
"J00645252_HD","2eya081qt5","Affordance Norms_South Alabama",1,11,"2023-03-31T05:50:48+00:00",31.047138929367,23,"updated stim.csv","Version23.csv","Version 23","List 23","podiatrist",NA,662,4.791666667,2016,663,"BOI","-","-","Please name all of the ways you could use this object. Keep in mind that one object can have many uses. Separate your responses with a comma.",NA,"y",30789,NA,NA,15779,29664,NA,NA,NA,"treating, diagnose",0.656
"J00645252_HD","2eya081qt5","Affordance Norms_South Alabama",1,12,"2023-03-31T05:51:24+00:00",36.362493991852,23,"updated stim.csv","Version23.csv","Version 23","List 23","breadbasket",NA,680,5.222222222,309,681,"BOI","-","-","Please name all of the ways you could use this object. Keep in mind that one object can have many uses. Separate your responses with a comma.",NA,"y",36078,NA,NA,2057,34911,NA,NA,NA,"contain, storing, keeping",0.436
"J00645252_HD","2eya081qt5","Affordance Norms_South Alabama",1,13,"2023-03-31T05:52:06+00:00",42.25128698349,23,"updated stim.csv","Version23.csv","Version 23","List 23","diaper",NA,678,5.64,787,679,"BOI","-","-","Please name all of the ways you could use this object. Keep in mind that one object can have many uses. Separate your responses with a comma.",NA,"y",41974,NA,NA,14443,41178,NA,NA,NA,"absorb moisture, keep stuffs dry",0.586
"J00645252_HD","2eya081qt5","Affordance Norms_South Alabama",1,14,"2023-03-31T05:52:51+00:00",44.972914934158,23,"updated stim.csv","Version23.csv","Version 23","List 23","suture",NA,686,4.652173913,2600,687,"BOI","-","-","Please name all of the ways you could use this object. Keep in mind that one object can have many uses. Separate your responses with a comma.",NA,"y",44692,NA,NA,28795,42766,NA,NA,NA,"stitching wound, close incisions",0.438
"J00645252_HD","2eya081qt5","Affordance Norms_South Alabama",1,15,"2023-03-31T05:53:42+00:00",51.082240104675,23,"updated stim.csv","Version23.csv","Version 23","List 23","lasso",NA,663,5.555555556,1468,664,"BOI","-","-","Please name all of the ways you could use this object. Keep in mind that one object can have many uses. Separate your responses with a comma.",NA,"y",50800,NA,NA,17121,22299,NA,NA,NA,"catching cattle",0.331
"J00645252_HD","2eya081qt5","Affordance Norms_South Alabama",1,16,"2023-03-31T05:54:31+00:00",48.734929084778,23,"updated stim.csv","Version23.csv","Version 23","List 23","shaker",NA,673,4.36,2318,674,"BOI","-","-","Please name all of the ways you could use this object. Keep in mind that one object can have many uses. Separate your responses with a comma.",NA,"y",48461,NA,NA,5973,47123,NA,NA,NA,"shaking, mixing, blending ",0.49
"J00645252_HD","2eya081qt5","Affordance Norms_South Alabama",1,17,"2023-03-31T05:54:51+00:00",20.45515203476,23,"updated stim.csv","Version23.csv","Version 23","List 23","pill",NA,666,6.36,1960,667,"BOI","-","-","Please name all of the ways you could use this object. Keep in mind that one object can have many uses. Separate your responses with a comma.",NA,"y",20181,NA,NA,4929,14692,NA,NA,NA,"drink, curing illness",1
"J00645252_HD","2eya081qt5","Affordance Norms_South Alabama",1,18,"2023-03-31T05:56:06+00:00",74.73491191864,23,"updated stim.csv","Version23.csv","Version 23","List 23","ice",NA,685,5.458333333,1344,686,"BOI","-","-","Please name all of the ways you could use this object. Keep in mind that one object can have many uses. Separate your responses with a comma.",NA,"y",74445,NA,NA,4008,73781,NA,NA,NA,"keep things cold, cooling",0.378
"J00645252_HD","2eya081qt5","Affordance Norms_South Alabama",1,19,"2023-03-31T05:56:31+00:00",25.120269060135,23,"updated stim.csv","Version23.csv","Version 23","List 23","slide",NA,675,5.130434783,2411,676,"BOI","-","-","Please name all of the ways you could use this object. Keep in mind that one object can have many uses. Separate your responses with a comma.",NA,"y",24841,NA,NA,15233,23687,NA,NA,NA,"present information, contain information",0.592
"J00645252_HD","2eya081qt5","Affordance Norms_South Alabama",1,20,"2023-03-31T05:57:29+00:00",57.902956962585,23,"updated stim.csv","Version23.csv","Version 23","List 23","honeydew",NA,667,5.444444444,1304,668,"BOI","-","-","Please name all of the ways you could use this object. Keep in mind that one object can have many uses. Separate your responses with a comma.",NA,"y",57629,NA,NA,5551,56678,NA,NA,NA,"drink, eat, making sauce",0.754
"J00645252_HD","2eya081qt5","Affordance Norms_South Alabama",1,21,"2023-03-31T05:58:18+00:00",48.97806096077,23,"updated stim.csv","Version23.csv","Version 23","List 23","pantaloons",NA,690,4.695652174,1858,691,"BOI","-","-","Please name all of the ways you could use this object. Keep in mind that one object can have many uses. Separate your responses with a comma.",NA,"y",48707,NA,NA,39172,40945,NA,NA,NA,"wearing",0.27
"J00645252_HD","2eya081qt5","Affordance Norms_South Alabama",1,22,"2023-03-31T05:59:12+00:00",53.793135881424,23,"updated stim.csv","Version23.csv","Version 23","List 23","woodcraft",NA,664,4.296296296,2959,665,"BOI","-","-","Please name all of the ways you could use this object. Keep in mind that one object can have many uses. Separate your responses with a comma.",NA,"y",53508,NA,NA,2545,52876,NA,NA,NA,"create wood material, create furniture",0.627
"J00645252_HD","2eya081qt5","Affordance Norms_South Alabama",1,23,"2023-03-31T06:01:46+00:00",153.55188107491,23,"updated stim.csv","Version23.csv","Version 23","List 23","child",NA,661,5.695652174,520,662,"BOI","-","-","Please name all of the ways you could use this object. Keep in mind that one object can have many uses. Separate your responses with a comma.",NA,"y",153210,NA,NA,77767,109272,NA,NA,NA,"caring, raising",0.417
"J00645252_HD","2eya081qt5","Affordance Norms_South Alabama",1,24,"2023-03-31T06:05:09+00:00",203.04957413673,23,"updated stim.csv","Version23.csv","Version 23","List 23","box",NA,668,6.291666667,294,669,"BOI","-","-","Please name all of the ways you could use this object. Keep in mind that one object can have many uses. Separate your responses with a comma.",NA,"y",202781,NA,NA,62864,200759,NA,NA,NA,"contain stuffs, organizing, storage, move around",0.3
"J00645252_HD","2eya081qt5","Affordance Norms_South Alabama",1,25,"2023-03-31T06:05:53+00:00",44.334647893906,23,"updated stim.csv","Version23.csv","Version 23","List 23","bifocals",NA,672,5.875,212,673,"BOI","-","-","Please name all of the ways you could use this object. Keep in mind that one object can have many uses. Separate your responses with a comma.",NA,"y",44060,NA,NA,14980,42772,NA,NA,NA,"reading words from far away, eye focus ",0.638
"J00645252_HD","2eya081qt5","Affordance Norms_South Alabama",1,26,"2023-03-31T06:06:48+00:00",54.871869087219,23,"updated stim.csv","Version23.csv","Version 23","List 23","flowerbed",NA,670,5.041666667,1016,671,"BOI","-","-","Please name all of the ways you could use this object. Keep in mind that one object can have many uses. Separate your responses with a comma.",NA,"y",54584,NA,NA,11417,51849,NA,NA,NA,"contain seeds, planting flower",0.491
"J00645252_HD","2eya081qt5","Affordance Norms_South Alabama",1,27,"2023-03-31T06:07:54+00:00",66.418411970139,23,"updated stim.csv","Version23.csv","Version 23","List 23","stapler",NA,682,6.458333333,2508,683,"BOI","-","-","Please name all of the ways you could use this object. Keep in mind that one object can have many uses. Separate your responses with a comma.",NA,"y",66129,NA,NA,5015,64505,NA,NA,NA,"joining paper together, keep paper from falling of the floor",0.816
"J00645252_HD","2eya081qt5","Affordance Norms_South Alabama",1,28,"2023-03-31T06:08:42+00:00",48.177290916443,23,"updated stim.csv","Version23.csv","Version 23","List 23","prize",NA,687,4.916666667,2069,688,"BOI","-","-","Please name all of the ways you could use this object. Keep in mind that one object can have many uses. Separate your responses with a comma.",NA,"y",47899,NA,NA,13655,47144,NA,NA,NA,"display, showing off, put on portfolio",0.55
"J00645252_HD","2eya081qt5","Affordance Norms_South Alabama",1,29,"2023-03-31T06:09:23+00:00",40.414159059525,23,"updated stim.csv","Version23.csv","Version 23","List 23","lodge",NA,677,4.833333333,1539,678,"BOI","-","-","Please name all of the ways you could use this object. Keep in mind that one object can have many uses. Separate your responses with a comma.",NA,"y",40113,NA,NA,32628,39110,NA,NA,NA,"dwelling, renting, containing",0.318
"J00645252_HD","2eya081qt5","Affordance Norms_South Alabama",1,30,"2023-03-31T06:10:14+00:00",51.336125850677,23,"updated stim.csv","Version23.csv","Version 23","List 23","earplug",NA,689,6.111111111,879,690,"BOI","-","-","Please name all of the ways you could use this object. Keep in mind that one object can have many uses. Separate your responses with a comma.",NA,"y",50998,NA,NA,3921,46249,NA,NA,NA,"block sound, protecting ear",0.38
"J00645252_HD","2eya081qt5","Affordance Norms_South Alabama",1,31,"2023-03-31T06:10:49+00:00",34.452633142471,23,"updated stim.csv","Version23.csv","Version 23","List 23","Shirt",NA,676,6.473045822,2346,677,"BOI","-","-","Please name all of the ways you could use this object. Keep in mind that one object can have many uses. Separate your responses with a comma.",NA,"y",34185,NA,NA,2659,23113,NA,NA,NA,"keep warm, wearing",1
"J00645252_HD","2eya081qt5","Affordance Norms_South Alabama",1,32,"2023-03-31T06:11:33+00:00",44.36155796051,23,"updated stim.csv","Version23.csv","Version 23","List 23","auditorium",NA,683,4.392857143,97,684,"BOI","-","-","Please name all of the ways you could use this object. Keep in mind that one object can have many uses. Separate your responses with a comma.",NA,"y",44067,NA,NA,15975,42205,NA,NA,NA,"perform play, watching, listening",0.534
"J00645252_HD","2eya081qt5","Affordance Norms_South Alabama",1,33,"2023-03-31T06:12:28+00:00",54.864983081818,23,"updated stim.csv","Version23.csv","Version 23","List 23","turtleneck",NA,681,5.375,2806,682,"BOI","-","-","Please name all of the ways you could use this object. Keep in mind that one object can have many uses. Separate your responses with a comma.",NA,"y",54561,NA,NA,5667,53721,NA,NA,NA,"wearing, protect neck area, keep warm",0.604
"J00645252_HD","2eya081qt5","Affordance Norms_South Alabama",1,34,"2023-03-31T06:13:06+00:00",37.679215908051,23,"updated stim.csv","Version23.csv","Version 23","List 23","bucket",NA,669,6,341,670,"BOI","-","-","Please name all of the ways you could use this object. Keep in mind that one object can have many uses. Separate your responses with a comma.",NA,"y",37389,NA,NA,3248,34982,NA,NA,NA,"contain stuffs, pour water",0.615
"J00645252_HD","2eya081qt5","Affordance Norms_South Alabama",1,35,"2023-03-31T06:15:06+00:00",120.35475897789,23,"updated stim.csv","Version23.csv","Version 23","List 23","crown",NA,679,6.173913043,711,680,"BOI","-","-","Please name all of the ways you could use this object. Keep in mind that one object can have many uses. Separate your responses with a comma.",NA,"y",120077,NA,NA,2384,119050,NA,NA,NA,"show power, wearing on the head, assert authority",0.607
"J00645252_HD","2eya081qt5","Affordance Norms_South Alabama",1,36,"2023-03-31T06:16:27+00:00",80.847281932831,23,"updated stim.csv","Version23.csv","Version 23","List 23","journal",NA,674,6,1390,675,"BOI","-","-","Please name all of the ways you could use this object. Keep in mind that one object can have many uses. Separate your responses with a comma.",NA,"y",80551,NA,NA,4329,21864,NA,NA,NA,"contain information, write, record",0.31
"J00645252_HD","2eya081qt5","Affordance Norms_South Alabama",1,37,"2023-03-31T06:23:03+00:00",396.42425203323,23,"updated stim.csv","Version23.csv","Version 23","List 23","heroin",NA,665,4.423076923,1282,666,"BOI","-","-","Please name all of the ways you could use this object. Keep in mind that one object can have many uses. Separate your responses with a comma.",NA,"y",396055,NA,NA,136601,369786,NA,NA,NA,"create pain reliever in other countries",0.286
"J00645252_HD","2eya081qt5","Affordance Norms_South Alabama",1,38,"2023-03-31T06:23:49+00:00",45.788500070572,23,"updated stim.csv","Version23.csv","Version 23","List 23","brick",NA,671,5.64,317,672,"BOI","-","-","Please name all of the ways you could use this object. Keep in mind that one object can have many uses. Separate your responses with a comma.",NA,"y",45488,NA,NA,2560,44181,NA,NA,NA,"building house, building pavement, absorb noise",0.785
"J00645252_HD","2eya081qt5","Affordance Norms_South Alabama",1,39,"2023-03-31T06:24:45+00:00",55.616902112961,23,"updated stim.csv","Version23.csv","Version 23","List 23","actress",NA,684,4.92,11,685,"BOI","-","-","Please name all of the ways you could use this object. Keep in mind that one object can have many uses. Separate your responses with a comma.",NA,"y",55278,NA,NA,17115,54354,NA,NA,NA,"bring character to life, role-playing, portray character",0.523
"J00645252_HD","2eya081qt5","Affordance Norms_South Alabama",1,40,"2023-03-31T06:25:30+00:00",45.5189909935,23,"updated stim.csv","Version23.csv","Version 23","List 23","shovel",NA,688,5.925925926,2363,689,"BOI","-","-","Please name all of the ways you could use this object. Keep in mind that one object can have many uses. Separate your responses with a comma.",NA,"y",45236,NA,NA,4516,44156,NA,NA,NA,"digging hole, move granular material, slicing",0.828
"J00651755_eel","p9pa79eu6r","Affordance Norms_South Alabama",1,11,"2023-03-29T16:38:46+00:00",31.161036968231,15,"updated stim.csv","Version15.csv","Version 15","List 15","corridor",NA,441,4.5,651,442,"BOI","-","-","Please name all of the ways you could use this object. Keep in mind that one object can have many uses. Separate your responses with a comma.",NA,"y",30782,NA,NA,7999,29453,NA,NA,NA,"walking, running, hanging, stand, storage, gathering",1
"J00651755_eel","p9pa79eu6r","Affordance Norms_South Alabama",1,12,"2023-03-29T16:39:40+00:00",53.684075117111,15,"updated stim.csv","Version15.csv","Version 15","List 15","apartment",NA,431,4.6,55,432,"BOI","-","-","Please name all of the ways you could use this object. Keep in mind that one object can have many uses. Separate your responses with a comma.",NA,"y",53288,NA,NA,3465,51174,NA,NA,NA,"living, parties, storage, sleeping, watch movies, laundry, play dates, hosting",1
"J00651755_eel","p9pa79eu6r","Affordance Norms_South Alabama",1,13,"2023-03-29T16:40:06+00:00",25.880244016647,15,"updated stim.csv","Version15.csv","Version 15","List 15","refrigerator",NA,435,5.851851852,2152,436,"BOI","-","-","Please name all of the ways you could use this object. Keep in mind that one object can have many uses. Separate your responses with a comma.",NA,"y",25500,NA,NA,2012,21965,NA,NA,NA,"Food storage, drink storage, cool down, save,",1
"J00651755_eel","p9pa79eu6r","Affordance Norms_South Alabama",1,14,"2023-03-29T16:40:55+00:00",49.480395078659,15,"updated stim.csv","Version15.csv","Version 15","List 15","essay",NA,439,4.333333333,922,440,"BOI","-","-","Please name all of the ways you could use this object. Keep in mind that one object can have many uses. Separate your responses with a comma.",NA,"y",49104,NA,NA,3763,45913,NA,NA,NA,"college, interview, jobs, personality test, literacy test, book report, work report",1
"J00651755_eel","p9pa79eu6r","Affordance Norms_South Alabama",1,15,"2023-03-29T16:41:19+00:00",23.31089091301,15,"updated stim.csv","Version15.csv","Version 15","List 15","thermometer",NA,429,5.56,2676,430,"BOI","-","-","Please name all of the ways you could use this object. Keep in mind that one object can have many uses. Separate your responses with a comma.",NA,"y",22912,NA,NA,7130,21321,NA,NA,NA,"temperature adjustment, cooling, heating ",1
