"Username","ID","ExperimentName","Session","Trial","Date","TimeDif","Condition.Number","Stimuli.File","Order.File","Condition.Description","Condition.Notes","Stimuli.Cue","Stimuli.Answer","Stimuli.Shuffle","Stimuli.Stimuli.Notes","Stimuli.Value","Procedure.Item","Procedure.Trial.Type","Procedure.Max.Time","Procedure.Min.Time","Procedure.Text","Procedure.Procedure.Notes","Procedure.Shuffle","Response.RT","Response.Response","Response.Accuracy","Response.RTfirst","Response.RTlast","Response.strictAcc","Response.lenientAcc","Response.focus","Response.JOL","Response.Focus"
"cas2024CS","8q6cnugm5q","Affordance Norms_South Alabama",1,11,"2022-11-04T21:36:05+00:00",30.705519914627,33,"updated stim.csv","Version33.csv","Version 33","List 33","reindeer",NA,976,4.5,2153,977,"BOI","-","-","Please name all of the ways you could use this object. Keep in mind that one object can have many uses. Separate your responses with a comma.",NA,"y",30359,NA,NA,5075,28923,NA,NA,NA,"flying, delivering, riding, carrying, transporting",1
"cas2024CS","8q6cnugm5q","Affordance Norms_South Alabama",1,12,"2022-11-04T21:36:56+00:00",50.423829078674,33,"updated stim.csv","Version33.csv","Version 33","List 33","appraiser",NA,980,4.428571429,64,981,"BOI","-","-","Please name all of the ways you could use this object. Keep in mind that one object can have many uses. Separate your responses with a comma.",NA,"y",50038,NA,NA,21183,48854,NA,NA,NA,"inspecting, appraising, determining ",1
"cas2024CS","8q6cnugm5q","Affordance Norms_South Alabama",1,13,"2022-11-04T21:37:53+00:00",57.625097036362,33,"updated stim.csv","Version33.csv","Version 33","List 33","bedroom",NA,989,5.708333333,187,990,"BOI","-","-","Please name all of the ways you could use this object. Keep in mind that one object can have many uses. Separate your responses with a comma.",NA,"y",57358,NA,NA,1737,54990,NA,NA,NA,"laying, playing, relaxing, working, cleaning, escaping, sleeping, reading, watching TV",1
"cas2024CS","8q6cnugm5q","Affordance Norms_South Alabama",1,14,"2022-11-04T21:38:25+00:00",31.798383951187,33,"updated stim.csv","Version33.csv","Version 33","List 33","film",NA,962,4.32,976,963,"BOI","-","-","Please name all of the ways you could use this object. Keep in mind that one object can have many uses. Separate your responses with a comma.",NA,"y",31513,NA,NA,1145,29382,NA,NA,NA,"watching, observing, appreciating, studying, examining",1
"cas2024CS","8q6cnugm5q","Affordance Norms_South Alabama",1,15,"2022-11-04T21:38:55+00:00",29.59127497673,33,"updated stim.csv","Version33.csv","Version 33","List 33","buoy",NA,990,5.125,364,991,"BOI","-","-","Please name all of the ways you could use this object. Keep in mind that one object can have many uses. Separate your responses with a comma.",NA,"y",29317,NA,NA,19356,28091,NA,NA,NA,"floating, boating, marking, swimming",1
"cas2024CS","8q6cnugm5q","Affordance Norms_South Alabama",1,16,"2022-11-04T21:39:14+00:00",19.573199987411,33,"updated stim.csv","Version33.csv","Version 33","List 33","washcloth",NA,961,6.192307692,2898,962,"BOI","-","-","Please name all of the ways you could use this object. Keep in mind that one object can have many uses. Separate your responses with a comma.",NA,"y",19358,NA,NA,1185,17546,NA,NA,NA,"washing, cleaning, drying, dusting, rinsing",1
"cas2024CS","8q6cnugm5q","Affordance Norms_South Alabama",1,17,"2022-11-04T21:40:18+00:00",63.778757095337,33,"updated stim.csv","Version33.csv","Version 33","List 33","sage",NA,984,4.375,2215,985,"BOI","-","-","Please name all of the ways you could use this object. Keep in mind that one object can have many uses. Separate your responses with a comma.",NA,"y",63508,NA,NA,2395,61784,NA,NA,NA,"cleansing, cleaning, drinking, seasoning, healing",1
"cas2024CS","8q6cnugm5q","Affordance Norms_South Alabama",1,18,"2022-11-04T21:40:58+00:00",39.953971862793,33,"updated stim.csv","Version33.csv","Version 33","List 33","bonbon",NA,974,4.807692308,265,975,"BOI","-","-","Please name all of the ways you could use this object. Keep in mind that one object can have many uses. Separate your responses with a comma.",NA,"y",39690,NA,NA,1943,34937,NA,NA,NA,"eating, melting, enjoying",1
"cas2024CS","8q6cnugm5q","Affordance Norms_South Alabama",1,19,"2022-11-04T21:41:35+00:00",37.543365955353,33,"updated stim.csv","Version33.csv","Version 33","List 33","baseball",NA,975,6.037037037,157,976,"BOI","-","-","Please name all of the ways you could use this object. Keep in mind that one object can have many uses. Separate your responses with a comma.",NA,"y",37282,NA,NA,1235,35940,NA,NA,NA,"throwing, bouncing, batting, catching, pitching, hitting, grabbing",1
"cas2024CS","8q6cnugm5q","Affordance Norms_South Alabama",1,20,"2022-11-04T21:42:08+00:00",32.273764133453,33,"updated stim.csv","Version33.csv","Version 33","List 33","drawing",NA,966,4.695652174,841,967,"BOI","-","-","Please name all of the ways you could use this object. Keep in mind that one object can have many uses. Separate your responses with a comma.",NA,"y",32002,NA,NA,4624,30514,NA,NA,NA,"decorating, calming, fun, relaxing, comforting",1
"cas2024CS","8q6cnugm5q","Affordance Norms_South Alabama",1,21,"2022-11-04T21:42:33+00:00",25.498600959778,33,"updated stim.csv","Version33.csv","Version 33","List 33","cadet",NA,986,4.291666667,394,987,"BOI","-","-","Please name all of the ways you could use this object. Keep in mind that one object can have many uses. Separate your responses with a comma.",NA,"y",25205,NA,NA,17757,23179,NA,NA,NA,"learning, teaching",1
"cas2024CS","8q6cnugm5q","Affordance Norms_South Alabama",1,22,"2022-11-04T21:43:15+00:00",41.737548112869,33,"updated stim.csv","Version33.csv","Version 33","List 33","straw",NA,979,6,2560,980,"BOI","-","-","Please name all of the ways you could use this object. Keep in mind that one object can have many uses. Separate your responses with a comma.",NA,"y",41447,NA,NA,1345,40033,NA,NA,NA,"sucking, blowing, cutting up, playing, drinking, decorating",1
"cas2024CS","8q6cnugm5q","Affordance Norms_South Alabama",1,23,"2022-11-04T21:43:43+00:00",28.375389814377,33,"updated stim.csv","Version33.csv","Version 33","List 33","mango",NA,967,6.24,1588,968,"BOI","-","-","Please name all of the ways you could use this object. Keep in mind that one object can have many uses. Separate your responses with a comma.",NA,"y",28107,NA,NA,1371,26928,NA,NA,NA,"eating, cooking, baking, juicing, drinking, freezing, refrigerating ",1
"cas2024CS","8q6cnugm5q","Affordance Norms_South Alabama",1,24,"2022-11-04T21:44:38+00:00",54.414281129837,33,"updated stim.csv","Version33.csv","Version 33","List 33","senorita",NA,988,4.391304348,2311,989,"BOI","-","-","Please name all of the ways you could use this object. Keep in mind that one object can have many uses. Separate your responses with a comma.",NA,"y",53896,NA,NA,29675,52374,NA,NA,NA,"learning ",1
"cas2024CS","8q6cnugm5q","Affordance Norms_South Alabama",1,25,"2022-11-04T21:45:08+00:00",30.646426916122,33,"updated stim.csv","Version33.csv","Version 33","List 33","luggage",NA,971,5.304347826,1556,972,"BOI","-","-","Please name all of the ways you could use this object. Keep in mind that one object can have many uses. Separate your responses with a comma.",NA,"y",30295,NA,NA,1879,28849,NA,NA,NA,"packing, carrying, storing, organizing, travelling, exploring, holding, rolling",1
"cas2024CS","8q6cnugm5q","Affordance Norms_South Alabama",1,26,"2022-11-04T21:48:28+00:00",199.93897199631,33,"updated stim.csv","Version33.csv","Version 33","List 33","hairpiece",NA,985,5.956521739,1215,986,"BOI","-","-","Please name all of the ways you could use this object. Keep in mind that one object can have many uses. Separate your responses with a comma.",NA,"y",199664,NA,NA,1401,34277,NA,NA,NA,"decorating, accessorizing",1
"cas2024CS","8q6cnugm5q","Affordance Norms_South Alabama",1,27,"2022-11-04T21:48:50+00:00",21.604490995407,33,"updated stim.csv","Version33.csv","Version 33","List 33","mannequin",NA,982,4.48,1592,983,"BOI","-","-","Please name all of the ways you could use this object. Keep in mind that one object can have many uses. Separate your responses with a comma.",NA,"y",21331,NA,NA,1497,19919,NA,NA,NA,"decorating, arranging, dressing, marketing, selling",1
"cas2024CS","8q6cnugm5q","Affordance Norms_South Alabama",1,28,"2022-11-04T21:49:17+00:00",27.36773109436,33,"updated stim.csv","Version33.csv","Version 33","List 33","fabric",NA,964,6.08,939,965,"BOI","-","-","Please name all of the ways you could use this object. Keep in mind that one object can have many uses. Separate your responses with a comma.",NA,"y",27109,NA,NA,2121,24474,NA,NA,NA,"weaving, tailoring, sewing, making, decorating",1
"cas2024CS","8q6cnugm5q","Affordance Norms_South Alabama",1,29,"2022-11-04T21:49:25+00:00",7.6369168758392,33,"updated stim.csv","Version33.csv","Version 33","List 33","termite",NA,970,4.32,2666,971,"BOI","-","-","Please name all of the ways you could use this object. Keep in mind that one object can have many uses. Separate your responses with a comma.",NA,"y",7470,NA,NA,2826,6226,NA,NA,NA,"exterminating",1
"cas2024CS","8q6cnugm5q","Affordance Norms_South Alabama",1,30,"2022-11-04T21:49:44+00:00",19.308053016663,33,"updated stim.csv","Version33.csv","Version 33","List 33","dime",NA,978,6.083333333,793,979,"BOI","-","-","Please name all of the ways you could use this object. Keep in mind that one object can have many uses. Separate your responses with a comma.",NA,"y",19125,NA,NA,1605,17491,NA,NA,NA,"spending, collecting, saving, rolling, investing",1
"cas2024CS","8q6cnugm5q","Affordance Norms_South Alabama",1,31,"2022-11-04T21:50:03+00:00",18.542922019958,33,"updated stim.csv","Version33.csv","Version 33","List 33","pajama",NA,963,5.962962963,1850,964,"BOI","-","-","Please name all of the ways you could use this object. Keep in mind that one object can have many uses. Separate your responses with a comma.",NA,"y",18378,NA,NA,1251,15990,NA,NA,NA,"sleeping, relaxing, lounging, laying down",1
"cas2024CS","8q6cnugm5q","Affordance Norms_South Alabama",1,32,"2022-11-04T21:50:42+00:00",39.377398014069,33,"updated stim.csv","Version33.csv","Version 33","List 33","handshake",NA,981,5.636363636,1243,982,"BOI","-","-","Please name all of the ways you could use this object. Keep in mind that one object can have many uses. Separate your responses with a comma.",NA,"y",39092,NA,NA,2336,33167,NA,NA,NA,"making, friendship, fun, meeting, acquainting",1
"cas2024CS","8q6cnugm5q","Affordance Norms_South Alabama",1,33,"2022-11-04T21:50:54+00:00",11.63628411293,33,"updated stim.csv","Version33.csv","Version 33","List 33","bobsleigh",NA,972,5.64,258,973,"BOI","-","-","Please name all of the ways you could use this object. Keep in mind that one object can have many uses. Separate your responses with a comma.",NA,"y",11409,NA,NA,1676,9472,NA,NA,NA,"sleighing, sledding, riding",1
"cas2024CS","8q6cnugm5q","Affordance Norms_South Alabama",1,34,"2022-11-04T21:51:35+00:00",41.477524995804,33,"updated stim.csv","Version33.csv","Version 33","List 33","cowskin",NA,983,4.652173913,673,984,"BOI","-","-","Please name all of the ways you could use this object. Keep in mind that one object can have many uses. Separate your responses with a comma.",NA,"y",41196,NA,NA,31834,40021,NA,NA,NA,"decorating, processing, designing",1
"cas2024CS","8q6cnugm5q","Affordance Norms_South Alabama",1,35,"2022-11-04T21:51:49+00:00",13.448799848557,33,"updated stim.csv","Version33.csv","Version 33","List 33","hose",NA,969,5.565217391,1318,970,"BOI","-","-","Please name all of the ways you could use this object. Keep in mind that one object can have many uses. Separate your responses with a comma.",NA,"y",13285,NA,NA,1709,11844,NA,NA,NA,"watering, fun, sprinkler, washing, cleaning ",1
"cas2024CS","8q6cnugm5q","Affordance Norms_South Alabama",1,36,"2022-11-04T21:52:07+00:00",18.156022071838,33,"updated stim.csv","Version33.csv","Version 33","List 33","sculpture",NA,977,5.782608696,2292,978,"BOI","-","-","Please name all of the ways you could use this object. Keep in mind that one object can have many uses. Separate your responses with a comma.",NA,"y",17994,NA,NA,1529,16570,NA,NA,NA,"looking, admiring, art, expressing, examining, studying",1
"cas2024CS","8q6cnugm5q","Affordance Norms_South Alabama",1,37,"2022-11-04T21:52:14+00:00",7.1045360565186,33,"updated stim.csv","Version33.csv","Version 33","List 33","outlet",NA,987,4.541666667,1830,988,"BOI","-","-","Please name all of the ways you could use this object. Keep in mind that one object can have many uses. Separate your responses with a comma.",NA,"y",6944,NA,NA,1421,5756,NA,NA,NA,"charging, plugging",1
"cas2024CS","8q6cnugm5q","Affordance Norms_South Alabama",1,38,"2022-11-04T21:52:42+00:00",27.672873020172,33,"updated stim.csv","Version33.csv","Version 33","List 33","gazebo",NA,968,5.25,1090,969,"BOI","-","-","Please name all of the ways you could use this object. Keep in mind that one object can have many uses. Separate your responses with a comma.",NA,"y",27407,NA,NA,17384,26448,NA,NA,NA,"relaxing, building, cooling down",1
"cas2024CS","8q6cnugm5q","Affordance Norms_South Alabama",1,39,"2022-11-04T21:53:05+00:00",23.122164011002,33,"updated stim.csv","Version33.csv","Version 33","List 33","balloon",NA,965,5.523809524,130,966,"BOI","-","-","Please name all of the ways you could use this object. Keep in mind that one object can have many uses. Separate your responses with a comma.",NA,"y",22810,NA,NA,1948,21196,NA,NA,NA,"popping, inflating, sucking, blowing, decorating, surprise, fun, playing",1
"cas2024CS","8q6cnugm5q","Affordance Norms_South Alabama",1,40,"2022-11-04T21:53:30+00:00",25.526293992996,33,"updated stim.csv","Version33.csv","Version 33","List 33","magician",NA,973,4.5,1571,974,"BOI","-","-","Please name all of the ways you could use this object. Keep in mind that one object can have many uses. Separate your responses with a comma.",NA,"y",25243,NA,NA,4453,24382,NA,NA,NA,"watching, learning, wondering, fun, birthday, magic",1
"J00641914PS","wnkyangy23","Affordance Norms_South Alabama",1,11,"2022-11-12T02:43:45+00:00",22.802682161331,61,"updated stim.csv","Version61.csv","Version 61","List 61","trailer",NA,1801,5.296296296,2755,1802,"BOI","-","-","Please name all of the ways you could use this object. Keep in mind that one object can have many uses. Separate your responses with a comma.",NA,"y",22500,NA,NA,4884,21185,NA,NA,NA,"move things, carry things, a movie ",1
"J00641914PS","wnkyangy23","Affordance Norms_South Alabama",1,12,"2022-11-12T02:43:55+00:00",10.161958932877,61,"updated stim.csv","Version61.csv","Version 61","List 61","cymbals",NA,1810,5.695652174,742,1811,"BOI","-","-","Please name all of the ways you could use this object. Keep in mind that one object can have many uses. Separate your responses with a comma.",NA,"y",9981,NA,NA,6698,8285,NA,NA,NA,"make music",1
"J00641914PS","wnkyangy23","Affordance Norms_South Alabama",1,13,"2022-11-12T02:44:14+00:00",18.885984897614,61,"updated stim.csv","Version61.csv","Version 61","List 61","fingertip",NA,1830,5.928571429,981,1831,"BOI","-","-","Please name all of the ways you could use this object. Keep in mind that one object can have many uses. Separate your responses with a comma.",NA,"y",18701,NA,NA,5732,12888,NA,NA,NA,"poking, pointing",1
"J00641914PS","wnkyangy23","Affordance Norms_South Alabama",1,14,"2022-11-12T02:45:04+00:00",50.215692996979,61,"updated stim.csv","Version61.csv","Version 61","List 61","nettle",NA,1827,4.529411765,1752,1828,"BOI","-","-","Please name all of the ways you could use this object. Keep in mind that one object can have many uses. Separate your responses with a comma.",NA,"y",49917,NA,NA,46867,49100,NA,NA,NA,"treatment",1
"J00641914PS","wnkyangy23","Affordance Norms_South Alabama",1,15,"2022-11-12T02:45:49+00:00",45.155780076981,61,"updated stim.csv","Version61.csv","Version 61","List 61","chalet",NA,1808,4.416666667,489,1809,"BOI","-","-","Please name all of the ways you could use this object. Keep in mind that one object can have many uses. Separate your responses with a comma.",NA,"y",44829,NA,NA,42686,43882,NA,NA,NA,"stay in",1
"J00641914PS","wnkyangy23","Affordance Norms_South Alabama",1,16,"2022-11-12T02:45:58+00:00",8.3774209022522,61,"updated stim.csv","Version61.csv","Version 61","List 61","mouthpiece",NA,1821,5.304347826,1706,1822,"BOI","-","-","Please name all of the ways you could use this object. Keep in mind that one object can have many uses. Separate your responses with a comma.",NA,"y",8193,NA,NA,2218,3571,NA,NA,NA,"protect",1
"J00641914PS","wnkyangy23","Affordance Norms_South Alabama",1,17,"2022-11-12T02:46:09+00:00",11.282495975494,61,"updated stim.csv","Version61.csv","Version 61","List 61","piglet",NA,1804,4.68,1956,1805,"BOI","-","-","Please name all of the ways you could use this object. Keep in mind that one object can have many uses. Separate your responses with a comma.",NA,"y",10819,NA,NA,3953,9913,NA,NA,NA,"nurture, feed, care for",1
"J00641914PS","wnkyangy23","Affordance Norms_South Alabama",1,18,"2022-11-12T02:46:18+00:00",8.664183139801,61,"updated stim.csv","Version61.csv","Version 61","List 61","bookshelf",NA,1818,5.727272727,279,1819,"BOI","-","-","Please name all of the ways you could use this object. Keep in mind that one object can have many uses. Separate your responses with a comma.",NA,"y",8237,NA,NA,3343,5491,NA,NA,NA,"store books",1
"J00641914PS","wnkyangy23","Affordance Norms_South Alabama",1,19,"2022-11-12T02:46:33+00:00",14.978852033615,61,"updated stim.csv","Version61.csv","Version 61","List 61","bra",NA,1816,6.52173913,298,1817,"BOI","-","-","Please name all of the ways you could use this object. Keep in mind that one object can have many uses. Separate your responses with a comma.",NA,"y",14790,NA,NA,7402,8343,NA,NA,NA,"secure",1
"J00641914PS","wnkyangy23","Affordance Norms_South Alabama",1,20,"2022-11-12T02:46:41+00:00",8.6188678741455,61,"updated stim.csv","Version61.csv","Version 61","List 61","banana",NA,1823,6.107142857,136,1824,"BOI","-","-","Please name all of the ways you could use this object. Keep in mind that one object can have many uses. Separate your responses with a comma.",NA,"y",8436,NA,NA,1666,7589,NA,NA,NA,"eat, provide nutrients",1
"J00641914PS","wnkyangy23","Affordance Norms_South Alabama",1,21,"2022-11-12T02:46:47+00:00",5.8860440254211,61,"updated stim.csv","Version61.csv","Version 61","List 61","tearoom",NA,1822,4.458333333,2652,1823,"BOI","-","-","Please name all of the ways you could use this object. Keep in mind that one object can have many uses. Separate your responses with a comma.",NA,"y",5693,NA,NA,2704,4539,NA,NA,NA,"drink tea",1
"J00641914PS","wnkyangy23","Affordance Norms_South Alabama",1,22,"2022-11-12T02:47:04+00:00",17.282598972321,61,"updated stim.csv","Version61.csv","Version 61","List 61","igloo",NA,1828,4.851851852,1349,1829,"BOI","-","-","Please name all of the ways you could use this object. Keep in mind that one object can have many uses. Separate your responses with a comma.",NA,"y",17101,NA,NA,8335,12877,NA,NA,NA,"keep safe, warm",1
"J00641914PS","wnkyangy23","Affordance Norms_South Alabama",1,23,"2022-11-12T02:47:09+00:00",4.8063840866089,61,"updated stim.csv","Version61.csv","Version 61","List 61","bacon",NA,1806,5.916666667,118,1807,"BOI","-","-","Please name all of the ways you could use this object. Keep in mind that one object can have many uses. Separate your responses with a comma.",NA,"y",4620,NA,NA,1656,2260,NA,NA,NA,"eat",1
"J00641914PS","wnkyangy23","Affordance Norms_South Alabama",1,24,"2022-11-12T02:47:28+00:00",18.983285903931,61,"updated stim.csv","Version61.csv","Version 61","List 61","prostitute",NA,1812,5,2080,1813,"BOI","-","-","Please name all of the ways you could use this object. Keep in mind that one object can have many uses. Separate your responses with a comma.",NA,"y",18676,NA,NA,12494,17582,NA,NA,NA,"seduce, entertain",1
"J00641914PS","wnkyangy23","Affordance Norms_South Alabama",1,25,"2022-11-12T02:47:45+00:00",16.58627820015,61,"updated stim.csv","Version61.csv","Version 61","List 61","item",NA,1813,5.739130435,1369,1814,"BOI","-","-","Please name all of the ways you could use this object. Keep in mind that one object can have many uses. Separate your responses with a comma.",NA,"y",16398,NA,NA,5229,15559,NA,NA,NA,"anything",1
"J00641914PS","wnkyangy23","Affordance Norms_South Alabama",1,26,"2022-11-12T02:48:27+00:00",42.264488935471,61,"updated stim.csv","Version61.csv","Version 61","List 61","moccasin",NA,1819,5.458333333,1673,1820,"BOI","-","-","Please name all of the ways you could use this object. Keep in mind that one object can have many uses. Separate your responses with a comma.",NA,"y",41952,NA,NA,35412,40741,NA,NA,NA,"protect the feet",1
"J00641914PS","wnkyangy23","Affordance Norms_South Alabama",1,27,"2022-11-12T02:48:43+00:00",16.003169059753,61,"updated stim.csv","Version61.csv","Version 61","List 61","chihuahua",NA,1803,6.25,519,1804,"BOI","-","-","Please name all of the ways you could use this object. Keep in mind that one object can have many uses. Separate your responses with a comma.",NA,"y",15819,NA,NA,3518,14835,NA,NA,NA,"to love, guard ",1
"J00641914PS","wnkyangy23","Affordance Norms_South Alabama",1,28,"2022-11-12T02:48:50+00:00",6.9561698436737,61,"updated stim.csv","Version61.csv","Version 61","List 61","paw",NA,1824,5,1889,1825,"BOI","-","-","Please name all of the ways you could use this object. Keep in mind that one object can have many uses. Separate your responses with a comma.",NA,"y",6775,NA,NA,2987,4740,NA,NA,NA,"shake",1
"J00641914PS","wnkyangy23","Affordance Norms_South Alabama",1,29,"2022-11-12T02:49:10+00:00",20.003241062164,61,"updated stim.csv","Version61.csv","Version 61","List 61","earmuff",NA,1825,6.260869565,876,1826,"BOI","-","-","Please name all of the ways you could use this object. Keep in mind that one object can have many uses. Separate your responses with a comma.",NA,"y",19819,NA,NA,4162,15877,NA,NA,NA,"keep warm",1
"J00641914PS","wnkyangy23","Affordance Norms_South Alabama",1,30,"2022-11-12T02:49:24+00:00",13.784637928009,61,"updated stim.csv","Version61.csv","Version 61","List 61","strap",NA,1815,4.923076923,2559,1816,"BOI","-","-","Please name all of the ways you could use this object. Keep in mind that one object can have many uses. Separate your responses with a comma.",NA,"y",13605,NA,NA,8287,12874,NA,NA,NA,"protection",1
"J00641914PS","wnkyangy23","Affordance Norms_South Alabama",1,31,"2022-11-12T02:49:29+00:00",5.4741730690002,61,"updated stim.csv","Version61.csv","Version 61","List 61","pond",NA,1817,4.5,2029,1818,"BOI","-","-","Please name all of the ways you could use this object. Keep in mind that one object can have many uses. Separate your responses with a comma.",NA,"y",5151,NA,NA,1949,4114,NA,NA,NA,"swim, fish ",1
"J00641914PS","wnkyangy23","Affordance Norms_South Alabama",1,32,"2022-11-12T02:49:36+00:00",6.3136990070343,61,"updated stim.csv","Version61.csv","Version 61","List 61","potboiler",NA,1826,4.84,2048,1827,"BOI","-","-","Please name all of the ways you could use this object. Keep in mind that one object can have many uses. Separate your responses with a comma.",NA,"y",6133,NA,NA,4680,5393,NA,NA,NA,"cook",1
"J00641914PS","wnkyangy23","Affordance Norms_South Alabama",1,33,"2022-11-12T02:50:22+00:00",46.264199972153,61,"updated stim.csv","Version61.csv","Version 61","List 61","cement",NA,1805,5.04,476,1806,"BOI","-","-","Please name all of the ways you could use this object. Keep in mind that one object can have many uses. Separate your responses with a comma.",NA,"y",45931,NA,NA,7179,12330,NA,NA,NA,"secure",1
"J00641914PS","wnkyangy23","Affordance Norms_South Alabama",1,34,"2022-11-12T02:50:39+00:00",16.795018911362,61,"updated stim.csv","Version61.csv","Version 61","List 61","sportswoman",NA,1814,4.68,2483,1815,"BOI","-","-","Please name all of the ways you could use this object. Keep in mind that one object can have many uses. Separate your responses with a comma.",NA,"y",16594,NA,NA,9017,15977,NA,NA,NA,"speak upon sports",1
"J00641914PS","wnkyangy23","Affordance Norms_South Alabama",1,35,"2022-11-12T02:51:17+00:00",38.568634033203,61,"updated stim.csv","Version61.csv","Version 61","List 61","camisole",NA,1820,5.476190476,407,1821,"BOI","-","-","Please name all of the ways you could use this object. Keep in mind that one object can have many uses. Separate your responses with a comma.",NA,"y",38231,NA,NA,33890,35999,NA,NA,NA,"cover",1
"J00641914PS","wnkyangy23","Affordance Norms_South Alabama",1,36,"2022-11-12T02:51:24+00:00",6.8807520866394,61,"updated stim.csv","Version61.csv","Version 61","List 61","employee",NA,1829,5.045454545,903,1830,"BOI","-","-","Please name all of the ways you could use this object. Keep in mind that one object can have many uses. Separate your responses with a comma.",NA,"y",6690,NA,NA,2416,5912,NA,NA,NA,"work, lead",1
"J00641914PS","wnkyangy23","Affordance Norms_South Alabama",1,37,"2022-11-12T02:51:36+00:00",12.1262819767,61,"updated stim.csv","Version61.csv","Version 61","List 61","crewman",NA,1802,4.291666667,693,1803,"BOI","-","-","Please name all of the ways you could use this object. Keep in mind that one object can have many uses. Separate your responses with a comma.",NA,"y",11934,NA,NA,1541,4161,NA,NA,NA,"work",1
"J00641914PS","wnkyangy23","Affordance Norms_South Alabama",1,38,"2022-11-12T02:51:44+00:00",7.4213559627533,61,"updated stim.csv","Version61.csv","Version 61","List 61","mask",NA,1809,5.92,1614,1810,"BOI","-","-","Please name all of the ways you could use this object. Keep in mind that one object can have many uses. Separate your responses with a comma.",NA,"y",7228,NA,NA,4456,5664,NA,NA,NA,"to wear",1
"J00641914PS","wnkyangy23","Affordance Norms_South Alabama",1,39,"2022-11-12T02:51:49+00:00",5.6396160125732,61,"updated stim.csv","Version61.csv","Version 61","List 61","script",NA,1811,5.041666667,2289,1812,"BOI","-","-","Please name all of the ways you could use this object. Keep in mind that one object can have many uses. Separate your responses with a comma.",NA,"y",5453,NA,NA,1541,4719,NA,NA,NA,"read, write",1
"J00641914PS","wnkyangy23","Affordance Norms_South Alabama",1,40,"2022-11-12T02:52:00+00:00",11.173268079758,61,"updated stim.csv","Version61.csv","Version 61","List 61","journalist",NA,1807,4.5,1391,1808,"BOI","-","-","Please name all of the ways you could use this object. Keep in mind that one object can have many uses. Separate your responses with a comma.",NA,"y",10992,NA,NA,4806,9854,NA,NA,NA,"write stories",1
"J00656083_acs","5xfkktlb5o","Affordance Norms_South Alabama",1,11,"2022-10-29T18:56:10+00:00",35.209864854813,11,"updated stim.csv","Version11.csv","Version 11","List 11","trigger",NA,319,5.16,2776,320,"BOI","-","-","Please name all of the ways you could use this object. Keep in mind that one object can have many uses. Separate your responses with a comma.",NA,"y",35052,NA,NA,3335,32842,NA,NA,NA,"pulled,set off, snapped,cut,",1
"J00656083_acs","5xfkktlb5o","Affordance Norms_South Alabama",1,12,"2022-10-29T18:56:54+00:00",43.833680152893,11,"updated stim.csv","Version11.csv","Version 11","List 11","grandchild",NA,315,5.24,1145,316,"BOI","-","-","Please name all of the ways you could use this object. Keep in mind that one object can have many uses. Separate your responses with a comma.",NA,"y",43656,NA,NA,10389,35183,NA,NA,NA,"held,pat,hugged,carried,played,cuddled,",1
"J00656083_acs","5xfkktlb5o","Affordance Norms_South Alabama",1,13,"2022-10-29T18:57:37+00:00",43.046768903732,11,"updated stim.csv","Version11.csv","Version 11","List 11","stepdaughter",NA,313,4.72,2525,314,"BOI","-","-","Please name all of the ways you could use this object. Keep in mind that one object can have many uses. Separate your responses with a comma.",NA,"y",42875,NA,NA,11099,38790,NA,NA,NA,"loved,cherrished,held,hug,enjoyed,played",1
"J00656083_acs","5xfkktlb5o","Affordance Norms_South Alabama",1,14,"2022-10-29T18:57:58+00:00",20.661021947861,11,"updated stim.csv","Version11.csv","Version 11","List 11","belt",NA,317,5.80952381,202,318,"BOI","-","-","Please name all of the ways you could use this object. Keep in mind that one object can have many uses. Separate your responses with a comma.",NA,"y",20482,NA,NA,2873,17447,NA,NA,NA,"wrapped,rope,whip,throw,hit,dropped,snapped",1
"J00656083_acs","5xfkktlb5o","Affordance Norms_South Alabama",1,15,"2022-10-29T18:59:00+00:00",61.966834068298,11,"updated stim.csv","Version11.csv","Version 11","List 11","nut",NA,306,5.555555556,1789,307,"BOI","-","-","Please name all of the ways you could use this object. Keep in mind that one object can have many uses. Separate your responses with a comma.",NA,"y",61854,NA,NA,3861,60524,NA,NA,NA,"eaten,crazy,slapped,chewed, spat, thrown, cracked, dropped, peeled, deshelled",1
"J00656083_acs","5xfkktlb5o","Affordance Norms_South Alabama",1,16,"2022-10-29T18:59:29+00:00",29.432927131653,11,"updated stim.csv","Version11.csv","Version 11","List 11","butt",NA,311,5.652173913,374,312,"BOI","-","-","Please name all of the ways you could use this object. Keep in mind that one object can have many uses. Separate your responses with a comma.",NA,"y",29254,NA,NA,5499,28037,NA,NA,NA,"sit, lay, fall on, slap",1
"J00656083_acs","5xfkktlb5o","Affordance Norms_South Alabama",1,17,"2022-10-29T19:00:04+00:00",34.797663927078,11,"updated stim.csv","Version11.csv","Version 11","List 11","bondsman",NA,307,4.416666667,266,308,"BOI","-","-","Please name all of the ways you could use this object. Keep in mind that one object can have many uses. Separate your responses with a comma.",NA,"y",34615,NA,NA,7205,24884,NA,NA,NA,"to spy,fight,seek,hire,",1
"J00656083_acs","5xfkktlb5o","Affordance Norms_South Alabama",1,18,"2022-10-29T19:00:40+00:00",35.828182935715,11,"updated stim.csv","Version11.csv","Version 11","List 11","apartments",NA,309,4.851851852,56,310,"BOI","-","-","Please name all of the ways you could use this object. Keep in mind that one object can have many uses. Separate your responses with a comma.",NA,"y",35654,NA,NA,1581,34232,NA,NA,NA,"to live,shelter,vistors,home,cook,shower,sleep,enjoy,pets,love",1
"J00656083_acs","5xfkktlb5o","Affordance Norms_South Alabama",1,19,"2022-10-29T19:01:15+00:00",35.131639003754,11,"updated stim.csv","Version11.csv","Version 11","List 11","device",NA,302,5.75,784,303,"BOI","-","-","Please name all of the ways you could use this object. Keep in mind that one object can have many uses. Separate your responses with a comma.",NA,"y",34981,NA,NA,2229,33464,NA,NA,NA,"phone,call,test,message,take surverys,to update,submit,communicate,post",1
"J00656083_acs","5xfkktlb5o","Affordance Norms_South Alabama",1,20,"2022-10-29T19:01:59+00:00",44.114217996597,11,"updated stim.csv","Version11.csv","Version 11","List 11","teaspoonful",NA,322,4.4,2654,323,"BOI","-","-","Please name all of the ways you could use this object. Keep in mind that one object can have many uses. Separate your responses with a comma.",NA,"y",43942,NA,NA,5058,42505,NA,NA,NA,"to scoop,to eat with,to reflect,to clink,to bend",1
"J00656083_acs","5xfkktlb5o","Affordance Norms_South Alabama",1,21,"2022-10-29T19:02:32+00:00",33.464684963226,11,"updated stim.csv","Version11.csv","Version 11","List 11","rectum",NA,308,5.041666667,2150,309,"BOI","-","-","Please name all of the ways you could use this object. Keep in mind that one object can have many uses. Separate your responses with a comma.",NA,"y",33364,NA,NA,19473,32169,NA,NA,NA,"bathroom,food,digestive system, human",0.862
"J00656083_acs","5xfkktlb5o","Affordance Norms_South Alabama",1,22,"2022-10-29T19:03:09+00:00",36.647472143173,11,"updated stim.csv","Version11.csv","Version 11","List 11","mongoose",NA,329,4.5,1679,330,"BOI","-","-","Please name all of the ways you could use this object. Keep in mind that one object can have many uses. Separate your responses with a comma.",NA,"y",36494,NA,NA,3907,34274,NA,NA,NA,"to pet, to run, be bitten, dig, hunt, taunt, leap, lay, licks things, eats",1
"J00656083_acs","5xfkktlb5o","Affordance Norms_South Alabama",1,23,"2022-10-29T19:03:34+00:00",25.092711925507,11,"updated stim.csv","Version11.csv","Version 11","List 11","parakeet",NA,328,5.12,1870,329,"BOI","-","-","Please name all of the ways you could use this object. Keep in mind that one object can have many uses. Separate your responses with a comma.",NA,"y",24932,NA,NA,1649,23644,NA,NA,NA,"deliver little things, to pet, company, feed it",1
"J00656083_acs","5xfkktlb5o","Affordance Norms_South Alabama",1,24,"2022-10-29T19:03:50+00:00",16.273621082306,11,"updated stim.csv","Version11.csv","Version 11","List 11","furnace",NA,330,4.68,1066,331,"BOI","-","-","Please name all of the ways you could use this object. Keep in mind that one object can have many uses. Separate your responses with a comma.",NA,"y",16165,NA,NA,1229,14660,NA,NA,NA,"to keep warm, to decorate, Santa, enjoy fire",1
"J00656083_acs","5xfkktlb5o","Affordance Norms_South Alabama",1,25,"2022-10-29T19:04:26+00:00",35.349558830261,11,"updated stim.csv","Version11.csv","Version 11","List 11","pan",NA,326,6.409090909,1856,327,"BOI","-","-","Please name all of the ways you could use this object. Keep in mind that one object can have many uses. Separate your responses with a comma.",NA,"y",35172,NA,NA,2887,33331,NA,NA,NA,"to cook, to fill, to hold, fry, sate, food, water, flower pot, weapon",1
"J00656083_acs","5xfkktlb5o","Affordance Norms_South Alabama",1,26,"2022-10-29T19:05:00+00:00",34.082651138306,11,"updated stim.csv","Version11.csv","Version 11","List 11","billiards",NA,327,4.925925926,216,328,"BOI","-","-","Please name all of the ways you could use this object. Keep in mind that one object can have many uses. Separate your responses with a comma.",NA,"y",33904,NA,NA,13634,32424,NA,NA,NA,"games, stores to buy, clothing, to see sad people",0.924
"J00656083_acs","5xfkktlb5o","Affordance Norms_South Alabama",1,27,"2022-10-29T19:05:41+00:00",41.045284032822,11,"updated stim.csv","Version11.csv","Version 11","List 11","hibachi",NA,312,4.666666667,1284,313,"BOI","-","-","Please name all of the ways you could use this object. Keep in mind that one object can have many uses. Separate your responses with a comma.",NA,"y",40891,NA,NA,3593,39603,NA,NA,NA,"to eat, to cook, to enjoy it, new experience, culture, food",0.985
"J00656083_acs","5xfkktlb5o","Affordance Norms_South Alabama",1,28,"2022-10-29T19:06:09+00:00",27.617641925812,11,"updated stim.csv","Version11.csv","Version 11","List 11","dirt",NA,324,5.08,801,325,"BOI","-","-","Please name all of the ways you could use this object. Keep in mind that one object can have many uses. Separate your responses with a comma.",NA,"y",27430,NA,NA,1636,25624,NA,NA,NA,"to plant, to see creatures, to fill in holes, to dig up, to eat",1
"J00656083_acs","5xfkktlb5o","Affordance Norms_South Alabama",1,29,"2022-10-29T19:06:24+00:00",15.197103977203,11,"updated stim.csv","Version11.csv","Version 11","List 11","corn",NA,316,6,644,317,"BOI","-","-","Please name all of the ways you could use this object. Keep in mind that one object can have many uses. Separate your responses with a comma.",NA,"y",15089,NA,NA,1151,13866,NA,NA,NA,"to eat, to plant, corn maze, create art",1
"J00656083_acs","5xfkktlb5o","Affordance Norms_South Alabama",1,30,"2022-10-29T19:06:54+00:00",30.755784988403,11,"updated stim.csv","Version11.csv","Version 11","List 11","village",NA,321,4.44,2858,322,"BOI","-","-","Please name all of the ways you could use this object. Keep in mind that one object can have many uses. Separate your responses with a comma.",NA,"y",30571,NA,NA,1330,28802,NA,NA,NA,"to live in, to explore, to create new home, to expand it, to meet new people, to learn legends, to live a fantasy, ",1
"J00656083_acs","5xfkktlb5o","Affordance Norms_South Alabama",1,31,"2022-10-29T19:07:20+00:00",25.677007913589,11,"updated stim.csv","Version11.csv","Version 11","List 11","taffy",NA,323,4.6,2622,324,"BOI","-","-","Please name all of the ways you could use this object. Keep in mind that one object can have many uses. Separate your responses with a comma.",NA,"y",25492,NA,NA,1272,23395,NA,NA,NA,"to eat, to enjoy, to buy a lot of, go broke for, to try, to collect, ",1
"J00656083_acs","5xfkktlb5o","Affordance Norms_South Alabama",1,32,"2022-10-29T19:07:49+00:00",28.870630025864,11,"updated stim.csv","Version11.csv","Version 11","List 11","crust",NA,303,5.125,716,304,"BOI","-","-","Please name all of the ways you could use this object. Keep in mind that one object can have many uses. Separate your responses with a comma.",NA,"y",28691,NA,NA,1451,27545,NA,NA,NA,"to cut off, to eat, to grow things in, the earths top, to find worms, to plant",1
"J00656083_acs","5xfkktlb5o","Affordance Norms_South Alabama",1,33,"2022-10-29T19:08:31+00:00",42.119162082672,11,"updated stim.csv","Version11.csv","Version 11","List 11","flatiron",NA,310,5.590909091,1004,311,"BOI","-","-","Please name all of the ways you could use this object. Keep in mind that one object can have many uses. Separate your responses with a comma.",NA,"y",41950,NA,NA,17289,39572,NA,NA,NA,"to iron, to cook wrapes, to heat up table, to start a fire, to burn yourself",0.942
"J00656083_acs","5xfkktlb5o","Affordance Norms_South Alabama",1,34,"2022-10-29T19:09:04+00:00",32.446832895279,11,"updated stim.csv","Version11.csv","Version 11","List 11","casserole",NA,305,5.88,452,306,"BOI","-","-","Please name all of the ways you could use this object. Keep in mind that one object can have many uses. Separate your responses with a comma.",NA,"y",32292,NA,NA,1894,31303,NA,NA,NA,"to eat, to make mysteriously, to have too many of, to give to someone, to receive, to hold, to drop",1
"J00656083_acs","5xfkktlb5o","Affordance Norms_South Alabama",1,35,"2022-10-29T19:09:37+00:00",33.324432134628,11,"updated stim.csv","Version11.csv","Version 11","List 11","acupuncture",NA,301,5.285714286,12,302,"BOI","-","-","Please name all of the ways you could use this object. Keep in mind that one object can have many uses. Separate your responses with a comma.",NA,"y",33166,NA,NA,2042,31831,NA,NA,NA,"to evelvate pain, to get poked, to get a needle, to be stabbed, to relax muscles",1
"J00656083_acs","5xfkktlb5o","Affordance Norms_South Alabama",1,36,"2022-10-29T19:10:08+00:00",31.333141088486,11,"updated stim.csv","Version11.csv","Version 11","List 11","mullets",NA,318,4.304347826,1718,319,"BOI","-","-","Please name all of the ways you could use this object. Keep in mind that one object can have many uses. Separate your responses with a comma.",NA,"y",31157,NA,NA,2520,28339,NA,NA,NA,"to go back to the 80s, to rock with, to grow out, to cut, to comb, to brush, to enjoy, to hate, ",1
"J00656083_acs","5xfkktlb5o","Affordance Norms_South Alabama",1,37,"2022-10-29T19:10:38+00:00",29.510023832321,11,"updated stim.csv","Version11.csv","Version 11","List 11","kettledrum",NA,304,4.916666667,1410,305,"BOI","-","-","Please name all of the ways you could use this object. Keep in mind that one object can have many uses. Separate your responses with a comma.",NA,"y",29357,NA,NA,3397,27697,NA,NA,NA,"to play, to make a loud sound, to roll around, to move, to pack up, and unpack, to ring out",1
"J00656083_acs","5xfkktlb5o","Affordance Norms_South Alabama",1,38,"2022-10-29T19:11:31+00:00",52.855437040329,11,"updated stim.csv","Version11.csv","Version 11","List 11","flowerpot",NA,314,5,1017,315,"BOI","-","-","Please name all of the ways you could use this object. Keep in mind that one object can have many uses. Separate your responses with a comma.",NA,"y",52676,NA,NA,1098,52188,NA,NA,NA,"to plant in, to take something out, store other things, to paint it, to decorate, make into an emgerncy heater",1
"J00656083_acs","5xfkktlb5o","Affordance Norms_South Alabama",1,39,"2022-10-29T19:11:47+00:00",16.484221935272,11,"updated stim.csv","Version11.csv","Version 11","List 11","molasses",NA,320,5,1675,321,"BOI","-","-","Please name all of the ways you could use this object. Keep in mind that one object can have many uses. Separate your responses with a comma.",NA,"y",16381,NA,NA,1615,15014,NA,NA,NA,"to be slow, to eat, to get out of a tree, to be stuck to your hands ",1
"J00656083_acs","5xfkktlb5o","Affordance Norms_South Alabama",1,40,"2022-10-29T19:12:32+00:00",44.679445981979,11,"updated stim.csv","Version11.csv","Version 11","List 11","raincoat",NA,325,5.954545455,2130,326,"BOI","-","-","Please name all of the ways you could use this object. Keep in mind that one object can have many uses. Separate your responses with a comma.",NA,"y",44534,NA,NA,1096,44168,NA,NA,NA,"to wear, to keep off rain, to keep warm, to get soaked, to cover up somehting so it doesn't get wet, to make a puddle in your room",1
"j00666689DF","7wqffz4osa","Affordance Norms_South Alabama",1,11,"2022-11-11T00:35:20+00:00",126.25619482994,56,"updated stim.csv","Version56.csv","Version 56","List 56","ointment",NA,1658,5.869565217,1804,1659,"BOI","-","-","Please name all of the ways you could use this object. Keep in mind that one object can have many uses. Separate your responses with a comma.",NA,"y",125795,NA,NA,4698,123955,NA,NA,NA,"healing wounds, decrease in skin irritation, prevent further flairs ",1
"j00666689DF","7wqffz4osa","Affordance Norms_South Alabama",1,12,"2022-11-11T00:36:00+00:00",39.760050058365,56,"updated stim.csv","Version56.csv","Version 56","List 56","kettle",NA,1673,5.44,1409,1674,"BOI","-","-","Please name all of the ways you could use this object. Keep in mind that one object can have many uses. Separate your responses with a comma.",NA,"y",39286,NA,NA,3682,35722,NA,NA,NA,"heating liquids, holding liquids, dispersion of liquids",1
"j00666689DF","7wqffz4osa","Affordance Norms_South Alabama",1,13,"2022-11-11T00:36:46+00:00",46.00156211853,56,"updated stim.csv","Version56.csv","Version 56","List 56","spectroscope",NA,1661,4.9,2467,1662,"BOI","-","-","Please name all of the ways you could use this object. Keep in mind that one object can have many uses. Separate your responses with a comma.",NA,"y",45553,NA,NA,10279,15270,NA,NA,NA,"observing something closer ",1
"j00666689DF","7wqffz4osa","Affordance Norms_South Alabama",1,14,"2022-11-11T00:37:22+00:00",35.588795900345,56,"updated stim.csv","Version56.csv","Version 56","List 56","ale",NA,1666,4.962962963,25,1667,"BOI","-","-","Please name all of the ways you could use this object. Keep in mind that one object can have many uses. Separate your responses with a comma.",NA,"y",35133,NA,NA,4158,5072,NA,NA,NA,"drinking",1
"j00666689DF","7wqffz4osa","Affordance Norms_South Alabama",1,15,"2022-11-11T00:37:54+00:00",32.203284978867,56,"updated stim.csv","Version56.csv","Version 56","List 56","waistband",NA,1678,5.833333333,2881,1679,"BOI","-","-","Please name all of the ways you could use this object. Keep in mind that one object can have many uses. Separate your responses with a comma.",NA,"y",31768,NA,NA,5255,19731,NA,NA,NA,"holding up pants, style",1
"j00666689DF","7wqffz4osa","Affordance Norms_South Alabama",1,16,"2022-11-11T00:38:40+00:00",45.672882080078,56,"updated stim.csv","Version56.csv","Version 56","List 56","beetle",NA,1657,5.166666667,194,1658,"BOI","-","-","Please name all of the ways you could use this object. Keep in mind that one object can have many uses. Separate your responses with a comma.",NA,"y",45218,NA,NA,24336,44036,NA,NA,NA,"step on it, keep as pet, stay away from it ",1
"j00666689DF","7wqffz4osa","Affordance Norms_South Alabama",1,17,"2022-11-11T00:38:56+00:00",16.553046941757,56,"updated stim.csv","Version56.csv","Version 56","List 56","matchbox",NA,1656,5.875,1621,1657,"BOI","-","-","Please name all of the ways you could use this object. Keep in mind that one object can have many uses. Separate your responses with a comma.",NA,"y",16306,NA,NA,2631,10898,NA,NA,NA,"hold matches, use to light matches ",1
"j00666689DF","7wqffz4osa","Affordance Norms_South Alabama",1,18,"2022-11-11T00:39:28+00:00",31.64390206337,56,"updated stim.csv","Version56.csv","Version 56","List 56","pocketbook",NA,1680,5.884615385,2014,1681,"BOI","-","-","Please name all of the ways you could use this object. Keep in mind that one object can have many uses. Separate your responses with a comma.",NA,"y",31165,NA,NA,3822,29354,NA,NA,NA,"keep up with addresses, bills and overall important info. ",1
"j00666689DF","7wqffz4osa","Affordance Norms_South Alabama",1,19,"2022-11-11T00:39:54+00:00",25.867033004761,56,"updated stim.csv","Version56.csv","Version 56","List 56","cousin",NA,1675,5.375,669,1676,"BOI","-","-","Please name all of the ways you could use this object. Keep in mind that one object can have many uses. Separate your responses with a comma.",NA,"y",25426,NA,NA,10538,17564,NA,NA,NA,"talk to them, hang out with them",1
"j00666689DF","7wqffz4osa","Affordance Norms_South Alabama",1,20,"2022-11-11T00:40:12+00:00",18.552155971527,56,"updated stim.csv","Version56.csv","Version 56","List 56","hanger",NA,1651,5.291666667,1245,1652,"BOI","-","-","Please name all of the ways you could use this object. Keep in mind that one object can have many uses. Separate your responses with a comma.",NA,"y",18284,NA,NA,2629,8926,NA,NA,NA,"hold up forms of clothing ",1
"j00666689DF","7wqffz4osa","Affordance Norms_South Alabama",1,21,"2022-11-11T00:42:10+00:00",118.1044049263,56,"updated stim.csv","Version56.csv","Version 56","List 56","jewel",NA,1663,5.44,1384,1664,"BOI","-","-","Please name all of the ways you could use this object. Keep in mind that one object can have many uses. Separate your responses with a comma.",NA,"y",117663,NA,NA,4535,116461,NA,NA,NA,"use as a stylish centerpiece, sell to potential buyers ",1
"j00666689DF","7wqffz4osa","Affordance Norms_South Alabama",1,22,"2022-11-11T00:42:53+00:00",43.06334400177,56,"updated stim.csv","Version56.csv","Version 56","List 56","husky",NA,1659,4.892857143,1340,1660,"BOI","-","-","Please name all of the ways you could use this object. Keep in mind that one object can have many uses. Separate your responses with a comma.",NA,"y",42630,NA,NA,2185,32244,NA,NA,NA,"keep as a pet, use as emotional support animal, breed, play with it, feed",1
"j00666689DF","7wqffz4osa","Affordance Norms_South Alabama",1,23,"2022-11-11T00:43:16+00:00",22.416085958481,56,"updated stim.csv","Version56.csv","Version 56","List 56","dust",NA,1664,4.827586207,868,1665,"BOI","-","-","Please name all of the ways you could use this object. Keep in mind that one object can have many uses. Separate your responses with a comma.",NA,"y",21978,NA,NA,7051,14696,NA,NA,NA,"clean off some form of furniture",1
"j00666689DF","7wqffz4osa","Affordance Norms_South Alabama",1,24,"2022-11-11T00:44:23+00:00",67.076383113861,56,"updated stim.csv","Version56.csv","Version 56","List 56","woods",NA,1653,4.409090909,2963,1654,"BOI","-","-","Please name all of the ways you could use this object. Keep in mind that one object can have many uses. Separate your responses with a comma.",NA,"y",66653,NA,NA,2397,54369,NA,NA,NA,"burn, grow, turn into paper",1
"j00666689DF","7wqffz4osa","Affordance Norms_South Alabama",1,25,"2022-11-11T00:45:10+00:00",46.788967847824,56,"updated stim.csv","Version56.csv","Version 56","List 56","apple",NA,1677,6.272727273,61,1678,"BOI","-","-","Please name all of the ways you could use this object. Keep in mind that one object can have many uses. Separate your responses with a comma.",NA,"y",46320,NA,NA,1390,35289,NA,NA,NA,"eat, cut in various sizes, use to grow other apples, use in an assortment of foods ",1
"j00666689DF","7wqffz4osa","Affordance Norms_South Alabama",1,26,"2022-11-11T00:45:33+00:00",22.885085105896,56,"updated stim.csv","Version56.csv","Version 56","List 56","deliveryman",NA,1671,4.44,770,1672,"BOI","-","-","Please name all of the ways you could use this object. Keep in mind that one object can have many uses. Separate your responses with a comma.",NA,"y",22439,NA,NA,2683,21564,NA,NA,NA,"deliver mail or goods",1
"j00666689DF","7wqffz4osa","Affordance Norms_South Alabama",1,27,"2022-11-11T00:45:43+00:00",10.649863958359,56,"updated stim.csv","Version56.csv","Version 56","List 56","fauna",NA,1676,5,953,1677,"BOI","-","-","Please name all of the ways you could use this object. Keep in mind that one object can have many uses. Separate your responses with a comma.",NA,"y",10396,NA,NA,3790,9692,NA,NA,NA,"I do not what this is ",1
"j00666689DF","7wqffz4osa","Affordance Norms_South Alabama",1,28,"2022-11-11T00:45:56+00:00",13.268156051636,56,"updated stim.csv","Version56.csv","Version 56","List 56","sirloin",NA,1665,5.32,2386,1666,"BOI","-","-","Please name all of the ways you could use this object. Keep in mind that one object can have many uses. Separate your responses with a comma.",NA,"y",13022,NA,NA,2082,5574,NA,NA,NA,"eat, cook ",1
"j00666689DF","7wqffz4osa","Affordance Norms_South Alabama",1,29,"2022-11-11T00:46:24+00:00",27.218852043152,56,"updated stim.csv","Version56.csv","Version 56","List 56","tranquilizer",NA,1670,4.56,2760,1671,"BOI","-","-","Please name all of the ways you could use this object. Keep in mind that one object can have many uses. Separate your responses with a comma.",NA,"y",26758,NA,NA,2519,18694,NA,NA,NA,"put an animal or person to sleep ",1
"j00666689DF","7wqffz4osa","Affordance Norms_South Alabama",1,30,"2022-11-11T00:46:58+00:00",33.892210006714,56,"updated stim.csv","Version56.csv","Version 56","List 56","pendant",NA,1674,5.791666667,1914,1675,"BOI","-","-","Please name all of the ways you could use this object. Keep in mind that one object can have many uses. Separate your responses with a comma.",NA,"y",33499,NA,NA,3580,29210,NA,NA,NA,"put on clothes to display an assortment of titles, wear for stylish purposes ",1
"j00666689DF","7wqffz4osa","Affordance Norms_South Alabama",1,31,"2022-11-11T00:47:09+00:00",11.849037885666,56,"updated stim.csv","Version56.csv","Version 56","List 56","minnow",NA,1655,4.416666667,1665,1656,"BOI","-","-","Please name all of the ways you could use this object. Keep in mind that one object can have many uses. Separate your responses with a comma.",NA,"y",11584,NA,NA,6762,11175,NA,NA,NA,"I do not know what this is ",1
"j00666689DF","7wqffz4osa","Affordance Norms_South Alabama",1,32,"2022-11-11T00:47:55+00:00",45.215319156647,56,"updated stim.csv","Version56.csv","Version 56","List 56","escalator",NA,1668,5.52,920,1669,"BOI","-","-","Please name all of the ways you could use this object. Keep in mind that one object can have many uses. Separate your responses with a comma.",NA,"y",44746,NA,NA,2421,43967,NA,NA,NA,"go up to another story, go down to a lower floor ",1
"j00666689DF","7wqffz4osa","Affordance Norms_South Alabama",1,33,"2022-11-11T00:50:58+00:00",183.36019802094,56,"updated stim.csv","Version56.csv","Version 56","List 56","buttocks",NA,1679,6.434782609,380,1680,"BOI","-","-","Please name all of the ways you could use this object. Keep in mind that one object can have many uses. Separate your responses with a comma.",NA,"y",182938,NA,NA,2749,180223,NA,NA,NA,"sit on, slap, grow bigger through exercise or surgery, twerk",1
"j00666689DF","7wqffz4osa","Affordance Norms_South Alabama",1,34,"2022-11-11T00:51:41+00:00",43.12720489502,56,"updated stim.csv","Version56.csv","Version 56","List 56","lemonade",NA,1672,5.409090909,1490,1673,"BOI","-","-","Please name all of the ways you could use this object. Keep in mind that one object can have many uses. Separate your responses with a comma.",NA,"y",42651,NA,NA,1725,4410,NA,NA,NA,"drink",1
"j00666689DF","7wqffz4osa","Affordance Norms_South Alabama",1,35,"2022-11-11T00:53:11+00:00",90.139672040939,56,"updated stim.csv","Version56.csv","Version 56","List 56","privates",NA,1652,4.681818182,2068,1653,"BOI","-","-","Please name all of the ways you could use this object. Keep in mind that one object can have many uses. Separate your responses with a comma.",NA,"y",89700,NA,NA,46665,58025,NA,NA,NA,"engage in sexual activity ",1
"j00666689DF","7wqffz4osa","Affordance Norms_South Alabama",1,36,"2022-11-11T00:53:36+00:00",24.92694401741,56,"updated stim.csv","Version56.csv","Version 56","List 56","surveyor",NA,1669,4.47826087,2596,1670,"BOI","-","-","Please name all of the ways you could use this object. Keep in mind that one object can have many uses. Separate your responses with a comma.",NA,"y",24490,NA,NA,6102,23285,NA,NA,NA,"question a group of people ",1
"j00666689DF","7wqffz4osa","Affordance Norms_South Alabama",1,37,"2022-11-11T00:53:46+00:00",9.589879989624,56,"updated stim.csv","Version56.csv","Version 56","List 56","passenger",NA,1667,5.08,1880,1668,"BOI","-","-","Please name all of the ways you could use this object. Keep in mind that one object can have many uses. Separate your responses with a comma.",NA,"y",8885,NA,NA,6348,8177,NA,NA,NA,"ride along with ",1
"j00666689DF","7wqffz4osa","Affordance Norms_South Alabama",1,38,"2022-11-11T00:54:09+00:00",23.338101863861,56,"updated stim.csv","Version56.csv","Version 56","List 56","dog",NA,1662,6.4,811,1663,"BOI","-","-","Please name all of the ways you could use this object. Keep in mind that one object can have many uses. Separate your responses with a comma.",NA,"y",22892,NA,NA,1998,22213,NA,NA,NA,"keep as pet, feed, play with, emotional support pal, breed ",1
"j00666689DF","7wqffz4osa","Affordance Norms_South Alabama",1,39,"2022-11-11T00:55:08+00:00",59.382667064667,56,"updated stim.csv","Version56.csv","Version 56","List 56","carp",NA,1660,4.52173913,435,1661,"BOI","-","-","Please name all of the ways you could use this object. Keep in mind that one object can have many uses. Separate your responses with a comma.",NA,"y",58974,NA,NA,2731,36914,NA,NA,NA,"fish out of a pond, eat ",1
"j00666689DF","7wqffz4osa","Affordance Norms_South Alabama",1,40,"2022-11-11T00:55:29+00:00",20.598978996277,56,"updated stim.csv","Version56.csv","Version 56","List 56","bookcase",NA,1654,5.56,272,1655,"BOI","-","-","Please name all of the ways you could use this object. Keep in mind that one object can have many uses. Separate your responses with a comma.",NA,"y",20147,NA,NA,2221,5875,NA,NA,NA,"store books",1
"J00667670_KPL","qmzma0iroi","Affordance Norms_South Alabama",1,11,"2022-11-12T21:52:49+00:00",132.93059515953,66,"updated stim.csv","Version66.csv","Version 66","List 66","violin",NA,1956,6.043478261,2865,1957,"BOI","-","-","Please name all of the ways you could use this object. Keep in mind that one object can have many uses. Separate your responses with a comma.",NA,"y",132769,NA,NA,1619,9981,NA,NA,NA,"play, stroke, hold, ",1
"J00667670_KPL","qmzma0iroi","Affordance Norms_South Alabama",1,12,"2022-11-12T21:52:58+00:00",9.5346398353577,66,"updated stim.csv","Version66.csv","Version 66","List 66","egg",NA,1952,6.068965517,892,1953,"BOI","-","-","Please name all of the ways you could use this object. Keep in mind that one object can have many uses. Separate your responses with a comma.",NA,"y",9422,NA,NA,1165,4681,NA,NA,NA,"cook, eat, throw, ",1
"J00667670_KPL","qmzma0iroi","Affordance Norms_South Alabama",1,13,"2022-11-12T21:53:12+00:00",14.300634145737,66,"updated stim.csv","Version66.csv","Version 66","List 66","afro",NA,1962,4.52,17,1963,"BOI","-","-","Please name all of the ways you could use this object. Keep in mind that one object can have many uses. Separate your responses with a comma.",NA,"y",14190,NA,NA,1968,6903,NA,NA,NA,"comb, care, wash, ",1
"J00667670_KPL","qmzma0iroi","Affordance Norms_South Alabama",1,14,"2022-11-12T21:53:40+00:00",27.247781038284,66,"updated stim.csv","Version66.csv","Version 66","List 66","briefs",NA,1957,5.64,324,1958,"BOI","-","-","Please name all of the ways you could use this object. Keep in mind that one object can have many uses. Separate your responses with a comma.",NA,"y",27056,NA,NA,1600,9747,NA,NA,NA,"wear, wash, throw, step on, ",1
"J00667670_KPL","qmzma0iroi","Affordance Norms_South Alabama",1,15,"2022-11-12T21:54:11+00:00",31.446470975876,66,"updated stim.csv","Version66.csv","Version 66","List 66","pedestrian",NA,1969,4.962962963,1902,1970,"BOI","-","-","Please name all of the ways you could use this object. Keep in mind that one object can have many uses. Separate your responses with a comma.",NA,"y",31280,NA,NA,2183,8399,NA,NA,NA,"walk, run, hit, watch, ",1
"J00667670_KPL","qmzma0iroi","Affordance Norms_South Alabama",1,16,"2022-11-12T21:55:08+00:00",57.07181596756,66,"updated stim.csv","Version66.csv","Version 66","List 66","ledger",NA,1978,4.583333333,1483,1979,"BOI","-","-","Please name all of the ways you could use this object. Keep in mind that one object can have many uses. Separate your responses with a comma.",NA,"y",56906,NA,NA,2760,55882,NA,NA,NA,"hold, stuck, drill",1
"J00667670_KPL","qmzma0iroi","Affordance Norms_South Alabama",1,17,"2022-11-12T21:55:37+00:00",28.415992975235,66,"updated stim.csv","Version66.csv","Version 66","List 66","sledge",NA,1977,4.380952381,2407,1978,"BOI","-","-","Please name all of the ways you could use this object. Keep in mind that one object can have many uses. Separate your responses with a comma.",NA,"y",28253,NA,NA,2758,26382,NA,NA,NA,"hammer, break, throw, hold, ",1
"J00667670_KPL","qmzma0iroi","Affordance Norms_South Alabama",1,18,"2022-11-12T21:55:47+00:00",10.846015930176,66,"updated stim.csv","Version66.csv","Version 66","List 66","ballerina",NA,1980,4.695652174,129,1981,"BOI","-","-","Please name all of the ways you could use this object. Keep in mind that one object can have many uses. Separate your responses with a comma.",NA,"y",10730,NA,NA,1580,9706,NA,NA,NA,"dance, fall, fast, slow, spin,",1
"J00667670_KPL","qmzma0iroi","Affordance Norms_South Alabama",1,19,"2022-11-12T21:56:31+00:00",43.436500072479,66,"updated stim.csv","Version66.csv","Version 66","List 66","grandpa",NA,1959,5.76,1151,1960,"BOI","-","-","Please name all of the ways you could use this object. Keep in mind that one object can have many uses. Separate your responses with a comma.",NA,"y",43270,NA,NA,16022,42004,NA,NA,NA,"old, slow, eat, fall, cry",1
"J00667670_KPL","qmzma0iroi","Affordance Norms_South Alabama",1,20,"2022-11-12T21:56:41+00:00",10.416815042496,66,"updated stim.csv","Version66.csv","Version 66","List 66","compasses",NA,1974,5.2,613,1975,"BOI","-","-","Please name all of the ways you could use this object. Keep in mind that one object can have many uses. Separate your responses with a comma.",NA,"y",10305,NA,NA,2901,8206,NA,NA,NA,"arrow, direction, throw, break ",1
"J00667670_KPL","qmzma0iroi","Affordance Norms_South Alabama",1,21,"2022-11-12T21:58:48+00:00",126.83660387993,66,"updated stim.csv","Version66.csv","Version 66","List 66","surfboard",NA,1960,5.916666667,2594,1961,"BOI","-","-","Please name all of the ways you could use this object. Keep in mind that one object can have many uses. Separate your responses with a comma.",NA,"y",126656,NA,NA,2315,13518,NA,NA,NA,"wet, stand, break, wax, ",0.785
"J00667670_KPL","qmzma0iroi","Affordance Norms_South Alabama",1,22,"2022-11-12T21:59:08+00:00",19.985629081726,66,"updated stim.csv","Version66.csv","Version 66","List 66","photocopy",NA,1979,4.260869565,1943,1980,"BOI","-","-","Please name all of the ways you could use this object. Keep in mind that one object can have many uses. Separate your responses with a comma.",NA,"y",19871,NA,NA,3228,19168,NA,NA,NA,"rip, share, hold, cut, scan, shred",1
"J00667670_KPL","qmzma0iroi","Affordance Norms_South Alabama",1,23,"2022-11-12T21:59:28+00:00",19.671240091324,66,"updated stim.csv","Version66.csv","Version 66","List 66","produce",NA,1953,5.565217391,2070,1954,"BOI","-","-","Please name all of the ways you could use this object. Keep in mind that one object can have many uses. Separate your responses with a comma.",NA,"y",19558,NA,NA,1982,18013,NA,NA,NA,"cook, eat, break, throw, stepon",1
"J00667670_KPL","qmzma0iroi","Affordance Norms_South Alabama",1,24,"2022-11-12T21:59:48+00:00",19.932314872742,66,"updated stim.csv","Version66.csv","Version 66","List 66","earth",NA,1965,5.555555556,882,1966,"BOI","-","-","Please name all of the ways you could use this object. Keep in mind that one object can have many uses. Separate your responses with a comma.",NA,"y",19822,NA,NA,1338,18879,NA,NA,NA,"round, spin, globe, rotate",1
"J00667670_KPL","qmzma0iroi","Affordance Norms_South Alabama",1,25,"2022-11-12T22:00:27+00:00",39.745167016983,66,"updated stim.csv","Version66.csv","Version 66","List 66","fryer",NA,1968,5.541666667,1062,1969,"BOI","-","-","Please name all of the ways you could use this object. Keep in mind that one object can have many uses. Separate your responses with a comma.",NA,"y",39583,NA,NA,1257,11020,NA,NA,NA,"cook, plug, break, spin, ",1
"J00667670_KPL","qmzma0iroi","Affordance Norms_South Alabama",1,26,"2022-11-12T22:00:41+00:00",13.838476896286,66,"updated stim.csv","Version66.csv","Version 66","List 66","council",NA,1973,4.321428571,662,1974,"BOI","-","-","Please name all of the ways you could use this object. Keep in mind that one object can have many uses. Separate your responses with a comma.",NA,"y",13725,NA,NA,2854,12368,NA,NA,NA,"share, talk, old, young, group",1
"J00667670_KPL","qmzma0iroi","Affordance Norms_South Alabama",1,27,"2022-11-12T22:01:05+00:00",23.327059984207,66,"updated stim.csv","Version66.csv","Version 66","List 66","sauerkraut",NA,1970,5.148148148,2250,1971,"BOI","-","-","Please name all of the ways you could use this object. Keep in mind that one object can have many uses. Separate your responses with a comma.",NA,"y",23167,NA,NA,10793,21347,NA,NA,NA,"cook, eat, throw, share, burn, cold, hot",0.951
"J00667670_KPL","qmzma0iroi","Affordance Norms_South Alabama",1,28,"2022-11-12T22:01:32+00:00",27.612414121628,66,"updated stim.csv","Version66.csv","Version 66","List 66","manicurist",NA,1963,4.916666667,1591,1964,"BOI","-","-","Please name all of the ways you could use this object. Keep in mind that one object can have many uses. Separate your responses with a comma.",NA,"y",27444,NA,NA,12121,24330,NA,NA,NA,"use, share, paint, ",0.958
"J00667670_KPL","qmzma0iroi","Affordance Norms_South Alabama",1,29,"2022-11-12T22:02:23+00:00",50.488923072815,66,"updated stim.csv","Version66.csv","Version 66","List 66","apparatus",NA,1971,4.636363636,57,1972,"BOI","-","-","Please name all of the ways you could use this object. Keep in mind that one object can have many uses. Separate your responses with a comma.",NA,"y",50231,NA,NA,13141,21434,NA,NA,NA,"use, old, new, break, fast, slow",0.973
"J00667670_KPL","qmzma0iroi","Affordance Norms_South Alabama",1,30,"2022-11-12T22:02:45+00:00",22.282891988754,66,"updated stim.csv","Version66.csv","Version 66","List 66","anvil",NA,1972,5.24,54,1973,"BOI","-","-","Please name all of the ways you could use this object. Keep in mind that one object can have many uses. Separate your responses with a comma.",NA,"y",22127,NA,NA,2513,21332,NA,NA,NA,"break, hot, hard, solid, step on",1
"J00667670_KPL","qmzma0iroi","Affordance Norms_South Alabama",1,31,"2022-11-12T22:03:39+00:00",54.340148925781,66,"updated stim.csv","Version66.csv","Version 66","List 66","azalea",NA,1954,5.263157895,109,1955,"BOI","-","-","Please name all of the ways you could use this object. Keep in mind that one object can have many uses. Separate your responses with a comma.",NA,"y",54181,NA,NA,46427,52254,NA,NA,NA,"cut, grow, plant, smell, smash, ",1
"J00667670_KPL","qmzma0iroi","Affordance Norms_South Alabama",1,32,"2022-11-12T22:04:27+00:00",47.573225975037,66,"updated stim.csv","Version66.csv","Version 66","List 66","pallet",NA,1961,4.36,1853,1962,"BOI","-","-","Please name all of the ways you could use this object. Keep in mind that one object can have many uses. Separate your responses with a comma.",NA,"y",47376,NA,NA,20697,46753,NA,NA,NA,"burn, break, smash, small, large",1
"J00667670_KPL","qmzma0iroi","Affordance Norms_South Alabama",1,33,"2022-11-12T22:04:37+00:00",10.317934036255,66,"updated stim.csv","Version66.csv","Version 66","List 66","veil",NA,1955,5.727272727,2844,1956,"BOI","-","-","Please name all of the ways you could use this object. Keep in mind that one object can have many uses. Separate your responses with a comma.",NA,"y",10181,NA,NA,3862,7951,NA,NA,NA,"tug, rip, long, ",1
"J00667670_KPL","qmzma0iroi","Affordance Norms_South Alabama",1,34,"2022-11-12T22:05:23+00:00",45.509579896927,66,"updated stim.csv","Version66.csv","Version 66","List 66","handlebar",NA,1958,5.384615385,1240,1959,"BOI","-","-","Please name all of the ways you could use this object. Keep in mind that one object can have many uses. Separate your responses with a comma.",NA,"y",45351,NA,NA,30684,43127,NA,NA,NA,"break, hold, ",1
"J00667670_KPL","qmzma0iroi","Affordance Norms_South Alabama",1,35,"2022-11-12T22:06:33+00:00",70.641223192215,66,"updated stim.csv","Version66.csv","Version 66","List 66","sherbet",NA,1976,5.916666667,2337,1977,"BOI","-","-","Please name all of the ways you could use this object. Keep in mind that one object can have many uses. Separate your responses with a comma.",NA,"y",70478,NA,NA,3993,69872,NA,NA,NA,"eat, mix, throw, share",1
"J00667670_KPL","qmzma0iroi","Affordance Norms_South Alabama",1,36,"2022-11-12T22:07:00+00:00",26.545061826706,66,"updated stim.csv","Version66.csv","Version 66","List 66","boardinghouse",NA,1964,4.565217391,254,1965,"BOI","-","-","Please name all of the ways you could use this object. Keep in mind that one object can have many uses. Separate your responses with a comma.",NA,"y",26380,NA,NA,1984,20866,NA,NA,NA,"break, share, ",1
"J00667670_KPL","qmzma0iroi","Affordance Norms_South Alabama",1,37,"2022-11-12T22:07:15+00:00",15.60066318512,66,"updated stim.csv","Version66.csv","Version 66","List 66","object",NA,1967,6.416666667,1797,1968,"BOI","-","-","Please name all of the ways you could use this object. Keep in mind that one object can have many uses. Separate your responses with a comma.",NA,"y",15455,NA,NA,1433,14613,NA,NA,NA,"throw, smash, round, sqaure, break, loose, old, young, ",1
"J00667670_KPL","qmzma0iroi","Affordance Norms_South Alabama",1,38,"2022-11-12T22:10:41+00:00",205.50559282303,66,"updated stim.csv","Version66.csv","Version 66","List 66","viola",NA,1975,4.458333333,2864,1976,"BOI","-","-","Please name all of the ways you could use this object. Keep in mind that one object can have many uses. Separate your responses with a comma.",NA,"y",205349,NA,NA,181768,204361,NA,NA,NA,"pluck, shred, share, ",1
"J00667670_KPL","qmzma0iroi","Affordance Norms_South Alabama",1,39,"2022-11-12T22:10:58+00:00",16.993184089661,66,"updated stim.csv","Version66.csv","Version 66","List 66","biologist",NA,1951,4.48,219,1952,"BOI","-","-","Please name all of the ways you could use this object. Keep in mind that one object can have many uses. Separate your responses with a comma.",NA,"y",16879,NA,NA,4159,14766,NA,NA,NA,"learn, share, confirm, push, ",1
"J00667670_KPL","qmzma0iroi","Affordance Norms_South Alabama",1,40,"2022-11-12T22:11:06+00:00",8.0756430625916,66,"updated stim.csv","Version66.csv","Version 66","List 66","passionflower",NA,1966,4.782608696,1882,1967,"BOI","-","-","Please name all of the ways you could use this object. Keep in mind that one object can have many uses. Separate your responses with a comma.",NA,"y",7963,NA,NA,1831,7187,NA,NA,NA,"shred, pluck, small, large",1
"j00670955","acfj4mex3w","Affordance Norms_South Alabama",1,11,"2022-10-24T16:42:34+00:00",28.129603147507,1,"updated stim.csv","Version1.csv","Version 1","List 1","hosiery",NA,16,5.565217391,1319,17,"BOI","-","-","Please name all of the ways you could use this object. Keep in mind that one object can have many uses. Separate your responses with a comma.",NA,"y",27951,NA,NA,13699,27173,NA,NA,NA,"skirt,fishnet",1
"j00670955","acfj4mex3w","Affordance Norms_South Alabama",1,12,"2022-10-24T16:42:39+00:00",5.2008788585663,1,"updated stim.csv","Version1.csv","Version 1","List 1","lanyard",NA,4,5.416666667,1464,5,"BOI","-","-","Please name all of the ways you could use this object. Keep in mind that one object can have many uses. Separate your responses with a comma.",NA,"y",5033,NA,NA,2590,3846,NA,NA,NA,"keychain",1
"j00670955","acfj4mex3w","Affordance Norms_South Alabama",1,13,"2022-10-24T16:42:52+00:00",12.806528091431,1,"updated stim.csv","Version1.csv","Version 1","List 1","tomahawk",NA,14,4.958333333,2722,15,"BOI","-","-","Please name all of the ways you could use this object. Keep in mind that one object can have many uses. Separate your responses with a comma.",NA,"y",12627,NA,NA,10875,11682,NA,NA,NA,"axe",1
"j00670955","acfj4mex3w","Affordance Norms_South Alabama",1,14,"2022-10-24T16:43:02+00:00",9.5462188720703,1,"updated stim.csv","Version1.csv","Version 1","List 1","handrail",NA,19,5.227272727,1241,20,"BOI","-","-","Please name all of the ways you could use this object. Keep in mind that one object can have many uses. Separate your responses with a comma.",NA,"y",9332,NA,NA,2638,8319,NA,NA,NA,"construction, surgery",1
"j00670955","acfj4mex3w","Affordance Norms_South Alabama",1,15,"2022-10-24T16:43:10+00:00",8.2923390865326,1,"updated stim.csv","Version1.csv","Version 1","List 1","bread",NA,7,6.230769231,308,8,"BOI","-","-","Please name all of the ways you could use this object. Keep in mind that one object can have many uses. Separate your responses with a comma.",NA,"y",8107,NA,NA,1607,6597,NA,NA,NA,"wheat,butter",1
"j00670955","acfj4mex3w","Affordance Norms_South Alabama",1,16,"2022-10-24T16:43:20+00:00",10.130764961243,1,"updated stim.csv","Version1.csv","Version 1","List 1","florist",NA,13,4.444444444,1011,14,"BOI","-","-","Please name all of the ways you could use this object. Keep in mind that one object can have many uses. Separate your responses with a comma.",NA,"y",9918,NA,NA,2491,9013,NA,NA,NA,"flowers, funeral, weeding",1
"j00670955","acfj4mex3w","Affordance Norms_South Alabama",1,17,"2022-10-24T16:43:31+00:00",10.530999898911,1,"updated stim.csv","Version1.csv","Version 1","List 1","pin",NA,29,5.88,1967,30,"BOI","-","-","Please name all of the ways you could use this object. Keep in mind that one object can have many uses. Separate your responses with a comma.",NA,"y",10351,NA,NA,2075,9495,NA,NA,NA,"paperwork, files, organizing ",1
"j00670955","acfj4mex3w","Affordance Norms_South Alabama",1,18,"2022-10-24T16:43:42+00:00",11.903603076935,1,"updated stim.csv","Version1.csv","Version 1","List 1","sandbox",NA,12,5.777777778,2235,13,"BOI","-","-","Please name all of the ways you could use this object. Keep in mind that one object can have many uses. Separate your responses with a comma.",NA,"y",11698,NA,NA,1844,10874,NA,NA,NA,"playground,school, cats",1
"j00670955","acfj4mex3w","Affordance Norms_South Alabama",1,19,"2022-10-24T16:43:48+00:00",5.3959310054779,1,"updated stim.csv","Version1.csv","Version 1","List 1","mint",NA,3,5.76,1666,4,"BOI","-","-","Please name all of the ways you could use this object. Keep in mind that one object can have many uses. Separate your responses with a comma.",NA,"y",5225,NA,NA,2159,4204,NA,NA,NA,"cookies, gum",1
"j00670955","acfj4mex3w","Affordance Norms_South Alabama",1,20,"2022-10-24T16:44:03+00:00",15.608962059021,1,"updated stim.csv","Version1.csv","Version 1","List 1","merchandise",NA,5,5.833333333,1647,6,"BOI","-","-","Please name all of the ways you could use this object. Keep in mind that one object can have many uses. Separate your responses with a comma.",NA,"y",15436,NA,NA,6639,14400,NA,NA,NA,"towels, house, clothing",1
"j00670955","acfj4mex3w","Affordance Norms_South Alabama",1,21,"2022-10-24T16:44:19+00:00",15.859277009964,1,"updated stim.csv","Version1.csv","Version 1","List 1","solicitor",NA,9,4.875,2448,10,"BOI","-","-","Please name all of the ways you could use this object. Keep in mind that one object can have many uses. Separate your responses with a comma.",NA,"y",15676,NA,NA,14114,14448,NA,NA,NA,"law",1
"j00670955","acfj4mex3w","Affordance Norms_South Alabama",1,22,"2022-10-24T16:44:26+00:00",6.3961019515991,1,"updated stim.csv","Version1.csv","Version 1","List 1","tit",NA,11,5.92,2708,12,"BOI","-","-","Please name all of the ways you could use this object. Keep in mind that one object can have many uses. Separate your responses with a comma.",NA,"y",6270,NA,NA,4458,5369,NA,NA,NA,"windows",1
"j00670955","acfj4mex3w","Affordance Norms_South Alabama",1,23,"2022-10-24T16:44:44+00:00",18.337803125381,1,"updated stim.csv","Version1.csv","Version 1","List 1","boa",NA,25,4.333333333,252,26,"BOI","-","-","Please name all of the ways you could use this object. Keep in mind that one object can have many uses. Separate your responses with a comma.",NA,"y",18152,NA,NA,16421,17332,NA,NA,NA,"snake",1
"j00670955","acfj4mex3w","Affordance Norms_South Alabama",1,24,"2022-10-24T16:45:10+00:00",25.571532964706,1,"updated stim.csv","Version1.csv","Version 1","List 1","orangutan",NA,18,4.666666667,1815,19,"BOI","-","-","Please name all of the ways you could use this object. Keep in mind that one object can have many uses. Separate your responses with a comma.",NA,"y",25381,NA,NA,17318,23838,NA,NA,NA,"planet of apes",1
"j00670955","acfj4mex3w","Affordance Norms_South Alabama",1,25,"2022-10-24T16:45:14+00:00",4.4043560028076,1,"updated stim.csv","Version1.csv","Version 1","List 1","joint",NA,6,4.375,1389,7,"BOI","-","-","Please name all of the ways you could use this object. Keep in mind that one object can have many uses. Separate your responses with a comma.",NA,"y",4261,NA,NA,1888,3273,NA,NA,NA,"combine",1
"j00670955","acfj4mex3w","Affordance Norms_South Alabama",1,26,"2022-10-24T16:45:24+00:00",9.6748340129852,1,"updated stim.csv","Version1.csv","Version 1","List 1","spyglass",NA,30,5.64,2491,31,"BOI","-","-","Please name all of the ways you could use this object. Keep in mind that one object can have many uses. Separate your responses with a comma.",NA,"y",9488,NA,NA,3344,8602,NA,NA,NA,"decective ",1
"j00670955","acfj4mex3w","Affordance Norms_South Alabama",1,27,"2022-10-24T16:45:32+00:00",8.7845358848572,1,"updated stim.csv","Version1.csv","Version 1","List 1","stationary",NA,26,4.727272727,2510,27,"BOI","-","-","Please name all of the ways you could use this object. Keep in mind that one object can have many uses. Separate your responses with a comma.",NA,"y",8598,NA,NA,4300,7645,NA,NA,NA,"station, cooking",1
"j00670955","acfj4mex3w","Affordance Norms_South Alabama",1,28,"2022-10-24T16:45:36+00:00",3.283607006073,1,"updated stim.csv","Version1.csv","Version 1","List 1","parsley",NA,27,5.434782609,1877,28,"BOI","-","-","Please name all of the ways you could use this object. Keep in mind that one object can have many uses. Separate your responses with a comma.",NA,"y",3118,NA,NA,1414,2183,NA,NA,NA,"cooking",1
"j00670955","acfj4mex3w","Affordance Norms_South Alabama",1,29,"2022-10-24T16:45:41+00:00",5.4531860351562,1,"updated stim.csv","Version1.csv","Version 1","List 1","petticoat",NA,8,5.454545455,1935,9,"BOI","-","-","Please name all of the ways you could use this object. Keep in mind that one object can have many uses. Separate your responses with a comma.",NA,"y",5283,NA,NA,1762,4390,NA,NA,NA,"rain, cold",1
"j00670955","acfj4mex3w","Affordance Norms_South Alabama",1,30,"2022-10-24T16:45:46+00:00",5.2680900096893,1,"updated stim.csv","Version1.csv","Version 1","List 1","grease",NA,15,4.666666667,1168,16,"BOI","-","-","Please name all of the ways you could use this object. Keep in mind that one object can have many uses. Separate your responses with a comma.",NA,"y",5144,NA,NA,1656,3579,NA,NA,NA,"food, chicken",1
"j00670955","acfj4mex3w","Affordance Norms_South Alabama",1,31,"2022-10-24T16:46:10+00:00",23.338379859924,1,"updated stim.csv","Version1.csv","Version 1","List 1","wishbone",NA,20,5.458333333,2953,21,"BOI","-","-","Please name all of the ways you could use this object. Keep in mind that one object can have many uses. Separate your responses with a comma.",NA,"y",23173,NA,NA,20113,21859,NA,NA,NA,"jack russel",1
"j00670955","acfj4mex3w","Affordance Norms_South Alabama",1,32,"2022-10-24T16:46:13+00:00",3.6608211994171,1,"updated stim.csv","Version1.csv","Version 1","List 1","briefcase",NA,10,6.25,323,11,"BOI","-","-","Please name all of the ways you could use this object. Keep in mind that one object can have many uses. Separate your responses with a comma.",NA,"y",3531,NA,NA,1432,2639,NA,NA,NA,"lawyer",1
"j00670955","acfj4mex3w","Affordance Norms_South Alabama",1,33,"2022-10-24T16:46:18+00:00",4.7944478988647,1,"updated stim.csv","Version1.csv","Version 1","List 1","tablespoon",NA,28,5.142857143,2618,29,"BOI","-","-","Please name all of the ways you could use this object. Keep in mind that one object can have many uses. Separate your responses with a comma.",NA,"y",4630,NA,NA,2208,3750,NA,NA,NA,"recipe",1
"j00670955","acfj4mex3w","Affordance Norms_South Alabama",1,34,"2022-10-24T16:46:26+00:00",7.2478559017181,1,"updated stim.csv","Version1.csv","Version 1","List 1","decor",NA,1,4.538461538,764,2,"BOI","-","-","Please name all of the ways you could use this object. Keep in mind that one object can have many uses. Separate your responses with a comma.",NA,"y",7118,NA,NA,2325,6613,NA,NA,NA,"halloween, christmas",1
"j00670955","acfj4mex3w","Affordance Norms_South Alabama",1,35,"2022-10-24T16:46:31+00:00",5.3249351978302,1,"updated stim.csv","Version1.csv","Version 1","List 1","bloomers",NA,21,4.4,243,22,"BOI","-","-","Please name all of the ways you could use this object. Keep in mind that one object can have many uses. Separate your responses with a comma.",NA,"y",5145,NA,NA,2941,4170,NA,NA,NA,"flowers",1
"j00670955","acfj4mex3w","Affordance Norms_South Alabama",1,36,"2022-10-24T16:46:35+00:00",4.6208069324493,1,"updated stim.csv","Version1.csv","Version 1","List 1","map",NA,17,5.481481481,1600,18,"BOI","-","-","Please name all of the ways you could use this object. Keep in mind that one object can have many uses. Separate your responses with a comma.",NA,"y",4490,NA,NA,3189,3566,NA,NA,NA,"gps",1
"j00670955","acfj4mex3w","Affordance Norms_South Alabama",1,37,"2022-10-24T16:46:40+00:00",4.7139620780945,1,"updated stim.csv","Version1.csv","Version 1","List 1","cayenne",NA,24,5.347826087,469,25,"BOI","-","-","Please name all of the ways you could use this object. Keep in mind that one object can have many uses. Separate your responses with a comma.",NA,"y",4542,NA,NA,2739,3575,NA,NA,NA,"season",1
"j00670955","acfj4mex3w","Affordance Norms_South Alabama",1,38,"2022-10-24T16:46:49+00:00",8.7547919750214,1,"updated stim.csv","Version1.csv","Version 1","List 1","seat",NA,2,6.416666667,2301,3,"BOI","-","-","Please name all of the ways you could use this object. Keep in mind that one object can have many uses. Separate your responses with a comma.",NA,"y",8541,NA,NA,3611,7020,NA,NA,NA,"desk,chair",1
"j00670955","acfj4mex3w","Affordance Norms_South Alabama",1,39,"2022-10-24T16:46:53+00:00",4.3843870162964,1,"updated stim.csv","Version1.csv","Version 1","List 1","ladle",NA,23,4.84,1448,24,"BOI","-","-","Please name all of the ways you could use this object. Keep in mind that one object can have many uses. Separate your responses with a comma.",NA,"y",4251,NA,NA,3637,4076,NA,NA,NA,"farm",1
"j00670955","acfj4mex3w","Affordance Norms_South Alabama",1,40,"2022-10-24T16:46:56+00:00",2.5628499984741,1,"updated stim.csv","Version1.csv","Version 1","List 1","massager",NA,22,NA,NA,23,"BOI","-","-","Please name all of the ways you could use this object. Keep in mind that one object can have many uses. Separate your responses with a comma.",NA,"y",2440,NA,NA,2053,2293,NA,NA,NA,"spa",1
"J00673035_JTJ","b7yofp3536","Affordance Norms_South Alabama",1,11,"2022-11-09T19:50:32+00:00",30.103291034698,51,"updated stim.csv","Version51.csv","Version 51","List 51","stepson",NA,1523,5.304347826,2530,1524,"BOI","-","-","Please name all of the ways you could use this object. Keep in mind that one object can have many uses. Separate your responses with a comma.",NA,"y",29884,NA,NA,9860,28759,NA,NA,NA,"hug, cherish, love, build up, teach, guide",1
"J00673035_JTJ","b7yofp3536","Affordance Norms_South Alabama",1,12,"2022-11-09T19:51:23+00:00",51.406942844391,51,"updated stim.csv","Version51.csv","Version 51","List 51","babe",NA,1508,4.555555556,110,1509,"BOI","-","-","Please name all of the ways you could use this object. Keep in mind that one object can have many uses. Separate your responses with a comma.",NA,"y",51191,NA,NA,2766,49815,NA,NA,NA,"love, hold, marry, take care of, grow old with, guide",1
"J00673035_JTJ","b7yofp3536","Affordance Norms_South Alabama",1,13,"2022-11-09T19:52:32+00:00",69.043523073196,51,"updated stim.csv","Version51.csv","Version 51","List 51","shaving",NA,1510,5.535714286,2324,1511,"BOI","-","-","Please name all of the ways you could use this object. Keep in mind that one object can have many uses. Separate your responses with a comma.",NA,"y",68823,NA,NA,17293,67641,NA,NA,NA,"wash it down the sink, this is not an object this is an action",1
"J00673035_JTJ","b7yofp3536","Affordance Norms_South Alabama",1,14,"2022-11-09T19:53:13+00:00",40.997029066086,51,"updated stim.csv","Version51.csv","Version 51","List 51","mayo",NA,1517,5.956521739,1627,1518,"BOI","-","-","Please name all of the ways you could use this object. Keep in mind that one object can have many uses. Separate your responses with a comma.",NA,"y",40776,NA,NA,3161,34763,NA,NA,NA,"eat it, throw it away, put it on sandwich, spread it out ",0.979
"J00673035_JTJ","b7yofp3536","Affordance Norms_South Alabama",1,15,"2022-11-09T19:53:56+00:00",43.233901023865,51,"updated stim.csv","Version51.csv","Version 51","List 51","sapphire",NA,1529,5.125,2241,1530,"BOI","-","-","Please name all of the ways you could use this object. Keep in mind that one object can have many uses. Separate your responses with a comma.",NA,"y",43001,NA,NA,1740,35480,NA,NA,NA,"sell it, crown in, put it in jewelry, own it, move it, cherish it, hold it, ",1
"J00673035_JTJ","b7yofp3536","Affordance Norms_South Alabama",1,16,"2022-11-09T19:54:34+00:00",37.876536846161,51,"updated stim.csv","Version51.csv","Version 51","List 51","deliverer",NA,1521,4.52173913,769,1522,"BOI","-","-","Please name all of the ways you could use this object. Keep in mind that one object can have many uses. Separate your responses with a comma.",NA,"y",37648,NA,NA,18670,36443,NA,NA,NA,"he could deliver your packages, deliver food, move items from one place to the next",1
"J00673035_JTJ","b7yofp3536","Affordance Norms_South Alabama",1,17,"2022-11-09T19:55:24+00:00",49.992948055267,51,"updated stim.csv","Version51.csv","Version 51","List 51","onion",NA,1525,5.476190476,1809,1526,"BOI","-","-","Please name all of the ways you could use this object. Keep in mind that one object can have many uses. Separate your responses with a comma.",NA,"y",49770,NA,NA,1560,13408,NA,NA,NA,"put it on a burger, chop it up, dice them, ",1
"J00673035_JTJ","b7yofp3536","Affordance Norms_South Alabama",1,18,"2022-11-09T19:56:26+00:00",61.71785402298,51,"updated stim.csv","Version51.csv","Version 51","List 51","girdle",NA,1507,5.52173913,1107,1508,"BOI","-","-","Please name all of the ways you could use this object. Keep in mind that one object can have many uses. Separate your responses with a comma.",NA,"y",61496,NA,NA,2377,60437,NA,NA,NA,"wear it, stretch it, wrap it around you, shorten it, fasten it",0.94
"J00673035_JTJ","b7yofp3536","Affordance Norms_South Alabama",1,19,"2022-11-09T19:56:49+00:00",23.07314991951,51,"updated stim.csv","Version51.csv","Version 51","List 51","cabdriver",NA,1504,5.12,387,1505,"BOI","-","-","Please name all of the ways you could use this object. Keep in mind that one object can have many uses. Separate your responses with a comma.",NA,"y",22847,NA,NA,6138,19892,NA,NA,NA,"deliver from point A to point B, pay them",1
"J00673035_JTJ","b7yofp3536","Affordance Norms_South Alabama",1,20,"2022-11-09T19:57:09+00:00",20.517606973648,51,"updated stim.csv","Version51.csv","Version 51","List 51","banjo",NA,1513,6.291666667,141,1514,"BOI","-","-","Please name all of the ways you could use this object. Keep in mind that one object can have many uses. Separate your responses with a comma.",NA,"y",20291,NA,NA,1461,15906,NA,NA,NA,"play it, strum it, harmonize, practice, ",1
"J00673035_JTJ","b7yofp3536","Affordance Norms_South Alabama",1,21,"2022-11-09T19:57:19+00:00",9.367115020752,51,"updated stim.csv","Version51.csv","Version 51","List 51","playwright",NA,1502,4.28,2005,1503,"BOI","-","-","Please name all of the ways you could use this object. Keep in mind that one object can have many uses. Separate your responses with a comma.",NA,"y",9208,NA,NA,4301,7431,NA,NA,NA,"make it write plays",1
"J00673035_JTJ","b7yofp3536","Affordance Norms_South Alabama",1,22,"2022-11-09T19:57:44+00:00",24.683750152588,51,"updated stim.csv","Version51.csv","Version 51","List 51","glass",NA,1530,6.12,1110,1531,"BOI","-","-","Please name all of the ways you could use this object. Keep in mind that one object can have many uses. Separate your responses with a comma.",NA,"y",24464,NA,NA,2262,23488,NA,NA,NA,"drink out of it, crack it, shatter it, cut with it, make it into a weapon",1
"J00673035_JTJ","b7yofp3536","Affordance Norms_South Alabama",1,23,"2022-11-09T19:57:57+00:00",13.825896024704,51,"updated stim.csv","Version51.csv","Version 51","List 51","wheelbarrow",NA,1528,5.5,2922,1529,"BOI","-","-","Please name all of the ways you could use this object. Keep in mind that one object can have many uses. Separate your responses with a comma.",NA,"y",13664,NA,NA,3439,12482,NA,NA,NA,"pick it up, roll it, move it, drink from it",1
"J00673035_JTJ","b7yofp3536","Affordance Norms_South Alabama",1,24,"2022-11-09T19:58:19+00:00",21.554726839066,51,"updated stim.csv","Version51.csv","Version 51","List 51","poet",NA,1518,4.565217391,2017,1519,"BOI","-","-","Please name all of the ways you could use this object. Keep in mind that one object can have many uses. Separate your responses with a comma.",NA,"y",21335,NA,NA,1305,19941,NA,NA,NA,"write, torture, ruin, create",1
"J00673035_JTJ","b7yofp3536","Affordance Norms_South Alabama",1,25,"2022-11-09T19:58:58+00:00",38.657794952393,51,"updated stim.csv","Version51.csv","Version 51","List 51","staple",NA,1515,5.32,2507,1516,"BOI","-","-","Please name all of the ways you could use this object. Keep in mind that one object can have many uses. Separate your responses with a comma.",NA,"y",38431,NA,NA,6288,11727,NA,NA,NA,"put two pieces of paper together, ",1
"J00673035_JTJ","b7yofp3536","Affordance Norms_South Alabama",1,26,"2022-11-09T19:59:23+00:00",25.464287996292,51,"updated stim.csv","Version51.csv","Version 51","List 51","candle",NA,1501,5.166666667,410,1502,"BOI","-","-","Please name all of the ways you could use this object. Keep in mind that one object can have many uses. Separate your responses with a comma.",NA,"y",25244,NA,NA,2879,21025,NA,NA,NA,"light it, burn it, throw it, squash it, ",1
"J00673035_JTJ","b7yofp3536","Affordance Norms_South Alabama",1,27,"2022-11-09T19:59:45+00:00",21.932166099548,51,"updated stim.csv","Version51.csv","Version 51","List 51","chili",NA,1519,5.291666667,523,1520,"BOI","-","-","Please name all of the ways you could use this object. Keep in mind that one object can have many uses. Separate your responses with a comma.",NA,"y",21710,NA,NA,1105,19504,NA,NA,NA,"eat it, throw it, boil it, drop it, suck it, chew it, swallow it, ",1
"J00673035_JTJ","b7yofp3536","Affordance Norms_South Alabama",1,28,"2022-11-09T20:00:11+00:00",25.909544944763,51,"updated stim.csv","Version51.csv","Version 51","List 51","policeman",NA,1511,5.428571429,2022,1512,"BOI","-","-","Please name all of the ways you could use this object. Keep in mind that one object can have many uses. Separate your responses with a comma.",NA,"y",25682,NA,NA,2343,23313,NA,NA,NA,"respect it, disrespect it, troll it, listen to it, laugh at it, run from it",1
"J00673035_JTJ","b7yofp3536","Affordance Norms_South Alabama",1,29,"2022-11-09T20:00:32+00:00",21.31737613678,51,"updated stim.csv","Version51.csv","Version 51","List 51","key",NA,1527,6.28,1411,1528,"BOI","-","-","Please name all of the ways you could use this object. Keep in mind that one object can have many uses. Separate your responses with a comma.",NA,"y",21093,NA,NA,1501,18766,NA,NA,NA,"twist it, pull it, poke it, throw it, insert it",1
"J00673035_JTJ","b7yofp3536","Affordance Norms_South Alabama",1,30,"2022-11-09T20:01:25+00:00",53.246837854385,51,"updated stim.csv","Version51.csv","Version 51","List 51","scapula",NA,1524,4.684210526,2265,1525,"BOI","-","-","Please name all of the ways you could use this object. Keep in mind that one object can have many uses. Separate your responses with a comma.",NA,"y",52992,NA,NA,38488,51768,NA,NA,NA,"turn it into a weapon, beat it, hurt it, break it, shatter it",0.753
"J00673035_JTJ","b7yofp3536","Affordance Norms_South Alabama",1,31,"2022-11-09T20:01:45+00:00",19.35795211792,51,"updated stim.csv","Version51.csv","Version 51","List 51","featherbed",NA,1516,5.434782609,957,1517,"BOI","-","-","Please name all of the ways you could use this object. Keep in mind that one object can have many uses. Separate your responses with a comma.",NA,"y",19120,NA,NA,1485,10731,NA,NA,NA,"lay on it, enjoy it, relax with it, ",1
"J00673035_JTJ","b7yofp3536","Affordance Norms_South Alabama",1,32,"2022-11-09T20:02:48+00:00",63.640693902969,51,"updated stim.csv","Version51.csv","Version 51","List 51","yarn",NA,1505,6.115384615,2991,1506,"BOI","-","-","Please name all of the ways you could use this object. Keep in mind that one object can have many uses. Separate your responses with a comma.",NA,"y",63417,NA,NA,2364,62435,NA,NA,NA,"crochet, create, art, knead",1
"J00673035_JTJ","b7yofp3536","Affordance Norms_South Alabama",1,33,"2022-11-09T20:02:59+00:00",10.49723315239,51,"updated stim.csv","Version51.csv","Version 51","List 51","proprietor",NA,1520,4.884615385,2076,1521,"BOI","-","-","Please name all of the ways you could use this object. Keep in mind that one object can have many uses. Separate your responses with a comma.",NA,"y",10339,NA,NA,4185,8766,NA,NA,NA,"i dont even know what this is",1
"J00673035_JTJ","b7yofp3536","Affordance Norms_South Alabama",1,34,"2022-11-09T20:03:23+00:00",23.815799951553,51,"updated stim.csv","Version51.csv","Version 51","List 51","cider",NA,1509,4.958333333,541,1510,"BOI","-","-","Please name all of the ways you could use this object. Keep in mind that one object can have many uses. Separate your responses with a comma.",NA,"y",23601,NA,NA,1857,22491,NA,NA,NA,"drink it, eat it, pour it",1
"J00673035_JTJ","b7yofp3536","Affordance Norms_South Alabama",1,35,"2022-11-09T20:03:44+00:00",21.321588993073,51,"updated stim.csv","Version51.csv","Version 51","List 51","sofa",NA,1526,6.608695652,2443,1527,"BOI","-","-","Please name all of the ways you could use this object. Keep in mind that one object can have many uses. Separate your responses with a comma.",NA,"y",21098,NA,NA,8208,19734,NA,NA,NA,"sit on it, lay on it, sleep on it, work on it, relax on it, ",1
"J00673035_JTJ","b7yofp3536","Affordance Norms_South Alabama",1,36,"2022-11-09T20:04:04+00:00",20.397783994675,51,"updated stim.csv","Version51.csv","Version 51","List 51","xylophone",NA,1503,5.821428571,2986,1504,"BOI","-","-","Please name all of the ways you could use this object. Keep in mind that one object can have many uses. Separate your responses with a comma.",NA,"y",20175,NA,NA,1253,18369,NA,NA,NA,"play it, throw it, strap it up, march with it",1
"J00673035_JTJ","b7yofp3536","Affordance Norms_South Alabama",1,37,"2022-11-09T20:04:33+00:00",28.91344499588,51,"updated stim.csv","Version51.csv","Version 51","List 51","muffin",NA,1522,5.875,1711,1523,"BOI","-","-","Please name all of the ways you could use this object. Keep in mind that one object can have many uses. Separate your responses with a comma.",NA,"y",28688,NA,NA,1058,27158,NA,NA,NA,"eat it, enjoy it, pick it apart, throw it, bake it, create it, design it",1
"J00673035_JTJ","b7yofp3536","Affordance Norms_South Alabama",1,38,"2022-11-09T20:05:35+00:00",61.328278064728,51,"updated stim.csv","Version51.csv","Version 51","List 51","infant",NA,1512,6.038461538,1353,1513,"BOI","-","-","Please name all of the ways you could use this object. Keep in mind that one object can have many uses. Separate your responses with a comma.",NA,"y",61105,NA,NA,5769,14912,NA,NA,NA,"set it down, raise it, watch it grow, ",1
"J00673035_JTJ","b7yofp3536","Affordance Norms_South Alabama",1,39,"2022-11-09T20:05:56+00:00",21.633194923401,51,"updated stim.csv","Version51.csv","Version 51","List 51","urinal",NA,1514,5.666666667,2828,1515,"BOI","-","-","Please name all of the ways you could use this object. Keep in mind that one object can have many uses. Separate your responses with a comma.",NA,"y",21411,NA,NA,1563,10268,NA,NA,NA,"piss on it, flush it, watch it, stand over it, ",1
"J00673035_JTJ","b7yofp3536","Affordance Norms_South Alabama",1,40,"2022-11-09T20:06:11+00:00",15.047729969025,51,"updated stim.csv","Version51.csv","Version 51","List 51","blackboard",NA,1506,5.392857143,228,1507,"BOI","-","-","Please name all of the ways you could use this object. Keep in mind that one object can have many uses. Separate your responses with a comma.",NA,"y",14870,NA,NA,3608,11047,NA,NA,NA,"write on it, erase it, ",1
"j00686630_jj","iacrqpeo0n","Affordance Norms_South Alabama",1,11,"2022-11-03T17:27:01+00:00",33.339005947113,32,"updated stim.csv","Version32.csv","Version 32","List 32","balm",NA,952,4.583333333,134,953,"BOI","-","-","Please name all of the ways you could use this object. Keep in mind that one object can have many uses. Separate your responses with a comma.",NA,"y",33079,NA,NA,31028,32451,NA,NA,NA,"sense",1
"j00686630_jj","iacrqpeo0n","Affordance Norms_South Alabama",1,12,"2022-11-03T17:27:14+00:00",12.798295021057,32,"updated stim.csv","Version32.csv","Version 32","List 32","cloverleaf",NA,945,4.565217391,575,946,"BOI","-","-","Please name all of the ways you could use this object. Keep in mind that one object can have many uses. Separate your responses with a comma.",NA,"y",12551,NA,NA,11388,12280,NA,NA,NA,"fall",1
"j00686630_jj","iacrqpeo0n","Affordance Norms_South Alabama",1,13,"2022-11-03T17:27:18+00:00",4.1421349048615,32,"updated stim.csv","Version32.csv","Version 32","List 32","seed",NA,943,5.185185185,2308,944,"BOI","-","-","Please name all of the ways you could use this object. Keep in mind that one object can have many uses. Separate your responses with a comma.",NA,"y",3928,NA,NA,1574,3026,NA,NA,NA,"plant",1
"j00686630_jj","iacrqpeo0n","Affordance Norms_South Alabama",1,14,"2022-11-03T17:27:22+00:00",3.1000061035156,32,"updated stim.csv","Version32.csv","Version 32","List 32","ash",NA,937,4.333333333,81,938,"BOI","-","-","Please name all of the ways you could use this object. Keep in mind that one object can have many uses. Separate your responses with a comma.",NA,"y",2896,NA,NA,1548,2625,NA,NA,NA,"dump",1
"j00686630_jj","iacrqpeo0n","Affordance Norms_South Alabama",1,15,"2022-11-03T17:27:26+00:00",4.3822739124298,32,"updated stim.csv","Version32.csv","Version 32","List 32","hairnet",NA,940,5.458333333,1214,941,"BOI","-","-","Please name all of the ways you could use this object. Keep in mind that one object can have many uses. Separate your responses with a comma.",NA,"y",4047,NA,NA,1463,3431,NA,NA,NA,"wear",1
"j00686630_jj","iacrqpeo0n","Affordance Norms_South Alabama",1,16,"2022-11-03T17:27:30+00:00",4.003674030304,32,"updated stim.csv","Version32.csv","Version 32","List 32","powerboat",NA,960,5.782608696,2056,961,"BOI","-","-","Please name all of the ways you could use this object. Keep in mind that one object can have many uses. Separate your responses with a comma.",NA,"y",3787,NA,NA,2531,3287,NA,NA,NA,"steer",1
"j00686630_jj","iacrqpeo0n","Affordance Norms_South Alabama",1,17,"2022-11-03T17:27:33+00:00",2.7835290431976,32,"updated stim.csv","Version32.csv","Version 32","List 32","pumice",NA,938,4.857142857,2095,939,"BOI","-","-","Please name all of the ways you could use this object. Keep in mind that one object can have many uses. Separate your responses with a comma.",NA,"y",2551,NA,NA,1674,2121,NA,NA,NA,"eat",1
"j00686630_jj","iacrqpeo0n","Affordance Norms_South Alabama",1,18,"2022-11-03T17:27:36+00:00",3.2440309524536,32,"updated stim.csv","Version32.csv","Version 32","List 32","sprinter",NA,936,4.565217391,2490,937,"BOI","-","-","Please name all of the ways you could use this object. Keep in mind that one object can have many uses. Separate your responses with a comma.",NA,"y",3004,NA,NA,1703,2302,NA,NA,NA,"run",1
"j00686630_jj","iacrqpeo0n","Affordance Norms_South Alabama",1,19,"2022-11-03T17:27:40+00:00",4.0325281620026,32,"updated stim.csv","Version32.csv","Version 32","List 32","rotisserie",NA,956,4.791666667,2198,957,"BOI","-","-","Please name all of the ways you could use this object. Keep in mind that one object can have many uses. Separate your responses with a comma.",NA,"y",3809,NA,NA,1615,2753,NA,NA,NA,"cook",1
"j00686630_jj","iacrqpeo0n","Affordance Norms_South Alabama",1,20,"2022-11-03T17:27:45+00:00",4.8806807994843,32,"updated stim.csv","Version32.csv","Version 32","List 32","songbook",NA,955,5.76,2452,956,"BOI","-","-","Please name all of the ways you could use this object. Keep in mind that one object can have many uses. Separate your responses with a comma.",NA,"y",4212,NA,NA,2429,3534,NA,NA,NA,"write",1
"j00686630_jj","iacrqpeo0n","Affordance Norms_South Alabama",1,21,"2022-11-03T17:27:50+00:00",4.7206721305847,32,"updated stim.csv","Version32.csv","Version 32","List 32","lodging",NA,933,4.620689655,1540,934,"BOI","-","-","Please name all of the ways you could use this object. Keep in mind that one object can have many uses. Separate your responses with a comma.",NA,"y",4556,NA,NA,2559,4126,NA,NA,NA,"lodge",1
"j00686630_jj","iacrqpeo0n","Affordance Norms_South Alabama",1,22,"2022-11-03T17:28:01+00:00",11.511379957199,32,"updated stim.csv","Version32.csv","Version 32","List 32","tin",NA,941,4.727272727,2701,942,"BOI","-","-","Please name all of the ways you could use this object. Keep in mind that one object can have many uses. Separate your responses with a comma.",NA,"y",11282,NA,NA,3112,10949,NA,NA,NA,"contain",1
"j00686630_jj","iacrqpeo0n","Affordance Norms_South Alabama",1,23,"2022-11-03T17:28:06+00:00",4.4311370849609,32,"updated stim.csv","Version32.csv","Version 32","List 32","fan",NA,939,5.72,945,940,"BOI","-","-","Please name all of the ways you could use this object. Keep in mind that one object can have many uses. Separate your responses with a comma.",NA,"y",3913,NA,NA,2161,3506,NA,NA,NA,"cooling",1
"j00686630_jj","iacrqpeo0n","Affordance Norms_South Alabama",1,24,"2022-11-03T17:28:13+00:00",7.1158828735352,32,"updated stim.csv","Version32.csv","Version 32","List 32","stairwell",NA,950,5.038461538,2502,951,"BOI","-","-","Please name all of the ways you could use this object. Keep in mind that one object can have many uses. Separate your responses with a comma.",NA,"y",6625,NA,NA,3916,6298,NA,NA,NA,"walk up",1
"j00686630_jj","iacrqpeo0n","Affordance Norms_South Alabama",1,25,"2022-11-03T17:28:16+00:00",3.7153291702271,32,"updated stim.csv","Version32.csv","Version 32","List 32","machinery",NA,954,5.416666667,1568,955,"BOI","-","-","Please name all of the ways you could use this object. Keep in mind that one object can have many uses. Separate your responses with a comma.",NA,"y",3503,NA,NA,2561,3073,NA,NA,NA,"use",1
"j00686630_jj","iacrqpeo0n","Affordance Norms_South Alabama",1,26,"2022-11-03T17:28:23+00:00",6.4955949783325,32,"updated stim.csv","Version32.csv","Version 32","List 32","artifact",NA,942,4.416666667,79,943,"BOI","-","-","Please name all of the ways you could use this object. Keep in mind that one object can have many uses. Separate your responses with a comma.",NA,"y",6280,NA,NA,3151,4860,NA,NA,NA,"read",1
