"Username","ID","ExperimentName","Session","Trial","Date","TimeDif","Condition.Number","Stimuli.File","Order.File","Condition.Description","Condition.Notes","Stimuli.Cue","Stimuli.Answer","Stimuli.Shuffle","Stimuli.Stimuli.Notes","Stimuli.Value","Procedure.Item","Procedure.Trial.Type","Procedure.Max.Time","Procedure.Min.Time","Procedure.Text","Procedure.Procedure.Notes","Procedure.Shuffle","Response.RT","Response.Response","Response.Accuracy","Response.RTfirst","Response.RTlast","Response.strictAcc","Response.lenientAcc","Response.focus","Response.JOL","Response.Focus"
"000719536rln","ahjq2jlmxz","Affordance Norms_South Alabama",1,11,"2022-11-22T22:29:44+00:00",39.998334169388,32,"updated stim.csv","Version32.csv","Version 32","List 32","fan",NA,939,5.72,945,940,"BOI","-","-","Please name all of the ways you could use this object. Keep in mind that one object can have many uses. Separate your responses with a comma.",NA,"y",39202,NA,NA,11277,37009,NA,NA,NA,"use, turn on, turn off, buy, sale, borrow",1
"000719536rln","ahjq2jlmxz","Affordance Norms_South Alabama",1,12,"2022-11-22T22:30:15+00:00",31.539463996887,32,"updated stim.csv","Version32.csv","Version 32","List 32","ash",NA,937,4.333333333,81,938,"BOI","-","-","Please name all of the ways you could use this object. Keep in mind that one object can have many uses. Separate your responses with a comma.",NA,"y",31035,NA,NA,3819,19671,NA,NA,NA,"dump, blow, store",1
"000719536rln","ahjq2jlmxz","Affordance Norms_South Alabama",1,13,"2022-11-22T22:30:56+00:00",41.00180888176,32,"updated stim.csv","Version32.csv","Version 32","List 32","pocketknife",NA,932,5.692307692,2015,933,"BOI","-","-","Please name all of the ways you could use this object. Keep in mind that one object can have many uses. Separate your responses with a comma.",NA,"y",40432,NA,NA,2353,35402,NA,NA,NA,"use, fold, sale, give, sharpen, gift, buy",1
"000719536rln","ahjq2jlmxz","Affordance Norms_South Alabama",1,14,"2022-11-22T22:31:30+00:00",34.205919027328,32,"updated stim.csv","Version32.csv","Version 32","List 32","tin",NA,941,4.727272727,2701,942,"BOI","-","-","Please name all of the ways you could use this object. Keep in mind that one object can have many uses. Separate your responses with a comma.",NA,"y",33509,NA,NA,4097,31585,NA,NA,NA,"buy, store, sale, use, storage",1
"000719536rln","ahjq2jlmxz","Affordance Norms_South Alabama",1,15,"2022-11-22T22:31:56+00:00",25.783328056335,32,"updated stim.csv","Version32.csv","Version 32","List 32","songbook",NA,955,5.76,2452,956,"BOI","-","-","Please name all of the ways you could use this object. Keep in mind that one object can have many uses. Separate your responses with a comma.",NA,"y",24913,NA,NA,4489,23461,NA,NA,NA,"buy, sale, use, read, play, borrow",1
"000719536rln","ahjq2jlmxz","Affordance Norms_South Alabama",1,16,"2022-11-22T22:32:36+00:00",39.662078857422,32,"updated stim.csv","Version32.csv","Version 32","List 32","skillet",NA,949,5.409090909,2398,950,"BOI","-","-","Please name all of the ways you could use this object. Keep in mind that one object can have many uses. Separate your responses with a comma.",NA,"y",38760,NA,NA,1998,33892,NA,NA,NA,"cook, grill, bake, fry, buy, sale ",1
"000719536rln","ahjq2jlmxz","Affordance Norms_South Alabama",1,17,"2022-11-22T22:33:11+00:00",34.99344420433,32,"updated stim.csv","Version32.csv","Version 32","List 32","glassblower",NA,946,4.52173913,1111,947,"BOI","-","-","Please name all of the ways you could use this object. Keep in mind that one object can have many uses. Separate your responses with a comma.",NA,"y",34406,NA,NA,8958,16977,NA,NA,NA,"create, sale, buy",1
"000719536rln","ahjq2jlmxz","Affordance Norms_South Alabama",1,18,"2022-11-22T22:34:40+00:00",89.706008911133,32,"updated stim.csv","Version32.csv","Version 32","List 32","cloverleaf",NA,945,4.565217391,575,946,"BOI","-","-","Please name all of the ways you could use this object. Keep in mind that one object can have many uses. Separate your responses with a comma.",NA,"y",88993,NA,NA,45687,63720,NA,NA,NA,"wish, find, feed animals",1
"000719536rln","ahjq2jlmxz","Affordance Norms_South Alabama",1,19,"2022-11-22T22:35:15+00:00",34.739728927612,32,"updated stim.csv","Version32.csv","Version 32","List 32","hairnet",NA,940,5.458333333,1214,941,"BOI","-","-","Please name all of the ways you could use this object. Keep in mind that one object can have many uses. Separate your responses with a comma.",NA,"y",34180,NA,NA,7738,16428,NA,NA,NA,"use, control hair, ",1
"000719536rln","ahjq2jlmxz","Affordance Norms_South Alabama",1,20,"2022-11-22T22:37:04+00:00",108.53474402428,32,"updated stim.csv","Version32.csv","Version 32","List 32","tinplate",NA,934,4.869565217,2704,935,"BOI","-","-","Please name all of the ways you could use this object. Keep in mind that one object can have many uses. Separate your responses with a comma.",NA,"y",107863,NA,NA,56783,105206,NA,NA,NA,"to make cans for food, drink, machines",1
"000719536rln","ahjq2jlmxz","Affordance Norms_South Alabama",1,21,"2022-11-22T22:37:37+00:00",33.001513957977,32,"updated stim.csv","Version32.csv","Version 32","List 32","bead",NA,951,5.545454545,178,952,"BOI","-","-","Please name all of the ways you could use this object. Keep in mind that one object can have many uses. Separate your responses with a comma.",NA,"y",32347,NA,NA,6219,29590,NA,NA,NA,"creating jewelry, making decorations",1
"000719536rln","ahjq2jlmxz","Affordance Norms_South Alabama",1,22,"2022-11-22T22:38:32+00:00",55.742452144623,32,"updated stim.csv","Version32.csv","Version 32","List 32","sprinter",NA,936,4.565217391,2490,937,"BOI","-","-","Please name all of the ways you could use this object. Keep in mind that one object can have many uses. Separate your responses with a comma.",NA,"y",54666,NA,NA,41735,51994,NA,NA,NA,"run, racing",1
"000719536rln","ahjq2jlmxz","Affordance Norms_South Alabama",1,23,"2022-11-22T22:39:33+00:00",60.592636823654,32,"updated stim.csv","Version32.csv","Version 32","List 32","bible",NA,931,5.826086957,208,932,"BOI","-","-","Please name all of the ways you could use this object. Keep in mind that one object can have many uses. Separate your responses with a comma.",NA,"y",59202,NA,NA,4655,57596,NA,NA,NA,"study, read, worship",1
"000719536rln","ahjq2jlmxz","Affordance Norms_South Alabama",1,24,"2022-11-22T22:41:21+00:00",107.75983715057,32,"updated stim.csv","Version32.csv","Version 32","List 32","machinery",NA,954,5.416666667,1568,955,"BOI","-","-","Please name all of the ways you could use this object. Keep in mind that one object can have many uses. Separate your responses with a comma.",NA,"y",100501,NA,NA,9136,98133,NA,NA,NA,"make cars, operate, make merchandise",1
"000719536rln","ahjq2jlmxz","Affordance Norms_South Alabama",1,25,"2022-11-22T22:41:50+00:00",29.270989894867,32,"updated stim.csv","Version32.csv","Version 32","List 32","artifact",NA,942,4.416666667,79,943,"BOI","-","-","Please name all of the ways you could use this object. Keep in mind that one object can have many uses. Separate your responses with a comma.",NA,"y",26382,NA,NA,4128,13338,NA,NA,NA,"study, buy, sale",1
"000719536rln","ahjq2jlmxz","Affordance Norms_South Alabama",1,26,"2022-11-22T22:42:27+00:00",36.532375097275,32,"updated stim.csv","Version32.csv","Version 32","List 32","summerhouse",NA,953,5,2584,954,"BOI","-","-","Please name all of the ways you could use this object. Keep in mind that one object can have many uses. Separate your responses with a comma.",NA,"y",34078,NA,NA,4134,18678,NA,NA,NA,"vacation, retreat, sale, buy",1
"000719536rln","ahjq2jlmxz","Affordance Norms_South Alabama",1,27,"2022-11-22T22:43:03+00:00",35.939454078674,32,"updated stim.csv","Version32.csv","Version 32","List 32","powerboat",NA,960,5.782608696,2056,961,"BOI","-","-","Please name all of the ways you could use this object. Keep in mind that one object can have many uses. Separate your responses with a comma.",NA,"y",30915,NA,NA,2530,20610,NA,NA,NA,"use, buy, sale, operate, ski",1
"000719536rln","ahjq2jlmxz","Affordance Norms_South Alabama",1,28,"2022-11-22T22:43:46+00:00",43.267172813416,32,"updated stim.csv","Version32.csv","Version 32","List 32","stretcher",NA,947,5.08,2567,948,"BOI","-","-","Please name all of the ways you could use this object. Keep in mind that one object can have many uses. Separate your responses with a comma.",NA,"y",41350,NA,NA,7173,39293,NA,NA,NA,"carry patient, hospital use, transport",1
"000719536rln","ahjq2jlmxz","Affordance Norms_South Alabama",1,29,"2022-11-22T22:44:11+00:00",25.023702144623,32,"updated stim.csv","Version32.csv","Version 32","List 32","stairwell",NA,950,5.038461538,2502,951,"BOI","-","-","Please name all of the ways you could use this object. Keep in mind that one object can have many uses. Separate your responses with a comma.",NA,"y",21510,NA,NA,2445,19510,NA,NA,NA,"climb up, climb down, move between floors",1
"000719536rln","ahjq2jlmxz","Affordance Norms_South Alabama",1,30,"2022-11-22T22:44:35+00:00",24.159945011139,32,"updated stim.csv","Version32.csv","Version 32","List 32","costume",NA,935,6.28,657,936,"BOI","-","-","Please name all of the ways you could use this object. Keep in mind that one object can have many uses. Separate your responses with a comma.",NA,"y",21750,NA,NA,3500,19646,NA,NA,NA,"dress up, pretend, fun, party",1
"000719536rln","ahjq2jlmxz","Affordance Norms_South Alabama",1,31,"2022-11-22T22:44:55+00:00",20.130664825439,32,"updated stim.csv","Version32.csv","Version 32","List 32","dessert",NA,958,5.695652174,781,959,"BOI","-","-","Please name all of the ways you could use this object. Keep in mind that one object can have many uses. Separate your responses with a comma.",NA,"y",18971,NA,NA,3107,16888,NA,NA,NA,"eat, create, make, sale, buy",1
"000719536rln","ahjq2jlmxz","Affordance Norms_South Alabama",1,32,"2022-11-22T22:59:05+00:00",849.51073002815,32,"updated stim.csv","Version32.csv","Version 32","List 32","sidewalk",NA,959,5.291666667,2377,960,"BOI","-","-","Please name all of the ways you could use this object. Keep in mind that one object can have many uses. Separate your responses with a comma.",NA,"y",89965,NA,NA,77409,87278,NA,NA,NA,"use, destroy, walk on",1
"00722362Mbh","goxaqat63u","Affordance Norms_South Alabama",1,11,"2022-11-15T23:57:02+00:00",78.002119064331,86,"updated stim.csv","Version86.csv","Version 86","List 86","navel",NA,2570,5,1737,2571,"BOI","-","-","Please name all of the ways you could use this object. Keep in mind that one object can have many uses. Separate your responses with a comma.",NA,"y",77653,NA,NA,46612,67087,NA,NA,NA,"eat, tickle",0.876
"00722362Mbh","goxaqat63u","Affordance Norms_South Alabama",1,12,"2022-11-15T23:58:23+00:00",81.004700899124,86,"updated stim.csv","Version86.csv","Version 86","List 86","wax",NA,2573,5.291666667,2912,2574,"BOI","-","-","Please name all of the ways you could use this object. Keep in mind that one object can have many uses. Separate your responses with a comma.",NA,"y",80613,NA,NA,8945,73547,NA,NA,NA,"make candles, remove hair, polish things ",0.919
"00722362Mbh","goxaqat63u","Affordance Norms_South Alabama",1,13,"2022-11-15T23:58:49+00:00",25.631578207016,86,"updated stim.csv","Version86.csv","Version 86","List 86","taxpayer",NA,2571,4.583333333,2640,2572,"BOI","-","-","Please name all of the ways you could use this object. Keep in mind that one object can have many uses. Separate your responses with a comma.",NA,"y",25429,NA,NA,5938,22517,NA,NA,NA,"get money, help communities",1
"00722362Mbh","goxaqat63u","Affordance Norms_South Alabama",1,14,"2022-11-15T23:59:01+00:00",12.017226934433,86,"updated stim.csv","Version86.csv","Version 86","List 86","assassin",NA,2579,4.32,88,2580,"BOI","-","-","Please name all of the ways you could use this object. Keep in mind that one object can have many uses. Separate your responses with a comma.",NA,"y",11787,NA,NA,1562,10219,NA,NA,NA,"kill people, gain information",1
"00722362Mbh","goxaqat63u","Affordance Norms_South Alabama",1,15,"2022-11-15T23:59:51+00:00",50.611165046692,86,"updated stim.csv","Version86.csv","Version 86","List 86","cryptographer",NA,2575,4.583333333,719,2576,"BOI","-","-","Please name all of the ways you could use this object. Keep in mind that one object can have many uses. Separate your responses with a comma.",NA,"y",50296,NA,NA,5796,46668,NA,NA,NA,"keep information safe",0.897
"00722362Mbh","goxaqat63u","Affordance Norms_South Alabama",1,16,"2022-11-16T00:00:49+00:00",58.267468929291,86,"updated stim.csv","Version86.csv","Version 86","List 86","chip",NA,2563,5.181818182,529,2564,"BOI","-","-","Please name all of the ways you could use this object. Keep in mind that one object can have many uses. Separate your responses with a comma.",NA,"y",58051,NA,NA,3848,55548,NA,NA,NA,"eat, make noise",1
"00722362Mbh","goxaqat63u","Affordance Norms_South Alabama",1,17,"2022-11-16T00:01:24+00:00",34.976696968079,86,"updated stim.csv","Version86.csv","Version 86","List 86","gravestone",NA,2564,4.875,1165,2565,"BOI","-","-","Please name all of the ways you could use this object. Keep in mind that one object can have many uses. Separate your responses with a comma.",NA,"y",34752,NA,NA,4175,33318,NA,NA,NA,"remember people, sit on, decorate, mourn",1
"00722362Mbh","goxaqat63u","Affordance Norms_South Alabama",1,18,"2022-11-16T00:01:54+00:00",29.184338092804,86,"updated stim.csv","Version86.csv","Version 86","List 86","sapling",NA,2555,4.304347826,2240,2556,"BOI","-","-","Please name all of the ways you could use this object. Keep in mind that one object can have many uses. Separate your responses with a comma.",NA,"y",28889,NA,NA,4281,19837,NA,NA,NA,"grow fruits, grow trees, feed animals",1
"00722362Mbh","goxaqat63u","Affordance Norms_South Alabama",1,19,"2022-11-16T00:02:23+00:00",29.229068994522,86,"updated stim.csv","Version86.csv","Version 86","List 86","snowman",NA,2553,4.916666667,2435,2554,"BOI","-","-","Please name all of the ways you could use this object. Keep in mind that one object can have many uses. Separate your responses with a comma.",NA,"y",28909,NA,NA,3562,14555,NA,NA,NA,"make memories, decorate",1
"00722362Mbh","goxaqat63u","Affordance Norms_South Alabama",1,20,"2022-11-16T00:03:00+00:00",36.939626932144,86,"updated stim.csv","Version86.csv","Version 86","List 86","glitter",NA,2578,4.434782609,1115,2579,"BOI","-","-","Please name all of the ways you could use this object. Keep in mind that one object can have many uses. Separate your responses with a comma.",NA,"y",35880,NA,NA,2486,33984,NA,NA,NA,"arts and crafts, make a mess, eat (edible), decorate",1
"00722362Mbh","goxaqat63u","Affordance Norms_South Alabama",1,21,"2022-11-16T00:03:32+00:00",32.321955919266,86,"updated stim.csv","Version86.csv","Version 86","List 86","periscope",NA,2557,4.653846154,1927,2558,"BOI","-","-","Please name all of the ways you could use this object. Keep in mind that one object can have many uses. Separate your responses with a comma.",NA,"y",32124,NA,NA,30432,30776,NA,NA,NA,"see",0.667
"00722362Mbh","goxaqat63u","Affordance Norms_South Alabama",1,22,"2022-11-16T00:03:49+00:00",16.6511759758,86,"updated stim.csv","Version86.csv","Version 86","List 86","tapioca",NA,2552,4.454545455,2634,2553,"BOI","-","-","Please name all of the ways you could use this object. Keep in mind that one object can have many uses. Separate your responses with a comma.",NA,"y",16503,NA,NA,10513,14750,NA,NA,NA,"drink, eat",0.707
"00722362Mbh","goxaqat63u","Affordance Norms_South Alabama",1,23,"2022-11-16T00:04:22+00:00",32.969179153442,86,"updated stim.csv","Version86.csv","Version 86","List 86","soldier",NA,2558,4.56,2446,2559,"BOI","-","-","Please name all of the ways you could use this object. Keep in mind that one object can have many uses. Separate your responses with a comma.",NA,"y",32708,NA,NA,2043,16852,NA,NA,NA,"fight, love, support",1
"00722362Mbh","goxaqat63u","Affordance Norms_South Alabama",1,24,"2022-11-16T00:04:54+00:00",32.041827917099,86,"updated stim.csv","Version86.csv","Version 86","List 86","plaything",NA,2560,4.92,2004,2561,"BOI","-","-","Please name all of the ways you could use this object. Keep in mind that one object can have many uses. Separate your responses with a comma.",NA,"y",31764,NA,NA,3933,30027,NA,NA,NA,"play, entertainment",0.854
"00722362Mbh","goxaqat63u","Affordance Norms_South Alabama",1,25,"2022-11-16T00:05:12+00:00",17.912203073502,86,"updated stim.csv","Version86.csv","Version 86","List 86","alcohol",NA,2568,5.833333333,24,2569,"BOI","-","-","Please name all of the ways you could use this object. Keep in mind that one object can have many uses. Separate your responses with a comma.",NA,"y",17802,NA,NA,2712,16632,NA,NA,NA,"fun, let loose, forget",1
"00722362Mbh","goxaqat63u","Affordance Norms_South Alabama",1,26,"2022-11-16T00:05:35+00:00",23.22330904007,86,"updated stim.csv","Version86.csv","Version 86","List 86","wrench",NA,2565,6.181818182,2980,2566,"BOI","-","-","Please name all of the ways you could use this object. Keep in mind that one object can have many uses. Separate your responses with a comma.",NA,"y",22812,NA,NA,5275,17576,NA,NA,NA,"fix things",1
"00722362Mbh","goxaqat63u","Affordance Norms_South Alabama",1,27,"2022-11-16T00:06:06+00:00",31.513964891434,86,"updated stim.csv","Version86.csv","Version 86","List 86","rainfall",NA,2577,4.88,2132,2578,"BOI","-","-","Please name all of the ways you could use this object. Keep in mind that one object can have many uses. Separate your responses with a comma.",NA,"y",31231,NA,NA,2041,29651,NA,NA,NA,"water supply, fill things, help animals, help gardens, put out natural fires",1
"00722362Mbh","goxaqat63u","Affordance Norms_South Alabama",1,28,"2022-11-16T00:06:30+00:00",23.476311922073,86,"updated stim.csv","Version86.csv","Version 86","List 86","pug",NA,2572,5.965517241,2090,2573,"BOI","-","-","Please name all of the ways you could use this object. Keep in mind that one object can have many uses. Separate your responses with a comma.",NA,"y",23148,NA,NA,2729,15515,NA,NA,NA,"cuddle, love, entertainment",1
"00722362Mbh","goxaqat63u","Affordance Norms_South Alabama",1,29,"2022-11-16T00:06:47+00:00",17.246726036072,86,"updated stim.csv","Version86.csv","Version 86","List 86","searchlight",NA,2562,4.391304348,2298,2563,"BOI","-","-","Please name all of the ways you could use this object. Keep in mind that one object can have many uses. Separate your responses with a comma.",NA,"y",17028,NA,NA,12627,15431,NA,NA,NA,"see, save people",0.833
"00722362Mbh","goxaqat63u","Affordance Norms_South Alabama",1,30,"2022-11-16T00:07:12+00:00",25.147840023041,86,"updated stim.csv","Version86.csv","Version 86","List 86","barn",NA,2569,5.173913043,151,2570,"BOI","-","-","Please name all of the ways you could use this object. Keep in mind that one object can have many uses. Separate your responses with a comma.",NA,"y",24864,NA,NA,1620,23550,NA,NA,NA,"hold animals, hold feed, keep things dry, storage",1
"00722362Mbh","goxaqat63u","Affordance Norms_South Alabama",1,31,"2022-11-16T00:07:35+00:00",22.574496030807,86,"updated stim.csv","Version86.csv","Version 86","List 86","toastmaster",NA,2561,4.652173913,2711,2562,"BOI","-","-","Please name all of the ways you could use this object. Keep in mind that one object can have many uses. Separate your responses with a comma.",NA,"y",22305,NA,NA,18325,20575,NA,NA,NA,"entertainment",0.645
"00722362Mbh","goxaqat63u","Affordance Norms_South Alabama",1,32,"2022-11-16T00:08:09+00:00",33.680448055267,86,"updated stim.csv","Version86.csv","Version 86","List 86","tumbler",NA,2551,5.136363636,2795,2552,"BOI","-","-","Please name all of the ways you could use this object. Keep in mind that one object can have many uses. Separate your responses with a comma.",NA,"y",33426,NA,NA,3707,29979,NA,NA,NA,"drink out of, keep liquid warm, keep liquid cold",1
"00722362Mbh","goxaqat63u","Affordance Norms_South Alabama",1,33,"2022-11-16T00:08:39+00:00",30.515704870224,86,"updated stim.csv","Version86.csv","Version 86","List 86","forearm",NA,2576,5.782608696,1043,2577,"BOI","-","-","Please name all of the ways you could use this object. Keep in mind that one object can have many uses. Separate your responses with a comma.",NA,"y",30255,NA,NA,4319,28920,NA,NA,NA,"move, pull, push, support",1
"00722362Mbh","goxaqat63u","Affordance Norms_South Alabama",1,34,"2022-11-16T00:08:55+00:00",15.731023073196,86,"updated stim.csv","Version86.csv","Version 86","List 86","gumbo",NA,2556,4.619047619,1196,2557,"BOI","-","-","Please name all of the ways you could use this object. Keep in mind that one object can have many uses. Separate your responses with a comma.",NA,"y",15606,NA,NA,1307,13939,NA,NA,NA,"eat, gather family, have leftovers",1
"00722362Mbh","goxaqat63u","Affordance Norms_South Alabama",1,35,"2022-11-16T00:09:16+00:00",21.250468969345,86,"updated stim.csv","Version86.csv","Version 86","List 86","fillet",NA,2554,4.32,975,2555,"BOI","-","-","Please name all of the ways you could use this object. Keep in mind that one object can have many uses. Separate your responses with a comma.",NA,"y",20935,NA,NA,2739,19517,NA,NA,NA,"eat, use as bait, cook",1
"00722362Mbh","goxaqat63u","Affordance Norms_South Alabama",1,36,"2022-11-16T00:09:38+00:00",22.371710062027,86,"updated stim.csv","Version86.csv","Version 86","List 86","football",NA,2559,6.12,1030,2560,"BOI","-","-","Please name all of the ways you could use this object. Keep in mind that one object can have many uses. Separate your responses with a comma.",NA,"y",22090,NA,NA,1777,20254,NA,NA,NA,"entertainment, stress relief, gather family, kick, throw",1
"00722362Mbh","goxaqat63u","Affordance Norms_South Alabama",1,37,"2022-11-16T00:10:02+00:00",23.69420003891,86,"updated stim.csv","Version86.csv","Version 86","List 86","dove",NA,2580,4.333333333,835,2581,"BOI","-","-","Please name all of the ways you could use this object. Keep in mind that one object can have many uses. Separate your responses with a comma.",NA,"y",23340,NA,NA,8692,22140,NA,NA,NA,"represent peace, hold, entertainment",0.922
"00722362Mbh","goxaqat63u","Affordance Norms_South Alabama",1,38,"2022-11-16T00:10:22+00:00",20.236701011658,86,"updated stim.csv","Version86.csv","Version 86","List 86","crate",NA,2567,5.304347826,684,2568,"BOI","-","-","Please name all of the ways you could use this object. Keep in mind that one object can have many uses. Separate your responses with a comma.",NA,"y",19950,NA,NA,1451,15968,NA,NA,NA,"hold milk, hold animals, walk on",1
"00722362Mbh","goxaqat63u","Affordance Norms_South Alabama",1,39,"2022-11-16T00:10:40+00:00",17.898036003113,86,"updated stim.csv","Version86.csv","Version 86","List 86","riverboat",NA,2574,5.52,2174,2575,"BOI","-","-","Please name all of the ways you could use this object. Keep in mind that one object can have many uses. Separate your responses with a comma.",NA,"y",17764,NA,NA,6131,16544,NA,NA,NA,"jump off of, fish off of, entertainment",1
"00722362Mbh","goxaqat63u","Affordance Norms_South Alabama",1,40,"2022-11-16T00:11:24+00:00",43.779016971588,86,"updated stim.csv","Version86.csv","Version 86","List 86","boutique",NA,2566,4.692307692,291,2567,"BOI","-","-","Please name all of the ways you could use this object. Keep in mind that one object can have many uses. Separate your responses with a comma.",NA,"y",43606,NA,NA,2272,42337,NA,NA,NA,"get clothes, get shoes, get makeup, get jewelry, buy gifts ",0.986
"DDB","ie7dj4s2t4","Affordance Norms_South Alabama",1,11,"2022-11-26T21:36:06+00:00",11.862545013428,43,"updated stim.csv","Version43.csv","Version 43","List 43","gauze",NA,1269,5.88,1088,1270,"BOI","-","-","Please name all of the ways you could use this object. Keep in mind that one object can have many uses. Separate your responses with a comma.",NA,"y",11591,NA,NA,9390,10915,NA,NA,NA,NA,1
"DDB","ie7dj4s2t4","Affordance Norms_South Alabama",1,12,"2022-11-26T21:36:10+00:00",4.1992580890656,43,"updated stim.csv","Version43.csv","Version 43","List 43","puke",NA,1290,4.5,2091,1291,"BOI","-","-","Please name all of the ways you could use this object. Keep in mind that one object can have many uses. Separate your responses with a comma.",NA,"y",3918,NA,NA,2608,3119,NA,NA,NA,"Barf",1
"DDB","ie7dj4s2t4","Affordance Norms_South Alabama",1,13,"2022-11-26T21:36:17+00:00",6.4644088745117,43,"updated stim.csv","Version43.csv","Version 43","List 43","bunkhouse",NA,1273,4.625,361,1274,"BOI","-","-","Please name all of the ways you could use this object. Keep in mind that one object can have many uses. Separate your responses with a comma.",NA,"y",6186,NA,NA,2542,5497,NA,NA,NA,"Bunker",1
"DDB","ie7dj4s2t4","Affordance Norms_South Alabama",1,14,"2022-11-26T21:36:22+00:00",4.8991801738739,43,"updated stim.csv","Version43.csv","Version 43","List 43","waiter",NA,1278,4.48,2883,1279,"BOI","-","-","Please name all of the ways you could use this object. Keep in mind that one object can have many uses. Separate your responses with a comma.",NA,"y",4628,NA,NA,3328,3903,NA,NA,NA,"Serve",1
"DDB","ie7dj4s2t4","Affordance Norms_South Alabama",1,15,"2022-11-26T21:36:25+00:00",3.6937170028687,43,"updated stim.csv","Version43.csv","Version 43","List 43","marijuana",NA,1284,6.04,1606,1285,"BOI","-","-","Please name all of the ways you could use this object. Keep in mind that one object can have many uses. Separate your responses with a comma.",NA,"y",3513,NA,NA,2293,2799,NA,NA,NA,"Smoke",1
"DDB","ie7dj4s2t4","Affordance Norms_South Alabama",1,16,"2022-11-26T21:36:31+00:00",5.9012508392334,43,"updated stim.csv","Version43.csv","Version 43","List 43","maid",NA,1283,4.458333333,1574,1284,"BOI","-","-","Please name all of the ways you could use this object. Keep in mind that one object can have many uses. Separate your responses with a comma.",NA,"y",5641,NA,NA,3364,4970,NA,NA,NA,"Setve",1
"DDB","ie7dj4s2t4","Affordance Norms_South Alabama",1,17,"2022-11-26T21:36:35+00:00",3.5620720386505,43,"updated stim.csv","Version43.csv","Version 43","List 43","holster",NA,1279,4.68,1298,1280,"BOI","-","-","Please name all of the ways you could use this object. Keep in mind that one object can have many uses. Separate your responses with a comma.",NA,"y",3374,NA,NA,2340,2625,NA,NA,NA,"Gun",1
"DDB","ie7dj4s2t4","Affordance Norms_South Alabama",1,18,"2022-11-26T21:36:44+00:00",9.1028230190277,43,"updated stim.csv","Version43.csv","Version 43","List 43","environment",NA,1277,4.52173913,914,1278,"BOI","-","-","Please name all of the ways you could use this object. Keep in mind that one object can have many uses. Separate your responses with a comma.",NA,"y",8838,NA,NA,7239,8053,NA,NA,NA,"Living",1
"DDB","ie7dj4s2t4","Affordance Norms_South Alabama",1,19,"2022-11-26T21:36:54+00:00",10.089250087738,43,"updated stim.csv","Version43.csv","Version 43","List 43","suspenders",NA,1274,5.24,2599,1275,"BOI","-","-","Please name all of the ways you could use this object. Keep in mind that one object can have many uses. Separate your responses with a comma.",NA,"y",9808,NA,NA,5760,9034,NA,NA,NA,"Assistants",1
"DDB","ie7dj4s2t4","Affordance Norms_South Alabama",1,20,"2022-11-26T21:36:57+00:00",3.3088710308075,43,"updated stim.csv","Version43.csv","Version 43","List 43","boulder",NA,1266,4.958333333,288,1267,"BOI","-","-","Please name all of the ways you could use this object. Keep in mind that one object can have many uses. Separate your responses with a comma.",NA,"y",3126,NA,NA,1877,2362,NA,NA,NA,"Rock",1
"DDB","ie7dj4s2t4","Affordance Norms_South Alabama",1,21,"2022-11-26T21:37:02+00:00",4.4087128639221,43,"updated stim.csv","Version43.csv","Version 43","List 43","chrysanthemum",NA,1262,5.727272727,540,1263,"BOI","-","-","Please name all of the ways you could use this object. Keep in mind that one object can have many uses. Separate your responses with a comma.",NA,"y",4162,NA,NA,2776,3445,NA,NA,NA,NA,1
"DDB","ie7dj4s2t4","Affordance Norms_South Alabama",1,22,"2022-11-26T21:37:23+00:00",21.020327091217,43,"updated stim.csv","Version43.csv","Version 43","List 43","vaginal",NA,1271,4.36,2833,1272,"BOI","-","-","Please name all of the ways you could use this object. Keep in mind that one object can have many uses. Separate your responses with a comma.",NA,"y",20744,NA,NA,19455,20096,NA,NA,NA,"Babies",1
"DDB","ie7dj4s2t4","Affordance Norms_South Alabama",1,23,"2022-11-26T21:37:31+00:00",8.4185628890991,43,"updated stim.csv","Version43.csv","Version 43","List 43","bin",NA,1286,5.260869565,217,1287,"BOI","-","-","Please name all of the ways you could use this object. Keep in mind that one object can have many uses. Separate your responses with a comma.",NA,"y",8149,NA,NA,2053,7281,NA,NA,NA,"Garbage",1
"DDB","ie7dj4s2t4","Affordance Norms_South Alabama",1,24,"2022-11-26T21:37:35+00:00",3.7497670650482,43,"updated stim.csv","Version43.csv","Version 43","List 43","bangle",NA,1289,5.115384615,139,1290,"BOI","-","-","Please name all of the ways you could use this object. Keep in mind that one object can have many uses. Separate your responses with a comma.",NA,"y",3567,NA,NA,2463,2893,NA,NA,NA,NA,1
"DDB","ie7dj4s2t4","Affordance Norms_South Alabama",1,25,"2022-11-26T21:37:40+00:00",5.6421148777008,43,"updated stim.csv","Version43.csv","Version 43","List 43","footbath",NA,1276,5.090909091,1032,1277,"BOI","-","-","Please name all of the ways you could use this object. Keep in mind that one object can have many uses. Separate your responses with a comma.",NA,"y",5382,NA,NA,3928,4759,NA,NA,NA,"Massage",1
"DDB","ie7dj4s2t4","Affordance Norms_South Alabama",1,26,"2022-11-26T21:37:46+00:00",5.7605051994324,43,"updated stim.csv","Version43.csv","Version 43","List 43","minister",NA,1280,4.84,1663,1281,"BOI","-","-","Please name all of the ways you could use this object. Keep in mind that one object can have many uses. Separate your responses with a comma.",NA,"y",5497,NA,NA,2529,4107,NA,NA,NA,"Church ",1
"DDB","ie7dj4s2t4","Affordance Norms_South Alabama",1,27,"2022-11-26T21:37:52+00:00",5.3824570178986,43,"updated stim.csv","Version43.csv","Version 43","List 43","motorist",NA,1270,5.12,1698,1271,"BOI","-","-","Please name all of the ways you could use this object. Keep in mind that one object can have many uses. Separate your responses with a comma.",NA,"y",5117,NA,NA,2590,4214,NA,NA,NA,"Motor",1
"DDB","ie7dj4s2t4","Affordance Norms_South Alabama",1,28,"2022-11-26T21:38:55+00:00",63.779585838318,43,"updated stim.csv","Version43.csv","Version 43","List 43","fountainhead",NA,1272,4.523809524,1051,1273,"BOI","-","-","Please name all of the ways you could use this object. Keep in mind that one object can have many uses. Separate your responses with a comma.",NA,"y",63504,NA,NA,61609,62156,NA,NA,NA,"Water",1
"DDB","ie7dj4s2t4","Affordance Norms_South Alabama",1,29,"2022-11-26T21:39:00+00:00",4.866268157959,43,"updated stim.csv","Version43.csv","Version 43","List 43","sling",NA,1285,4.909090909,2413,1286,"BOI","-","-","Please name all of the ways you could use this object. Keep in mind that one object can have many uses. Separate your responses with a comma.",NA,"y",4603,NA,NA,3404,3744,NA,NA,NA,"Shot",1
"DDB","ie7dj4s2t4","Affordance Norms_South Alabama",1,30,"2022-11-26T21:39:06+00:00",6.1128859519958,43,"updated stim.csv","Version43.csv","Version 43","List 43","crowbar",NA,1268,6.25,710,1269,"BOI","-","-","Please name all of the ways you could use this object. Keep in mind that one object can have many uses. Separate your responses with a comma.",NA,"y",5836,NA,NA,3564,5078,NA,NA,NA,"Open",1
"DDB","ie7dj4s2t4","Affordance Norms_South Alabama",1,31,"2022-11-26T21:39:20+00:00",13.395900964737,43,"updated stim.csv","Version43.csv","Version 43","List 43","daughter",NA,1288,5.192307692,760,1289,"BOI","-","-","Please name all of the ways you could use this object. Keep in mind that one object can have many uses. Separate your responses with a comma.",NA,"y",13128,NA,NA,11259,12369,NA,NA,NA,"Spouse",1
"DDB","ie7dj4s2t4","Affordance Norms_South Alabama",1,32,"2022-11-26T21:39:27+00:00",7.4802238941193,43,"updated stim.csv","Version43.csv","Version 43","List 43","ledge",NA,1267,4.541666667,1482,1268,"BOI","-","-","Please name all of the ways you could use this object. Keep in mind that one object can have many uses. Separate your responses with a comma.",NA,"y",7230,NA,NA,2237,5524,NA,NA,NA,"Cliff",1
"DDB","ie7dj4s2t4","Affordance Norms_South Alabama",1,33,"2022-11-26T21:39:38+00:00",11.028702974319,43,"updated stim.csv","Version43.csv","Version 43","List 43","prosthesis",NA,1282,4.689655172,2079,1283,"BOI","-","-","Please name all of the ways you could use this object. Keep in mind that one object can have many uses. Separate your responses with a comma.",NA,"y",10729,NA,NA,9490,10054,NA,NA,NA,"Ahead",1
"DDB","ie7dj4s2t4","Affordance Norms_South Alabama",1,34,"2022-11-26T21:39:44+00:00",5.3848421573639,43,"updated stim.csv","Version43.csv","Version 43","List 43","axe",NA,1281,6.153846154,106,1282,"BOI","-","-","Please name all of the ways you could use this object. Keep in mind that one object can have many uses. Separate your responses with a comma.",NA,"y",5143,NA,NA,3933,4484,NA,NA,NA,"Slice",1
"DDB","ie7dj4s2t4","Affordance Norms_South Alabama",1,35,"2022-11-26T21:51:28+00:00",704.82675099373,43,"updated stim.csv","Version43.csv","Version 43","List 43","granny",NA,1265,5.083333333,1155,1266,"BOI","-","-","Please name all of the ways you could use this object. Keep in mind that one object can have many uses. Separate your responses with a comma.",NA,"y",704564,NA,NA,701287,702178,NA,NA,NA,"Grandma ",1
"DDB","ie7dj4s2t4","Affordance Norms_South Alabama",1,36,"2022-11-26T21:51:51+00:00",22.880867958069,43,"updated stim.csv","Version43.csv","Version 43","List 43","bathroom",NA,1264,6,169,1265,"BOI","-","-","Please name all of the ways you could use this object. Keep in mind that one object can have many uses. Separate your responses with a comma.",NA,"y",22603,NA,NA,21386,21815,NA,NA,NA,"Bath",1
"DDB","ie7dj4s2t4","Affordance Norms_South Alabama",1,37,"2022-11-26T21:51:56+00:00",4.2076070308685,43,"updated stim.csv","Version43.csv","Version 43","List 43","doorbell",NA,1263,5.916666667,822,1264,"BOI","-","-","Please name all of the ways you could use this object. Keep in mind that one object can have many uses. Separate your responses with a comma.",NA,"y",3941,NA,NA,1887,2311,NA,NA,NA,"Door ",1
"DDB","ie7dj4s2t4","Affordance Norms_South Alabama",1,38,"2022-11-26T21:53:09+00:00",73.167366027832,43,"updated stim.csv","Version43.csv","Version 43","List 43","path",NA,1261,4.37037037,1887,1262,"BOI","-","-","Please name all of the ways you could use this object. Keep in mind that one object can have many uses. Separate your responses with a comma.",NA,"y",72881,NA,NA,71803,71975,NA,NA,NA,"Way",1
"DDB","ie7dj4s2t4","Affordance Norms_South Alabama",1,39,"2022-11-26T21:53:12+00:00",3.6796159744263,43,"updated stim.csv","Version43.csv","Version 43","List 43","sink",NA,1287,5.48,2385,1288,"BOI","-","-","Please name all of the ways you could use this object. Keep in mind that one object can have many uses. Separate your responses with a comma.",NA,"y",3496,NA,NA,2298,2671,NA,NA,NA,"Sick",1
"DDB","ie7dj4s2t4","Affordance Norms_South Alabama",1,40,"2022-11-26T21:53:16+00:00",3.6855580806732,43,"updated stim.csv","Version43.csv","Version 43","List 43","penny",NA,1275,6.448275862,1917,1276,"BOI","-","-","Please name all of the ways you could use this object. Keep in mind that one object can have many uses. Separate your responses with a comma.",NA,"y",3507,NA,NA,2265,2727,NA,NA,NA,"Coin",1
"J00526068_gfd","6arew5vjn3","Affordance Norms_South Alabama",1,11,"2022-11-18T19:49:56+00:00",10.11364197731,12,"updated stim.csv","Version12.csv","Version 12","List 12","hourglass",NA,354,4.583333333,1325,355,"BOI","-","-","Please name all of the ways you could use this object. Keep in mind that one object can have many uses. Separate your responses with a comma.",NA,"y",9853,NA,NA,2116,9720,NA,NA,NA,"meter, time ticking, time consuming, how long",1
"J00526068_gfd","6arew5vjn3","Affordance Norms_South Alabama",1,12,"2022-11-18T19:50:00+00:00",4.6871399879456,12,"updated stim.csv","Version12.csv","Version 12","List 12","champagne",NA,333,5.583333333,493,334,"BOI","-","-","Please name all of the ways you could use this object. Keep in mind that one object can have many uses. Separate your responses with a comma.",NA,"y",4428,NA,NA,1305,4342,NA,NA,NA,"good, glass, drink, wine",1
"J00526068_gfd","6arew5vjn3","Affordance Norms_South Alabama",1,13,"2022-11-18T19:50:06+00:00",5.6044490337372,12,"updated stim.csv","Version12.csv","Version 12","List 12","cobweb",NA,359,4.916666667,584,360,"BOI","-","-","Please name all of the ways you could use this object. Keep in mind that one object can have many uses. Separate your responses with a comma.",NA,"y",5336,NA,NA,2258,5210,NA,NA,NA,"dusty, dirty house",1
"J00526068_gfd","6arew5vjn3","Affordance Norms_South Alabama",1,14,"2022-11-18T19:50:12+00:00",5.5772550106049,12,"updated stim.csv","Version12.csv","Version 12","List 12","ruby",NA,332,4.76,2202,333,"BOI","-","-","Please name all of the ways you could use this object. Keep in mind that one object can have many uses. Separate your responses with a comma.",NA,"y",5310,NA,NA,1569,5149,NA,NA,NA,"pretty, red, jewel",1
"J00526068_gfd","6arew5vjn3","Affordance Norms_South Alabama",1,15,"2022-11-18T19:50:22+00:00",10.06125497818,12,"updated stim.csv","Version12.csv","Version 12","List 12","hip",NA,341,5.086956522,1291,342,"BOI","-","-","Please name all of the ways you could use this object. Keep in mind that one object can have many uses. Separate your responses with a comma.",NA,"y",9801,NA,NA,1470,9668,NA,NA,NA,"hurts, pain, joint",1
"J00526068_gfd","6arew5vjn3","Affordance Norms_South Alabama",1,16,"2022-11-18T19:50:30+00:00",8.558217048645,12,"updated stim.csv","Version12.csv","Version 12","List 12","flower",NA,343,5.916666667,1015,344,"BOI","-","-","Please name all of the ways you could use this object. Keep in mind that one object can have many uses. Separate your responses with a comma.",NA,"y",8291,NA,NA,1670,7781,NA,NA,NA,"pretty, smell, sight",1
"J00526068_gfd","6arew5vjn3","Affordance Norms_South Alabama",1,17,"2022-11-18T19:50:39+00:00",8.8926260471344,12,"updated stim.csv","Version12.csv","Version 12","List 12","man",NA,352,5.346153846,1586,353,"BOI","-","-","Please name all of the ways you could use this object. Keep in mind that one object can have many uses. Separate your responses with a comma.",NA,"y",8630,NA,NA,2418,8501,NA,NA,NA,"big, tough, strong, independednt",1
"J00526068_gfd","6arew5vjn3","Affordance Norms_South Alabama",1,18,"2022-11-18T19:50:49+00:00",9.7977638244629,12,"updated stim.csv","Version12.csv","Version 12","List 12","bass",NA,337,4.37037037,164,338,"BOI","-","-","Please name all of the ways you could use this object. Keep in mind that one object can have many uses. Separate your responses with a comma.",NA,"y",9542,NA,NA,2665,9338,NA,NA,NA,"fish, guitar, opposite of treble",1
"J00526068_gfd","6arew5vjn3","Affordance Norms_South Alabama",1,19,"2022-11-18T19:50:52+00:00",3.0456080436707,12,"updated stim.csv","Version12.csv","Version 12","List 12","toddler",NA,349,5.875,2714,350,"BOI","-","-","Please name all of the ways you could use this object. Keep in mind that one object can have many uses. Separate your responses with a comma.",NA,"y",2894,NA,NA,1515,2762,NA,NA,NA,"kid, child",1
"J00526068_gfd","6arew5vjn3","Affordance Norms_South Alabama",1,20,"2022-11-18T19:50:57+00:00",4.8830461502075,12,"updated stim.csv","Version12.csv","Version 12","List 12","beet",NA,345,5.32,193,346,"BOI","-","-","Please name all of the ways you could use this object. Keep in mind that one object can have many uses. Separate your responses with a comma.",NA,"y",4619,NA,NA,3833,4481,NA,NA,NA,"not sure",1
"J00526068_gfd","6arew5vjn3","Affordance Norms_South Alabama",1,21,"2022-11-18T19:51:06+00:00",8.7181849479675,12,"updated stim.csv","Version12.csv","Version 12","List 12","mall",NA,340,4.36,1582,341,"BOI","-","-","Please name all of the ways you could use this object. Keep in mind that one object can have many uses. Separate your responses with a comma.",NA,"y",8454,NA,NA,2034,8240,NA,NA,NA,"shopping, go, fun",1
"J00526068_gfd","6arew5vjn3","Affordance Norms_South Alabama",1,22,"2022-11-18T19:51:14+00:00",7.9436600208282,12,"updated stim.csv","Version12.csv","Version 12","List 12","bystander",NA,331,4.791666667,384,332,"BOI","-","-","Please name all of the ways you could use this object. Keep in mind that one object can have many uses. Separate your responses with a comma.",NA,"y",7671,NA,NA,1724,7556,NA,NA,NA,"person, pedestrian, onlooker",1
"J00526068_gfd","6arew5vjn3","Affordance Norms_South Alabama",1,23,"2022-11-18T19:51:24+00:00",10.42735004425,12,"updated stim.csv","Version12.csv","Version 12","List 12","dock",NA,336,4.541666667,808,337,"BOI","-","-","Please name all of the ways you could use this object. Keep in mind that one object can have many uses. Separate your responses with a comma.",NA,"y",10179,NA,NA,1627,9541,NA,NA,NA,"boating, docking, dockside, ",1
"J00526068_gfd","6arew5vjn3","Affordance Norms_South Alabama",1,24,"2022-11-18T19:51:30+00:00",6.4667139053345,12,"updated stim.csv","Version12.csv","Version 12","List 12","pinkie",NA,355,5.260869565,1974,356,"BOI","-","-","Please name all of the ways you could use this object. Keep in mind that one object can have many uses. Separate your responses with a comma.",NA,"y",6206,NA,NA,3341,5920,NA,NA,NA,"last finger, small",1
"J00526068_gfd","6arew5vjn3","Affordance Norms_South Alabama",1,25,"2022-11-18T19:51:34+00:00",3.1112949848175,12,"updated stim.csv","Version12.csv","Version 12","List 12","certificate",NA,358,5.041666667,482,359,"BOI","-","-","Please name all of the ways you could use this object. Keep in mind that one object can have many uses. Separate your responses with a comma.",NA,"y",2964,NA,NA,1836,2849,NA,NA,NA,"deploma",1
"J00526068_gfd","6arew5vjn3","Affordance Norms_South Alabama",1,26,"2022-11-18T19:51:37+00:00",3.4853761196136,12,"updated stim.csv","Version12.csv","Version 12","List 12","condiment",NA,347,5.76,620,348,"BOI","-","-","Please name all of the ways you could use this object. Keep in mind that one object can have many uses. Separate your responses with a comma.",NA,"y",3346,NA,NA,1786,3168,NA,NA,NA,"salt, poepper",1
"J00526068_gfd","6arew5vjn3","Affordance Norms_South Alabama",1,27,"2022-11-18T19:51:42+00:00",5.0192198753357,12,"updated stim.csv","Version12.csv","Version 12","List 12","showerhead",NA,360,5.041666667,2365,361,"BOI","-","-","Please name all of the ways you could use this object. Keep in mind that one object can have many uses. Separate your responses with a comma.",NA,"y",4745,NA,NA,4172,4616,NA,NA,NA,"shower",1
"J00526068_gfd","6arew5vjn3","Affordance Norms_South Alabama",1,28,"2022-11-18T19:51:45+00:00",2.7683551311493,12,"updated stim.csv","Version12.csv","Version 12","List 12","mayonnaise",NA,342,5.523809524,1628,343,"BOI","-","-","Please name all of the ways you could use this object. Keep in mind that one object can have many uses. Separate your responses with a comma.",NA,"y",2611,NA,NA,1948,2476,NA,NA,NA,"gross",1
"J00526068_gfd","6arew5vjn3","Affordance Norms_South Alabama",1,29,"2022-11-18T19:51:48+00:00",3.103168964386,12,"updated stim.csv","Version12.csv","Version 12","List 12","mulberry",NA,339,4.703703704,1714,340,"BOI","-","-","Please name all of the ways you could use this object. Keep in mind that one object can have many uses. Separate your responses with a comma.",NA,"y",2949,NA,NA,2186,2801,NA,NA,NA,"not sure",1
"J00526068_gfd","6arew5vjn3","Affordance Norms_South Alabama",1,30,"2022-11-18T19:51:55+00:00",6.7486989498138,12,"updated stim.csv","Version12.csv","Version 12","List 12","fungus",NA,346,4.32,1064,347,"BOI","-","-","Please name all of the ways you could use this object. Keep in mind that one object can have many uses. Separate your responses with a comma.",NA,"y",6484,NA,NA,4274,5766,NA,NA,NA,"amongus",1
"J00526068_gfd","6arew5vjn3","Affordance Norms_South Alabama",1,31,"2022-11-18T19:51:58+00:00",2.8952128887177,12,"updated stim.csv","Version12.csv","Version 12","List 12","shot",NA,356,4.392857143,2360,357,"BOI","-","-","Please name all of the ways you could use this object. Keep in mind that one object can have many uses. Separate your responses with a comma.",NA,"y",2734,NA,NA,1680,2437,NA,NA,NA,"painful",1
"J00526068_gfd","6arew5vjn3","Affordance Norms_South Alabama",1,32,"2022-11-18T19:52:00+00:00",2.1447770595551,12,"updated stim.csv","Version12.csv","Version 12","List 12","someone",NA,357,4.625,2450,358,"BOI","-","-","Please name all of the ways you could use this object. Keep in mind that one object can have many uses. Separate your responses with a comma.",NA,"y",1992,NA,NA,1448,1829,NA,NA,NA,"person",1
"J00526068_gfd","6arew5vjn3","Affordance Norms_South Alabama",1,33,"2022-11-18T19:52:08+00:00",7.9262580871582,12,"updated stim.csv","Version12.csv","Version 12","List 12","String",NA,334,5.626180837,2568,335,"BOI","-","-","Please name all of the ways you could use this object. Keep in mind that one object can have many uses. Separate your responses with a comma.",NA,"y",7663,NA,NA,6323,7476,NA,NA,NA,"fabric",1
"J00526068_gfd","6arew5vjn3","Affordance Norms_South Alabama",1,34,"2022-11-18T19:52:10+00:00",2.4980599880219,12,"updated stim.csv","Version12.csv","Version 12","List 12","sifter",NA,350,4.782608696,2378,351,"BOI","-","-","Please name all of the ways you could use this object. Keep in mind that one object can have many uses. Separate your responses with a comma.",NA,"y",2348,NA,NA,1918,2219,NA,NA,NA,"sand",1
"J00526068_gfd","6arew5vjn3","Affordance Norms_South Alabama",1,35,"2022-11-18T19:52:13+00:00",2.7070169448853,12,"updated stim.csv","Version12.csv","Version 12","List 12","dumbbell",NA,351,5.958333333,865,352,"BOI","-","-","Please name all of the ways you could use this object. Keep in mind that one object can have many uses. Separate your responses with a comma.",NA,"y",2561,NA,NA,1750,2282,NA,NA,NA,"weight",1
"J00526068_gfd","6arew5vjn3","Affordance Norms_South Alabama",1,36,"2022-11-18T19:52:15+00:00",2.648864030838,12,"updated stim.csv","Version12.csv","Version 12","List 12","closet",NA,348,4.962962963,567,349,"BOI","-","-","Please name all of the ways you could use this object. Keep in mind that one object can have many uses. Separate your responses with a comma.",NA,"y",2491,NA,NA,1722,2366,NA,NA,NA,"clothes",1
"J00526068_gfd","6arew5vjn3","Affordance Norms_South Alabama",1,37,"2022-11-18T19:52:19+00:00",3.325474023819,12,"updated stim.csv","Version12.csv","Version 12","List 12","necklace",NA,338,5.821428571,1741,339,"BOI","-","-","Please name all of the ways you could use this object. Keep in mind that one object can have many uses. Separate your responses with a comma.",NA,"y",3180,NA,NA,1868,2897,NA,NA,NA,"jewelry",1
"J00526068_gfd","6arew5vjn3","Affordance Norms_South Alabama",1,38,"2022-11-18T19:52:21+00:00",2.5527498722076,12,"updated stim.csv","Version12.csv","Version 12","List 12","stockings",NA,344,5.84,2542,345,"BOI","-","-","Please name all of the ways you could use this object. Keep in mind that one object can have many uses. Separate your responses with a comma.",NA,"y",2415,NA,NA,1557,2313,NA,NA,NA,"christmas",1
"J00526068_gfd","6arew5vjn3","Affordance Norms_South Alabama",1,39,"2022-11-18T19:52:24+00:00",2.709625005722,12,"updated stim.csv","Version12.csv","Version 12","List 12","bartender",NA,353,4.64,156,354,"BOI","-","-","Please name all of the ways you could use this object. Keep in mind that one object can have many uses. Separate your responses with a comma.",NA,"y",2562,NA,NA,1857,2488,NA,NA,NA,"drinks",1
"J00526068_gfd","6arew5vjn3","Affordance Norms_South Alabama",1,40,"2022-11-18T19:52:29+00:00",4.7296350002289,12,"updated stim.csv","Version12.csv","Version 12","List 12","dairy",NA,335,4.28,750,336,"BOI","-","-","Please name all of the ways you could use this object. Keep in mind that one object can have many uses. Separate your responses with a comma.",NA,"y",4487,NA,NA,1244,3399,NA,NA,NA,"milk",1
"J00637838","u5p9ft14l0","Affordance Norms_South Alabama",1,11,"2022-11-20T22:50:54+00:00",4.6414740085602,19,"updated stim.csv","Version19.csv","Version 19","List 19","godparent",NA,551,5.260869565,1129,552,"BOI","-","-","Please name all of the ways you could use this object. Keep in mind that one object can have many uses. Separate your responses with a comma.",NA,"y",4505,NA,NA,2652,3656,NA,NA,NA,"family",1
"J00637838","u5p9ft14l0","Affordance Norms_South Alabama",1,12,"2022-11-20T22:50:59+00:00",5.1035218238831,19,"updated stim.csv","Version19.csv","Version 19","List 19","silkworm",NA,570,5.208333333,2382,571,"BOI","-","-","Please name all of the ways you could use this object. Keep in mind that one object can have many uses. Separate your responses with a comma.",NA,"y",4956,NA,NA,1990,4157,NA,NA,NA,"dirt",1
"J00637838","u5p9ft14l0","Affordance Norms_South Alabama",1,13,"2022-11-20T22:51:09+00:00",9.4099681377411,19,"updated stim.csv","Version19.csv","Version 19","List 19","goggles",NA,543,6.125,1131,544,"BOI","-","-","Please name all of the ways you could use this object. Keep in mind that one object can have many uses. Separate your responses with a comma.",NA,"y",9171,NA,NA,2062,8571,NA,NA,NA,"swimming, fishing",1
"J00637838","u5p9ft14l0","Affordance Norms_South Alabama",1,14,"2022-11-20T22:51:18+00:00",9.5530948638916,19,"updated stim.csv","Version19.csv","Version 19","List 19","raft",NA,564,5.36,2125,565,"BOI","-","-","Please name all of the ways you could use this object. Keep in mind that one object can have many uses. Separate your responses with a comma.",NA,"y",9410,NA,NA,4424,8720,NA,NA,NA,"riding, swimming",1
"J00637838","u5p9ft14l0","Affordance Norms_South Alabama",1,15,"2022-11-20T22:51:38+00:00",20.241275072098,19,"updated stim.csv","Version19.csv","Version 19","List 19","kitchen",NA,566,5.625,1425,567,"BOI","-","-","Please name all of the ways you could use this object. Keep in mind that one object can have many uses. Separate your responses with a comma.",NA,"y",19958,NA,NA,11527,19284,NA,NA,NA,"cooking, cleaning, eating",1
"J00637838","u5p9ft14l0","Affordance Norms_South Alabama",1,16,"2022-11-20T22:51:47+00:00",8.0912899971008,19,"updated stim.csv","Version19.csv","Version 19","List 19","plaster",NA,542,4.4,1993,543,"BOI","-","-","Please name all of the ways you could use this object. Keep in mind that one object can have many uses. Separate your responses with a comma.",NA,"y",7797,NA,NA,3583,6967,NA,NA,NA,"glue, drunk",1
"J00637838","u5p9ft14l0","Affordance Norms_South Alabama",1,17,"2022-11-20T22:51:54+00:00",7.3430778980255,19,"updated stim.csv","Version19.csv","Version 19","List 19","couch",NA,544,6.260869565,661,545,"BOI","-","-","Please name all of the ways you could use this object. Keep in mind that one object can have many uses. Separate your responses with a comma.",NA,"y",7170,NA,NA,1286,5071,NA,NA,NA,"sitting, talking",1
"J00637838","u5p9ft14l0","Affordance Norms_South Alabama",1,18,"2022-11-20T22:52:00+00:00",6.269914150238,19,"updated stim.csv","Version19.csv","Version 19","List 19","backpack",NA,555,5.72,116,556,"BOI","-","-","Please name all of the ways you could use this object. Keep in mind that one object can have many uses. Separate your responses with a comma.",NA,"y",6105,NA,NA,1904,5314,NA,NA,NA,"books, paper",1
"J00637838","u5p9ft14l0","Affordance Norms_South Alabama",1,19,"2022-11-20T22:52:06+00:00",6.2253148555756,19,"updated stim.csv","Version19.csv","Version 19","List 19","goose",NA,553,5.260869565,1138,554,"BOI","-","-","Please name all of the ways you could use this object. Keep in mind that one object can have many uses. Separate your responses with a comma.",NA,"y",6059,NA,NA,1726,5355,NA,NA,NA,"flying, sitting",1
"J00637838","u5p9ft14l0","Affordance Norms_South Alabama",1,20,"2022-11-20T22:52:15+00:00",8.2069170475006,19,"updated stim.csv","Version19.csv","Version 19","List 19","saltwater",NA,545,5.192307692,2229,546,"BOI","-","-","Please name all of the ways you could use this object. Keep in mind that one object can have many uses. Separate your responses with a comma.",NA,"y",8054,NA,NA,2708,7330,NA,NA,NA,"ocean, sand",1
"J00637838","u5p9ft14l0","Affordance Norms_South Alabama",1,21,"2022-11-20T22:52:24+00:00",9.7069180011749,19,"updated stim.csv","Version19.csv","Version 19","List 19","splinter",NA,563,4.652173913,2478,564,"BOI","-","-","Please name all of the ways you could use this object. Keep in mind that one object can have many uses. Separate your responses with a comma.",NA,"y",9546,NA,NA,4038,8704,NA,NA,NA,"hurting, pokey",1
"J00637838","u5p9ft14l0","Affordance Norms_South Alabama",1,22,"2022-11-20T22:52:30+00:00",5.2247841358185,19,"updated stim.csv","Version19.csv","Version 19","List 19","toe",NA,565,5.954545455,2715,566,"BOI","-","-","Please name all of the ways you could use this object. Keep in mind that one object can have many uses. Separate your responses with a comma.",NA,"y",5066,NA,NA,3346,3850,NA,NA,NA,"foot",1
"J00637838","u5p9ft14l0","Affordance Norms_South Alabama",1,23,"2022-11-20T22:52:45+00:00",15.717525959015,19,"updated stim.csv","Version19.csv","Version 19","List 19","kerchief",NA,541,5.666666667,1406,542,"BOI","-","-","Please name all of the ways you could use this object. Keep in mind that one object can have many uses. Separate your responses with a comma.",NA,"y",15486,NA,NA,12721,15045,NA,NA,NA,"sneeze",1
"J00637838","u5p9ft14l0","Affordance Norms_South Alabama",1,24,"2022-11-20T22:52:52+00:00",6.4212498664856,19,"updated stim.csv","Version19.csv","Version 19","List 19","barley",NA,546,4.541666667,149,547,"BOI","-","-","Please name all of the ways you could use this object. Keep in mind that one object can have many uses. Separate your responses with a comma.",NA,"y",6262,NA,NA,1974,5544,NA,NA,NA,"wheat, grain",1
"J00637838","u5p9ft14l0","Affordance Norms_South Alabama",1,25,"2022-11-20T22:52:56+00:00",4.5770649909973,19,"updated stim.csv","Version19.csv","Version 19","List 19","cage",NA,562,5.291666667,398,563,"BOI","-","-","Please name all of the ways you could use this object. Keep in mind that one object can have many uses. Separate your responses with a comma.",NA,"y",4420,NA,NA,2169,3676,NA,NA,NA,"animal",1
"J00637838","u5p9ft14l0","Affordance Norms_South Alabama",1,26,"2022-11-20T22:53:02+00:00",5.4604330062866,19,"updated stim.csv","Version19.csv","Version 19","List 19","woodcutter",NA,560,4.44,2960,561,"BOI","-","-","Please name all of the ways you could use this object. Keep in mind that one object can have many uses. Separate your responses with a comma.",NA,"y",5299,NA,NA,3727,4273,NA,NA,NA,"fire",1
"J00637838","u5p9ft14l0","Affordance Norms_South Alabama",1,27,"2022-11-20T22:53:13+00:00",10.847731113434,19,"updated stim.csv","Version19.csv","Version 19","List 19","lubrication",NA,549,4.333333333,1555,550,"BOI","-","-","Please name all of the ways you could use this object. Keep in mind that one object can have many uses. Separate your responses with a comma.",NA,"y",10697,NA,NA,2678,9874,NA,NA,NA,"sex, pipe",1
"J00637838","u5p9ft14l0","Affordance Norms_South Alabama",1,28,"2022-11-20T22:53:21+00:00",8.8684048652649,19,"updated stim.csv","Version19.csv","Version 19","List 19","vulva",NA,561,5.16,2876,562,"BOI","-","-","Please name all of the ways you could use this object. Keep in mind that one object can have many uses. Separate your responses with a comma.",NA,"y",8699,NA,NA,3952,6136,NA,NA,NA,"butterfly",1
"J00637838","u5p9ft14l0","Affordance Norms_South Alabama",1,29,"2022-11-20T22:53:30+00:00",8.5923690795898,19,"updated stim.csv","Version19.csv","Version 19","List 19","tray",NA,547,5.166666667,2768,548,"BOI","-","-","Please name all of the ways you could use this object. Keep in mind that one object can have many uses. Separate your responses with a comma.",NA,"y",8436,NA,NA,6822,7747,NA,NA,NA,"plate",1
"J00637838","u5p9ft14l0","Affordance Norms_South Alabama",1,30,"2022-11-20T22:54:15+00:00",44.536119937897,19,"updated stim.csv","Version19.csv","Version 19","List 19","yardstick",NA,569,5.956521739,2990,570,"BOI","-","-","Please name all of the ways you could use this object. Keep in mind that one object can have many uses. Separate your responses with a comma.",NA,"y",44268,NA,NA,40129,43355,NA,NA,NA,"measurement",1
"J00637838","u5p9ft14l0","Affordance Norms_South Alabama",1,31,"2022-11-20T22:54:28+00:00",13.063894033432,19,"updated stim.csv","Version19.csv","Version 19","List 19","enamel",NA,552,4.652173913,905,553,"BOI","-","-","Please name all of the ways you could use this object. Keep in mind that one object can have many uses. Separate your responses with a comma.",NA,"y",12900,NA,NA,11198,12215,NA,NA,NA,"teeth",1
"J00637838","u5p9ft14l0","Affordance Norms_South Alabama",1,32,"2022-11-20T22:54:32+00:00",4.4527089595795,19,"updated stim.csv","Version19.csv","Version 19","List 19","lantern",NA,558,5.653846154,1463,559,"BOI","-","-","Please name all of the ways you could use this object. Keep in mind that one object can have many uses. Separate your responses with a comma.",NA,"y",4292,NA,NA,2035,3693,NA,NA,NA,"site",1
"J00637838","u5p9ft14l0","Affordance Norms_South Alabama",1,33,"2022-11-20T22:54:37+00:00",4.4561240673065,19,"updated stim.csv","Version19.csv","Version 19","List 19","letterbox",NA,559,4.56,1496,560,"BOI","-","-","Please name all of the ways you could use this object. Keep in mind that one object can have many uses. Separate your responses with a comma.",NA,"y",4295,NA,NA,2999,3736,NA,NA,NA,"check",1
"J00637838","u5p9ft14l0","Affordance Norms_South Alabama",1,34,"2022-11-20T22:54:40+00:00",3.7157399654388,19,"updated stim.csv","Version19.csv","Version 19","List 19","treadmill",NA,568,6,2769,569,"BOI","-","-","Please name all of the ways you could use this object. Keep in mind that one object can have many uses. Separate your responses with a comma.",NA,"y",3557,NA,NA,1819,2988,NA,NA,NA,"running",1
"J00637838","u5p9ft14l0","Affordance Norms_South Alabama",1,35,"2022-11-20T22:54:45+00:00",4.3609390258789,19,"updated stim.csv","Version19.csv","Version 19","List 19","bagpipes",NA,550,5,124,551,"BOI","-","-","Please name all of the ways you could use this object. Keep in mind that one object can have many uses. Separate your responses with a comma.",NA,"y",4201,NA,NA,2447,3956,NA,NA,NA,"blowing",1
"J00637838","u5p9ft14l0","Affordance Norms_South Alabama",1,36,"2022-11-20T22:54:54+00:00",9.3108401298523,19,"updated stim.csv","Version19.csv","Version 19","List 19","tear",NA,556,4.44,2650,557,"BOI","-","-","Please name all of the ways you could use this object. Keep in mind that one object can have many uses. Separate your responses with a comma.",NA,"y",9067,NA,NA,2317,8489,NA,NA,NA,"crying, pull",1
"J00637838","u5p9ft14l0","Affordance Norms_South Alabama",1,37,"2022-11-20T22:55:03+00:00",9.3144190311432,19,"updated stim.csv","Version19.csv","Version 19","List 19","steak",NA,554,5.75,2515,555,"BOI","-","-","Please name all of the ways you could use this object. Keep in mind that one object can have many uses. Separate your responses with a comma.",NA,"y",9151,NA,NA,3985,8285,NA,NA,NA,"delicious, savory",1
"J00637838","u5p9ft14l0","Affordance Norms_South Alabama",1,38,"2022-11-20T22:55:12+00:00",8.7524809837341,19,"updated stim.csv","Version19.csv","Version 19","List 19","cookie",NA,567,6.5,633,568,"BOI","-","-","Please name all of the ways you could use this object. Keep in mind that one object can have many uses. Separate your responses with a comma.",NA,"y",8543,NA,NA,2110,7779,NA,NA,NA,"chocolate",1
"J00637838","u5p9ft14l0","Affordance Norms_South Alabama",1,39,"2022-11-20T22:55:22+00:00",10.157926797867,19,"updated stim.csv","Version19.csv","Version 19","List 19","derriere",NA,548,5.5,778,549,"BOI","-","-","Please name all of the ways you could use this object. Keep in mind that one object can have many uses. Separate your responses with a comma.",NA,"y",10001,NA,NA,8488,9451,NA,NA,NA,"booty",1
"J00637838","u5p9ft14l0","Affordance Norms_South Alabama",1,40,"2022-11-20T22:55:58+00:00",35.527390003204,19,"updated stim.csv","Version19.csv","Version 19","List 19","switchblade",NA,557,5.869565217,2609,558,"BOI","-","-","Please name all of the ways you could use this object. Keep in mind that one object can have many uses. Separate your responses with a comma.",NA,"y",35260,NA,NA,33932,34806,NA,NA,NA,"knife",1
"J00670274","r18m7f0a8y","Affordance Norms_South Alabama",1,11,"2022-11-26T20:32:58+00:00",18.612257957458,41,"updated stim.csv","Version41.csv","Version 41","List 41","suitcase",NA,1202,6.08,2583,1203,"BOI","-","-","Please name all of the ways you could use this object. Keep in mind that one object can have many uses. Separate your responses with a comma.",NA,"y",18256,NA,NA,1475,17077,NA,NA,NA,"travel, pack, carry, load, move, wheel, ",1
"J00670274","r18m7f0a8y","Affordance Norms_South Alabama",1,12,"2022-11-26T20:33:15+00:00",17.270667076111,41,"updated stim.csv","Version41.csv","Version 41","List 41","horseshoe",NA,1223,5.2,1316,1224,"BOI","-","-","Please name all of the ways you could use this object. Keep in mind that one object can have many uses. Separate your responses with a comma.",NA,"y",17054,NA,NA,2312,16469,NA,NA,NA,"racing, horse, protection, decor, wall art, games",1
"J00670274","r18m7f0a8y","Affordance Norms_South Alabama",1,13,"2022-11-26T20:33:28+00:00",12.626777887344,41,"updated stim.csv","Version41.csv","Version 41","List 41","brickwork",NA,1215,4.777777778,319,1216,"BOI","-","-","Please name all of the ways you could use this object. Keep in mind that one object can have many uses. Separate your responses with a comma.",NA,"y",12416,NA,NA,1601,11850,NA,NA,NA,"building, art, making, visual ",1
"J00670274","r18m7f0a8y","Affordance Norms_South Alabama",1,14,"2022-11-26T20:33:50+00:00",22.260424137115,41,"updated stim.csv","Version41.csv","Version 41","List 41","roommate",NA,1207,5.16,2189,1208,"BOI","-","-","Please name all of the ways you could use this object. Keep in mind that one object can have many uses. Separate your responses with a comma.",NA,"y",21890,NA,NA,2134,21210,NA,NA,NA,"fun, companion, buisness partner, making money",1
"J00670274","r18m7f0a8y","Affordance Norms_South Alabama",1,15,"2022-11-26T20:33:55+00:00",5.0786709785461,41,"updated stim.csv","Version41.csv","Version 41","List 41","calipers",NA,1204,4.666666667,403,1205,"BOI","-","-","Please name all of the ways you could use this object. Keep in mind that one object can have many uses. Separate your responses with a comma.",NA,"y",4801,NA,NA,2369,4146,NA,NA,NA,"idk ",1
"J00670274","r18m7f0a8y","Affordance Norms_South Alabama",1,16,"2022-11-26T20:34:17+00:00",21.828533887863,41,"updated stim.csv","Version41.csv","Version 41","List 41","broccoli",NA,1217,5.04,327,1218,"BOI","-","-","Please name all of the ways you could use this object. Keep in mind that one object can have many uses. Separate your responses with a comma.",NA,"y",21484,NA,NA,1058,20819,NA,NA,NA,"eating, cooking, baking, planting, gardening, crafts, decor",1
"J00670274","r18m7f0a8y","Affordance Norms_South Alabama",1,17,"2022-11-26T20:34:38+00:00",21.003931999207,41,"updated stim.csv","Version41.csv","Version 41","List 41","binoculars",NA,1205,6.16,218,1206,"BOI","-","-","Please name all of the ways you could use this object. Keep in mind that one object can have many uses. Separate your responses with a comma.",NA,"y",20647,NA,NA,1527,20038,NA,NA,NA,"spotting, vision, close up, zooming in, display, decor, investigation, science, education ",1
"J00670274","r18m7f0a8y","Affordance Norms_South Alabama",1,18,"2022-11-26T20:34:52+00:00",14.331885099411,41,"updated stim.csv","Version41.csv","Version 41","List 41","mammal",NA,1224,5.291666667,1585,1225,"BOI","-","-","Please name all of the ways you could use this object. Keep in mind that one object can have many uses. Separate your responses with a comma.",NA,"y",14102,NA,NA,2150,13497,NA,NA,NA,"food, pet, education, clothes, tools",1
"J00670274","r18m7f0a8y","Affordance Norms_South Alabama",1,19,"2022-11-26T20:35:08+00:00",16.442067861557,41,"updated stim.csv","Version41.csv","Version 41","List 41","chairwoman",NA,1219,4.347826087,488,1220,"BOI","-","-","Please name all of the ways you could use this object. Keep in mind that one object can have many uses. Separate your responses with a comma.",NA,"y",16218,NA,NA,3243,15482,NA,NA,NA,"taxes, buisness, education,",1
"J00670274","r18m7f0a8y","Affordance Norms_South Alabama",1,20,"2022-11-26T20:35:20+00:00",11.418493032455,41,"updated stim.csv","Version41.csv","Version 41","List 41","narcotics",NA,1225,4.956521739,1736,1226,"BOI","-","-","Please name all of the ways you could use this object. Keep in mind that one object can have many uses. Separate your responses with a comma.",NA,"y",11198,NA,NA,1770,7412,NA,NA,NA,"high, fun, play, ",1
"J00670274","r18m7f0a8y","Affordance Norms_South Alabama",1,21,"2022-11-26T20:35:27+00:00",7.3102700710297,41,"updated stim.csv","Version41.csv","Version 41","List 41","train",NA,1201,5.333333333,2756,1202,"BOI","-","-","Please name all of the ways you could use this object. Keep in mind that one object can have many uses. Separate your responses with a comma.",NA,"y",7096,NA,NA,1763,6386,NA,NA,NA,"ride, travel, move, transport",1
"J00670274","r18m7f0a8y","Affordance Norms_South Alabama",1,22,"2022-11-26T20:35:37+00:00",10.060297966003,41,"updated stim.csv","Version41.csv","Version 41","List 41","tepee",NA,1206,4.916666667,2665,1207,"BOI","-","-","Please name all of the ways you could use this object. Keep in mind that one object can have many uses. Separate your responses with a comma.",NA,"y",9856,NA,NA,3641,9023,NA,NA,NA,"camp, art, education ",1
"J00670274","r18m7f0a8y","Affordance Norms_South Alabama",1,23,"2022-11-26T20:35:44+00:00",6.7317099571228,41,"updated stim.csv","Version41.csv","Version 41","List 41","salt",NA,1230,5.260869565,2227,1231,"BOI","-","-","Please name all of the ways you could use this object. Keep in mind that one object can have many uses. Separate your responses with a comma.",NA,"y",6518,NA,NA,1900,5408,NA,NA,NA,"food taste, inhance,",1
"J00670274","r18m7f0a8y","Affordance Norms_South Alabama",1,24,"2022-11-26T20:35:55+00:00",10.72620010376,41,"updated stim.csv","Version41.csv","Version 41","List 41","damsel",NA,1203,4.652173913,752,1204,"BOI","-","-","Please name all of the ways you could use this object. Keep in mind that one object can have many uses. Separate your responses with a comma.",NA,"y",10512,NA,NA,2989,9535,NA,NA,NA,"art, movie, play, book, steretype ",1
"J00670274","r18m7f0a8y","Affordance Norms_South Alabama",1,25,"2022-11-26T20:36:01+00:00",6.5292389392853,41,"updated stim.csv","Version41.csv","Version 41","List 41","germ",NA,1220,4.333333333,1100,1221,"BOI","-","-","Please name all of the ways you could use this object. Keep in mind that one object can have many uses. Separate your responses with a comma.",NA,"y",6306,NA,NA,3033,5831,NA,NA,NA,"sickness, diease",1
"J00670274","r18m7f0a8y","Affordance Norms_South Alabama",1,26,"2022-11-26T20:36:08+00:00",6.4543900489807,41,"updated stim.csv","Version41.csv","Version 41","List 41","gift",NA,1208,5.380952381,1102,1209,"BOI","-","-","Please name all of the ways you could use this object. Keep in mind that one object can have many uses. Separate your responses with a comma.",NA,"y",6235,NA,NA,1766,5494,NA,NA,NA,"give, christmas, birthday",1
"J00670274","r18m7f0a8y","Affordance Norms_South Alabama",1,27,"2022-11-26T20:36:15+00:00",7.7316188812256,41,"updated stim.csv","Version41.csv","Version 41","List 41","lei",NA,1221,5.058823529,1488,1222,"BOI","-","-","Please name all of the ways you could use this object. Keep in mind that one object can have many uses. Separate your responses with a comma.",NA,"y",7524,NA,NA,2865,6129,NA,NA,NA,"travel, holiday, theme",1
"J00670274","r18m7f0a8y","Affordance Norms_South Alabama",1,28,"2022-11-26T20:36:20+00:00",4.9812841415405,41,"updated stim.csv","Version41.csv","Version 41","List 41","tricycle",NA,1210,6.173913043,2775,1211,"BOI","-","-","Please name all of the ways you could use this object. Keep in mind that one object can have many uses. Separate your responses with a comma.",NA,"y",4721,NA,NA,1386,4174,NA,NA,NA,"moving, traveling",1
"J00670274","r18m7f0a8y","Affordance Norms_South Alabama",1,29,"2022-11-26T20:36:30+00:00",9.2011170387268,41,"updated stim.csv","Version41.csv","Version 41","List 41","cologne",NA,1222,5.541666667,604,1223,"BOI","-","-","Please name all of the ways you could use this object. Keep in mind that one object can have many uses. Separate your responses with a comma.",NA,"y",8980,NA,NA,1685,7737,NA,NA,NA,"smelling good, seduction",1
"J00670274","r18m7f0a8y","Affordance Norms_South Alabama",1,30,"2022-11-26T20:36:33+00:00",3.7247598171234,41,"updated stim.csv","Version41.csv","Version 41","List 41","snail",NA,1227,4.52173913,2426,1228,"BOI","-","-","Please name all of the ways you could use this object. Keep in mind that one object can have many uses. Separate your responses with a comma.",NA,"y",3522,NA,NA,2105,2403,NA,NA,NA,"pet",1
"J00670274","r18m7f0a8y","Affordance Norms_South Alabama",1,31,"2022-11-26T20:36:40+00:00",6.3739809989929,41,"updated stim.csv","Version41.csv","Version 41","List 41","fedora",NA,1212,6.291666667,958,1213,"BOI","-","-","Please name all of the ways you could use this object. Keep in mind that one object can have many uses. Separate your responses with a comma.",NA,"y",6180,NA,NA,2113,5030,NA,NA,NA,"wear, art, ",1
"J00670274","r18m7f0a8y","Affordance Norms_South Alabama",1,32,"2022-11-26T20:36:43+00:00",3.3896951675415,41,"updated stim.csv","Version41.csv","Version 41","List 41","dildo",NA,1218,6.52173913,792,1219,"BOI","-","-","Please name all of the ways you could use this object. Keep in mind that one object can have many uses. Separate your responses with a comma.",NA,"y",3164,NA,NA,2236,2658,NA,NA,NA,"sex",1
"J00670274","r18m7f0a8y","Affordance Norms_South Alabama",1,33,"2022-11-26T20:36:49+00:00",5.524778842926,41,"updated stim.csv","Version41.csv","Version 41","List 41","bulb",NA,1211,5.391304348,351,1212,"BOI","-","-","Please name all of the ways you could use this object. Keep in mind that one object can have many uses. Separate your responses with a comma.",NA,"y",5322,NA,NA,1359,4468,NA,NA,NA,"light, creation",1
"J00670274","r18m7f0a8y","Affordance Norms_South Alabama",1,34,"2022-11-26T20:36:56+00:00",7.7538220882416,41,"updated stim.csv","Version41.csv","Version 41","List 41","broach",NA,1228,5.041666667,326,1229,"BOI","-","-","Please name all of the ways you could use this object. Keep in mind that one object can have many uses. Separate your responses with a comma.",NA,"y",7518,NA,NA,1889,5667,NA,NA,NA,"fashion, heirloom",1
"J00670274","r18m7f0a8y","Affordance Norms_South Alabama",1,35,"2022-11-26T20:37:00+00:00",3.8247139453888,41,"updated stim.csv","Version41.csv","Version 41","List 41","game",NA,1214,4.518518519,1071,1215,"BOI","-","-","Please name all of the ways you could use this object. Keep in mind that one object can have many uses. Separate your responses with a comma.",NA,"y",3627,NA,NA,1609,3036,NA,NA,NA,"fu, play",1
"J00670274","r18m7f0a8y","Affordance Norms_South Alabama",1,36,"2022-11-26T20:37:03+00:00",3.2054929733276,41,"updated stim.csv","Version41.csv","Version 41","List 41","backgammon",NA,1209,4.869565217,115,1210,"BOI","-","-","Please name all of the ways you could use this object. Keep in mind that one object can have many uses. Separate your responses with a comma.",NA,"y",3002,NA,NA,1803,2035,NA,NA,NA,"idk",1
"J00670274","r18m7f0a8y","Affordance Norms_South Alabama",1,37,"2022-11-26T20:37:12+00:00",8.6754150390625,41,"updated stim.csv","Version41.csv","Version 41","List 41","nutcracker",NA,1229,5.36,1790,1230,"BOI","-","-","Please name all of the ways you could use this object. Keep in mind that one object can have many uses. Separate your responses with a comma.",NA,"y",8472,NA,NA,1545,7266,NA,NA,NA,"christmas, traditon, cracking",1
"J00670274","r18m7f0a8y","Affordance Norms_South Alabama",1,38,"2022-11-26T20:37:17+00:00",5.3471910953522,41,"updated stim.csv","Version41.csv","Version 41","List 41","bridegroom",NA,1213,4.384615385,320,1214,"BOI","-","-","Please name all of the ways you could use this object. Keep in mind that one object can have many uses. Separate your responses with a comma.",NA,"y",5140,NA,NA,2651,4319,NA,NA,NA,"wedding, sex",1
"J00670274","r18m7f0a8y","Affordance Norms_South Alabama",1,39,"2022-11-26T20:37:25+00:00",7.5089709758759,41,"updated stim.csv","Version41.csv","Version 41","List 41","offspring",NA,1216,4.913043478,1801,1217,"BOI","-","-","Please name all of the ways you could use this object. Keep in mind that one object can have many uses. Separate your responses with a comma.",NA,"y",7303,NA,NA,1377,4842,NA,NA,NA,"finances, ",1
"J00670274","r18m7f0a8y","Affordance Norms_South Alabama",1,40,"2022-11-26T20:37:32+00:00",7.5441429615021,41,"updated stim.csv","Version41.csv","Version 41","List 41","taxi",NA,1226,5.464285714,2639,1227,"BOI","-","-","Please name all of the ways you could use this object. Keep in mind that one object can have many uses. Separate your responses with a comma.",NA,"y",7319,NA,NA,1488,6285,NA,NA,NA,"travel, movie",1
"J00685260_EMG","5gvtuxjrxy","Affordance Norms_South Alabama",1,11,"2022-11-27T21:27:58+00:00",36.708719015121,50,"updated stim.csv","Version50.csv","Version 50","List 50","necktie",NA,1482,6.043478261,1742,1483,"BOI","-","-","Please name all of the ways you could use this object. Keep in mind that one object can have many uses. Separate your responses with a comma.",NA,"y",36237,NA,NA,21998,35170,NA,NA,NA,"decorative piece of clothing for formal events",0.94
"J00685260_EMG","5gvtuxjrxy","Affordance Norms_South Alabama",1,12,"2022-11-27T21:28:36+00:00",38.013324022293,50,"updated stim.csv","Version50.csv","Version 50","List 50","metal",NA,1491,5.130434783,1650,1492,"BOI","-","-","Please name all of the ways you could use this object. Keep in mind that one object can have many uses. Separate your responses with a comma.",NA,"y",37380,NA,NA,11561,32494,NA,NA,NA,"construction, electronic uses, vehicles",0.888
"J00685260_EMG","5gvtuxjrxy","Affordance Norms_South Alabama",1,13,"2022-11-27T21:28:48+00:00",11.784569978714,50,"updated stim.csv","Version50.csv","Version 50","List 50","pineapple",NA,1477,6.304347826,1971,1478,"BOI","-","-","Please name all of the ways you could use this object. Keep in mind that one object can have many uses. Separate your responses with a comma.",NA,"y",11001,NA,NA,3898,10028,NA,NA,NA,"consumption by people and animals",1
"J00685260_EMG","5gvtuxjrxy","Affordance Norms_South Alabama",1,14,"2022-11-27T21:29:36+00:00",47.800972938538,50,"updated stim.csv","Version50.csv","Version 50","List 50","wildcat",NA,1474,4.583333333,2938,1475,"BOI","-","-","Please name all of the ways you could use this object. Keep in mind that one object can have many uses. Separate your responses with a comma.",NA,"y",46727,NA,NA,21543,45558,NA,NA,NA,"no idea",0.929
"J00685260_EMG","5gvtuxjrxy","Affordance Norms_South Alabama",1,15,"2022-11-27T21:30:13+00:00",37.504159927368,50,"updated stim.csv","Version50.csv","Version 50","List 50","geranium",NA,1471,4.695652174,1099,1472,"BOI","-","-","Please name all of the ways you could use this object. Keep in mind that one object can have many uses. Separate your responses with a comma.",NA,"y",30856,NA,NA,22962,29636,NA,NA,NA,"decorative plant for yards",0.865
"J00685260_EMG","5gvtuxjrxy","Affordance Norms_South Alabama",1,16,"2022-11-27T21:31:26+00:00",72.762390136719,50,"updated stim.csv","Version50.csv","Version 50","List 50","shavings",NA,1498,4.6,2325,1499,"BOI","-","-","Please name all of the ways you could use this object. Keep in mind that one object can have many uses. Separate your responses with a comma.",NA,"y",69322,NA,NA,67340,68607,NA,NA,NA,"mulch",0.725
"J00685260_EMG","5gvtuxjrxy","Affordance Norms_South Alabama",1,17,"2022-11-27T21:32:08+00:00",42.010097026825,50,"updated stim.csv","Version50.csv","Version 50","List 50","nanny",NA,1480,4.6,1734,1481,"BOI","-","-","Please name all of the ways you could use this object. Keep in mind that one object can have many uses. Separate your responses with a comma.",NA,"y",40382,NA,NA,32530,39325,NA,NA,NA,"childcare when parents can't",0.865
"J00685260_EMG","5gvtuxjrxy","Affordance Norms_South Alabama",1,18,"2022-11-27T21:32:44+00:00",35.904529809952,50,"updated stim.csv","Version50.csv","Version 50","List 50","needle",NA,1495,5.739130435,1745,1496,"BOI","-","-","Please name all of the ways you could use this object. Keep in mind that one object can have many uses. Separate your responses with a comma.",NA,"y",34894,NA,NA,2623,33886,NA,NA,NA,"sewing, drug injections, embroidery ",0.955
"J00685260_EMG","5gvtuxjrxy","Affordance Norms_South Alabama",1,19,"2022-11-27T21:33:47+00:00",63.311856031418,50,"updated stim.csv","Version50.csv","Version 50","List 50","joystick",NA,1472,6.12,1392,1473,"BOI","-","-","Please name all of the ways you could use this object. Keep in mind that one object can have many uses. Separate your responses with a comma.",NA,"y",62662,NA,NA,2776,13112,NA,NA,NA,"video games",0.902
"J00685260_EMG","5gvtuxjrxy","Affordance Norms_South Alabama",1,20,"2022-11-27T21:33:59+00:00",11.322731018066,50,"updated stim.csv","Version50.csv","Version 50","List 50","poultry",NA,1487,4.826086957,2053,1488,"BOI","-","-","Please name all of the ways you could use this object. Keep in mind that one object can have many uses. Separate your responses with a comma.",NA,"y",9476,NA,NA,2220,8642,NA,NA,NA,"consumption by humans and animals",1
"J00685260_EMG","5gvtuxjrxy","Affordance Norms_South Alabama",1,21,"2022-11-27T21:34:27+00:00",28.383043050766,50,"updated stim.csv","Version50.csv","Version 50","List 50","cliff",NA,1494,4.64,559,1495,"BOI","-","-","Please name all of the ways you could use this object. Keep in mind that one object can have many uses. Separate your responses with a comma.",NA,"y",24329,NA,NA,15165,19869,NA,NA,NA,"paragliding",0.9
"J00685260_EMG","5gvtuxjrxy","Affordance Norms_South Alabama",1,22,"2022-11-27T21:34:42+00:00",15.206264019012,50,"updated stim.csv","Version50.csv","Version 50","List 50","saddle",NA,1499,4.954545455,2212,1500,"BOI","-","-","Please name all of the ways you could use this object. Keep in mind that one object can have many uses. Separate your responses with a comma.",NA,"y",12529,NA,NA,7005,9528,NA,NA,NA,"riding animals",1
"J00685260_EMG","5gvtuxjrxy","Affordance Norms_South Alabama",1,23,"2022-11-27T21:35:05+00:00",22.432216882706,50,"updated stim.csv","Version50.csv","Version 50","List 50","coin",NA,1485,6.4,595,1486,"BOI","-","-","Please name all of the ways you could use this object. Keep in mind that one object can have many uses. Separate your responses with a comma.",NA,"y",21728,NA,NA,2188,20477,NA,NA,NA,"trading, rewarding individuals",1
"J00685260_EMG","5gvtuxjrxy","Affordance Norms_South Alabama",1,24,"2022-11-27T21:35:40+00:00",35.011909008026,50,"updated stim.csv","Version50.csv","Version 50","List 50","pullover",NA,1476,4.56,2093,1477,"BOI","-","-","Please name all of the ways you could use this object. Keep in mind that one object can have many uses. Separate your responses with a comma.",NA,"y",34268,NA,NA,19872,33072,NA,NA,NA,"clothing for cold environments",0.895
"J00685260_EMG","5gvtuxjrxy","Affordance Norms_South Alabama",1,25,"2022-11-27T21:36:01+00:00",21.235524177551,50,"updated stim.csv","Version50.csv","Version 50","List 50","grandson",NA,1486,5.785714286,1153,1487,"BOI","-","-","Please name all of the ways you could use this object. Keep in mind that one object can have many uses. Separate your responses with a comma.",NA,"y",20327,NA,NA,7403,13244,NA,NA,NA,"do your labor because you can't",1
"J00685260_EMG","5gvtuxjrxy","Affordance Norms_South Alabama",1,26,"2022-11-27T21:36:36+00:00",34.818539857864,50,"updated stim.csv","Version50.csv","Version 50","List 50","forehead",NA,1475,5.777777778,1045,1476,"BOI","-","-","Please name all of the ways you could use this object. Keep in mind that one object can have many uses. Separate your responses with a comma.",NA,"y",33706,NA,NA,11279,32440,NA,NA,NA,"slapping when you mess up",0.994
"J00685260_EMG","5gvtuxjrxy","Affordance Norms_South Alabama",1,27,"2022-11-27T21:37:05+00:00",28.641132116318,50,"updated stim.csv","Version50.csv","Version 50","List 50","councilwoman",NA,1488,4.583333333,664,1489,"BOI","-","-","Please name all of the ways you could use this object. Keep in mind that one object can have many uses. Separate your responses with a comma.",NA,"y",27952,NA,NA,24647,27054,NA,NA,NA,"law advice",0.732
"J00685260_EMG","5gvtuxjrxy","Affordance Norms_South Alabama",1,28,"2022-11-27T21:37:19+00:00",14.091017961502,50,"updated stim.csv","Version50.csv","Version 50","List 50","merchant",NA,1478,4.5,1648,1479,"BOI","-","-","Please name all of the ways you could use this object. Keep in mind that one object can have many uses. Separate your responses with a comma.",NA,"y",12886,NA,NA,8882,11210,NA,NA,NA,"trading",0.829
"J00685260_EMG","5gvtuxjrxy","Affordance Norms_South Alabama",1,29,"2022-11-27T21:37:33+00:00",14.205005884171,50,"updated stim.csv","Version50.csv","Version 50","List 50","potato",NA,1483,5.6,2047,1484,"BOI","-","-","Please name all of the ways you could use this object. Keep in mind that one object can have many uses. Separate your responses with a comma.",NA,"y",13355,NA,NA,5924,12408,NA,NA,NA,"consumption by humans and animals ",1
"J00685260_EMG","5gvtuxjrxy","Affordance Norms_South Alabama",1,30,"2022-11-27T21:37:39+00:00",6.2217631340027,50,"updated stim.csv","Version50.csv","Version 50","List 50","cent",NA,1473,5.12,477,1474,"BOI","-","-","Please name all of the ways you could use this object. Keep in mind that one object can have many uses. Separate your responses with a comma.",NA,"y",4397,NA,NA,2461,3530,NA,NA,NA,"trading",1
"J00685260_EMG","5gvtuxjrxy","Affordance Norms_South Alabama",1,31,"2022-11-27T21:38:01+00:00",22.447491884232,50,"updated stim.csv","Version50.csv","Version 50","List 50","sombrero",NA,1492,5.518518519,2449,1493,"BOI","-","-","Please name all of the ways you could use this object. Keep in mind that one object can have many uses. Separate your responses with a comma.",NA,"y",21468,NA,NA,18705,20601,NA,NA,NA,"sun protection",0.807
"J00685260_EMG","5gvtuxjrxy","Affordance Norms_South Alabama",1,32,"2022-11-27T21:38:19+00:00",17.410812139511,50,"updated stim.csv","Version50.csv","Version 50","List 50","muzzle",NA,1490,4.391304348,1730,1491,"BOI","-","-","Please name all of the ways you could use this object. Keep in mind that one object can have many uses. Separate your responses with a comma.",NA,"y",16651,NA,NA,8704,15110,NA,NA,NA,"accuracy and precision in rifles",1
"J00685260_EMG","5gvtuxjrxy","Affordance Norms_South Alabama",1,33,"2022-11-27T21:38:27+00:00",7.6707549095154,50,"updated stim.csv","Version50.csv","Version 50","List 50","celery",NA,1484,6.086956522,471,1485,"BOI","-","-","Please name all of the ways you could use this object. Keep in mind that one object can have many uses. Separate your responses with a comma.",NA,"y",6890,NA,NA,1824,6056,NA,NA,NA,"consumption by humans and animals",1
"J00685260_EMG","5gvtuxjrxy","Affordance Norms_South Alabama",1,34,"2022-11-27T21:38:34+00:00",7.3861839771271,50,"updated stim.csv","Version50.csv","Version 50","List 50","Ladder",NA,1497,6.117567568,1447,1498,"BOI","-","-","Please name all of the ways you could use this object. Keep in mind that one object can have many uses. Separate your responses with a comma.",NA,"y",5708,NA,NA,2317,4960,NA,NA,NA,"reaching high places",1
"J00685260_EMG","5gvtuxjrxy","Affordance Norms_South Alabama",1,35,"2022-11-27T21:39:02+00:00",28.074488162994,50,"updated stim.csv","Version50.csv","Version 50","List 50","drywall",NA,1481,5.208333333,858,1482,"BOI","-","-","Please name all of the ways you could use this object. Keep in mind that one object can have many uses. Separate your responses with a comma.",NA,"y",26829,NA,NA,22729,26099,NA,NA,NA,"creates walls and ceilings",0.857
"J00685260_EMG","5gvtuxjrxy","Affordance Norms_South Alabama",1,36,"2022-11-27T21:39:24+00:00",22.069847822189,50,"updated stim.csv","Version50.csv","Version 50","List 50","shallot",NA,1479,5.380952381,2319,1480,"BOI","-","-","Please name all of the ways you could use this object. Keep in mind that one object can have many uses. Separate your responses with a comma.",NA,"y",21311,NA,NA,15052,20320,NA,NA,NA,"consumption by humans and animals",0.839
"J00685260_EMG","5gvtuxjrxy","Affordance Norms_South Alabama",1,37,"2022-11-27T21:40:14+00:00",49.605735063553,50,"updated stim.csv","Version50.csv","Version 50","List 50","houseboy",NA,1500,4.583333333,1328,1501,"BOI","-","-","Please name all of the ways you could use this object. Keep in mind that one object can have many uses. Separate your responses with a comma.",NA,"y",39742,NA,NA,36357,38469,NA,NA,NA,"household chores",0.792
"J00685260_EMG","5gvtuxjrxy","Affordance Norms_South Alabama",1,38,"2022-11-27T21:40:24+00:00",10.200413942337,50,"updated stim.csv","Version50.csv","Version 50","List 50","pudding",NA,1496,5.958333333,2088,1497,"BOI","-","-","Please name all of the ways you could use this object. Keep in mind that one object can have many uses. Separate your responses with a comma.",NA,"y",5955,NA,NA,3378,4927,NA,NA,NA,"consumption",1
"J00685260_EMG","5gvtuxjrxy","Affordance Norms_South Alabama",1,39,"2022-11-27T21:40:59+00:00",35.016568183899,50,"updated stim.csv","Version50.csv","Version 50","List 50","corset",NA,1493,5.44,653,1494,"BOI","-","-","Please name all of the ways you could use this object. Keep in mind that one object can have many uses. Separate your responses with a comma.",NA,"y",31581,NA,NA,20786,30730,NA,NA,NA,"clothing to portray body in certain way",0.888
"J00685260_EMG","5gvtuxjrxy","Affordance Norms_South Alabama",1,40,"2022-11-27T21:41:11+00:00",12.028411865234,50,"updated stim.csv","Version50.csv","Version 50","List 50","orange",NA,1489,5.08,1814,1490,"BOI","-","-","Please name all of the ways you could use this object. Keep in mind that one object can have many uses. Separate your responses with a comma.",NA,"y",6926,NA,NA,2888,5790,NA,NA,NA,"consumption",1
"J00686057_cas","7dn61eorc2","Affordance Norms_South Alabama",1,11,"2022-11-16T23:54:46+00:00",24.913803100586,98,"updated stim.csv","Version98.csv","Version 98","List 98","busman",NA,2931,4.68,372,2932,"BOI","-","-","Please name all of the ways you could use this object. Keep in mind that one object can have many uses. Separate your responses with a comma.",NA,"y",24749,NA,NA,16621,23443,NA,NA,NA,"driving, talking, conversating",1
"J00686057_cas","7dn61eorc2","Affordance Norms_South Alabama",1,12,"2022-11-16T23:55:07+00:00",21.527634859085,98,"updated stim.csv","Version98.csv","Version 98","List 98","aluminum",NA,2930,5.083333333,32,2931,"BOI","-","-","Please name all of the ways you could use this object. Keep in mind that one object can have many uses. Separate your responses with a comma.",NA,"y",21356,NA,NA,1664,19986,NA,NA,NA,"wrapping, making shapes, covering, storage ",1
"J00686057_cas","7dn61eorc2","Affordance Norms_South Alabama",1,13,"2022-11-16T23:55:22+00:00",14.469260215759,98,"updated stim.csv","Version98.csv","Version 98","List 98","schoolwork",NA,2918,4.5,2273,2919,"BOI","-","-","Please name all of the ways you could use this object. Keep in mind that one object can have many uses. Separate your responses with a comma.",NA,"y",14350,NA,NA,3172,13141,NA,NA,NA,"typing, learning, doing, writing",1
"J00686057_cas","7dn61eorc2","Affordance Norms_South Alabama",1,14,"2022-11-16T23:55:33+00:00",11.59562587738,98,"updated stim.csv","Version98.csv","Version 98","List 98","hiker",NA,2927,5.260869565,1287,2928,"BOI","-","-","Please name all of the ways you could use this object. Keep in mind that one object can have many uses. Separate your responses with a comma.",NA,"y",11484,NA,NA,1851,10629,NA,NA,NA,"hiking, walking, sightseeing, exploring",1
"J00686057_cas","7dn61eorc2","Affordance Norms_South Alabama",1,15,"2022-11-16T23:55:55+00:00",21.738853931427,98,"updated stim.csv","Version98.csv","Version 98","List 98","townspeople",NA,2928,4.909090909,2749,2929,"BOI","-","-","Please name all of the ways you could use this object. Keep in mind that one object can have many uses. Separate your responses with a comma.",NA,"y",21563,NA,NA,3982,10121,NA,NA,NA,"working, playing, conversating",1
"J00686057_cas","7dn61eorc2","Affordance Norms_South Alabama",1,16,"2022-11-16T23:56:23+00:00",27.875185012817,98,"updated stim.csv","Version98.csv","Version 98","List 98","noose",NA,2929,4.708333333,1778,2930,"BOI","-","-","Please name all of the ways you could use this object. Keep in mind that one object can have many uses. Separate your responses with a comma.",NA,"y",27690,NA,NA,1574,25962,NA,NA,NA,"tying, hanging, securing",1
"J00686057_cas","7dn61eorc2","Affordance Norms_South Alabama",1,17,"2022-11-16T23:56:56+00:00",33.125151157379,98,"updated stim.csv","Version98.csv","Version 98","List 98","companion",NA,2936,5.739130435,611,2937,"BOI","-","-","Please name all of the ways you could use this object. Keep in mind that one object can have many uses. Separate your responses with a comma.",NA,"y",32950,NA,NA,1611,30082,NA,NA,NA,"talking, venting, laughing, crying, playing",1
"J00686057_cas","7dn61eorc2","Affordance Norms_South Alabama",1,18,"2022-11-16T23:57:15+00:00",18.890466928482,98,"updated stim.csv","Version98.csv","Version 98","List 98","pinball",NA,2925,5.782608696,1968,2926,"BOI","-","-","Please name all of the ways you could use this object. Keep in mind that one object can have many uses. Separate your responses with a comma.",NA,"y",18782,NA,NA,1678,3185,NA,NA,NA,"playing",1
"J00686057_cas","7dn61eorc2","Affordance Norms_South Alabama",1,19,"2022-11-16T23:57:27+00:00",11.869266986847,98,"updated stim.csv","Version98.csv","Version 98","List 98","gun",NA,2923,6.12,1198,2924,"BOI","-","-","Please name all of the ways you could use this object. Keep in mind that one object can have many uses. Separate your responses with a comma.",NA,"y",11758,NA,NA,1687,10430,NA,NA,NA,"shooting, cocking, defending",1
"J00686057_cas","7dn61eorc2","Affordance Norms_South Alabama",1,20,"2022-11-16T23:58:29+00:00",62.576163053513,98,"updated stim.csv","Version98.csv","Version 98","List 98","wrestler",NA,2920,4.96,2981,2921,"BOI","-","-","Please name all of the ways you could use this object. Keep in mind that one object can have many uses. Separate your responses with a comma.",NA,"y",62411,NA,NA,54861,57241,NA,NA,NA,"wrestling",0.674
"J00686057_cas","7dn61eorc2","Affordance Norms_South Alabama",1,21,"2022-11-16T23:59:13+00:00",43.543613910675,98,"updated stim.csv","Version98.csv","Version 98","List 98","cowhide",NA,2922,4.6,672,2923,"BOI","-","-","Please name all of the ways you could use this object. Keep in mind that one object can have many uses. Separate your responses with a comma.",NA,"y",43379,NA,NA,18725,42357,NA,NA,NA,"decorating, accessorising, crafting",0.981
"J00686057_cas","7dn61eorc2","Affordance Norms_South Alabama",1,22,"2022-11-16T23:59:23+00:00",10.17423415184,98,"updated stim.csv","Version98.csv","Version 98","List 98","harness",NA,2913,4.4,1252,2914,"BOI","-","-","Please name all of the ways you could use this object. Keep in mind that one object can have many uses. Separate your responses with a comma.",NA,"y",10066,NA,NA,1815,7430,NA,NA,NA,"harnessing, controlling",1
"J00686057_cas","7dn61eorc2","Affordance Norms_South Alabama",1,23,"2022-11-16T23:59:39+00:00",16.318995952606,98,"updated stim.csv","Version98.csv","Version 98","List 98","meteorologist",NA,2935,4.875,1652,2936,"BOI","-","-","Please name all of the ways you could use this object. Keep in mind that one object can have many uses. Separate your responses with a comma.",NA,"y",16206,NA,NA,4707,14849,NA,NA,NA,"predicting, telling weather, talking",1
"J00686057_cas","7dn61eorc2","Affordance Norms_South Alabama",1,24,"2022-11-16T23:59:59+00:00",19.332285881042,98,"updated stim.csv","Version98.csv","Version 98","List 98","document",NA,2915,4.818181818,810,2916,"BOI","-","-","Please name all of the ways you could use this object. Keep in mind that one object can have many uses. Separate your responses with a comma.",NA,"y",19231,NA,NA,1465,18539,NA,NA,NA,"filing, typing, submitting, copying, sending",1
"J00686057_cas","7dn61eorc2","Affordance Norms_South Alabama",1,25,"2022-11-17T00:00:16+00:00",17.033647060394,98,"updated stim.csv","Version98.csv","Version 98","List 98","sand",NA,2937,5.956521739,2231,2938,"BOI","-","-","Please name all of the ways you could use this object. Keep in mind that one object can have many uses. Separate your responses with a comma.",NA,"y",16928,NA,NA,2582,8826,NA,NA,NA,"playing, shaping, crafting",1
"J00686057_cas","7dn61eorc2","Affordance Norms_South Alabama",1,26,"2022-11-17T00:00:29+00:00",13.60232591629,98,"updated stim.csv","Version98.csv","Version 98","List 98","scallop",NA,2921,5.48,2261,2922,"BOI","-","-","Please name all of the ways you could use this object. Keep in mind that one object can have many uses. Separate your responses with a comma.",NA,"y",13491,NA,NA,1548,12140,NA,NA,NA,"eating, cooking",0.907
"J00686057_cas","7dn61eorc2","Affordance Norms_South Alabama",1,27,"2022-11-17T00:01:13+00:00",43.983185052872,98,"updated stim.csv","Version98.csv","Version 98","List 98","hostel",NA,2924,4.708333333,1320,2925,"BOI","-","-","Please name all of the ways you could use this object. Keep in mind that one object can have many uses. Separate your responses with a comma.",NA,"y",43820,NA,NA,34291,41743,NA,NA,NA,"sleeping, shelter",1
"J00686057_cas","7dn61eorc2","Affordance Norms_South Alabama",1,28,"2022-11-17T00:01:28+00:00",14.255558013916,98,"updated stim.csv","Version98.csv","Version 98","List 98","plaque",NA,2914,4.52,1992,2915,"BOI","-","-","Please name all of the ways you could use this object. Keep in mind that one object can have many uses. Separate your responses with a comma.",NA,"y",14141,NA,NA,3030,13015,NA,NA,NA,"cleaning, flossing, brushing",1
"J00686057_cas","7dn61eorc2","Affordance Norms_South Alabama",1,29,"2022-11-17T00:01:47+00:00",19.561536073685,98,"updated stim.csv","Version98.csv","Version 98","List 98","gynecologist",NA,2911,4.833333333,1206,2912,"BOI","-","-","Please name all of the ways you could use this object. Keep in mind that one object can have many uses. Separate your responses with a comma.",NA,"y",19458,NA,NA,6207,17979,NA,NA,NA,"talking, learning, diagnosing, checking",1
"J00686057_cas","7dn61eorc2","Affordance Norms_South Alabama",1,30,"2022-11-17T00:02:02+00:00",14.565619945526,98,"updated stim.csv","Version98.csv","Version 98","List 98","astronaut",NA,2919,4.357142857,91,2920,"BOI","-","-","Please name all of the ways you could use this object. Keep in mind that one object can have many uses. Separate your responses with a comma.",NA,"y",14424,NA,NA,1546,12862,NA,NA,NA,"exploring, flying, piloting ",1
"J00686057_cas","7dn61eorc2","Affordance Norms_South Alabama",1,31,"2022-11-17T00:02:37+00:00",35.411495923996,98,"updated stim.csv","Version98.csv","Version 98","List 98","lens",NA,2917,5.115384615,1491,2918,"BOI","-","-","Please name all of the ways you could use this object. Keep in mind that one object can have many uses. Separate your responses with a comma.",NA,"y",35237,NA,NA,10563,28491,NA,NA,NA,"looking, seeing",1
"J00686057_cas","7dn61eorc2","Affordance Norms_South Alabama",1,32,"2022-11-17T00:03:08+00:00",30.98860001564,98,"updated stim.csv","Version98.csv","Version 98","List 98","fender",NA,2926,4.791666667,963,2927,"BOI","-","-","Please name all of the ways you could use this object. Keep in mind that one object can have many uses. Separate your responses with a comma.",NA,"y",30822,NA,NA,26640,29038,NA,NA,NA,"framing",0.708
"J00686057_cas","7dn61eorc2","Affordance Norms_South Alabama",1,33,"2022-11-17T00:03:37+00:00",28.958825111389,98,"updated stim.csv","Version98.csv","Version 98","List 98","clothes",NA,2939,6.08,569,2940,"BOI","-","-","Please name all of the ways you could use this object. Keep in mind that one object can have many uses. Separate your responses with a comma.",NA,"y",28789,NA,NA,1181,27204,NA,NA,NA,"wearing, sewing, cleaning, washing, drying, tailoring, crafting",1
"J00686057_cas","7dn61eorc2","Affordance Norms_South Alabama",1,34,"2022-11-17T00:03:41+00:00",4.1291790008545,98,"updated stim.csv","Version98.csv","Version 98","List 98","knot",NA,2916,5.76,1438,2917,"BOI","-","-","Please name all of the ways you could use this object. Keep in mind that one object can have many uses. Separate your responses with a comma.",NA,"y",4009,NA,NA,1238,2337,NA,NA,NA,"tying",1
"J00686057_cas","7dn61eorc2","Affordance Norms_South Alabama",1,35,"2022-11-17T00:03:53+00:00",12.240885019302,98,"updated stim.csv","Version98.csv","Version 98","List 98","kale",NA,2912,5.652173913,1399,2913,"BOI","-","-","Please name all of the ways you could use this object. Keep in mind that one object can have many uses. Separate your responses with a comma.",NA,"y",12132,NA,NA,1260,10440,NA,NA,NA,"eating, shredding, mixing",1
"J00686057_cas","7dn61eorc2","Affordance Norms_South Alabama",1,36,"2022-11-17T00:04:18+00:00",24.087334871292,98,"updated stim.csv","Version98.csv","Version 98","List 98","buttercup",NA,2933,5.48,376,2934,"BOI","-","-","Please name all of the ways you could use this object. Keep in mind that one object can have many uses. Separate your responses with a comma.",NA,"y",23922,NA,NA,11779,22393,NA,NA,NA,"smelling, seeing, admiring",0.878
"J00686057_cas","7dn61eorc2","Affordance Norms_South Alabama",1,37,"2022-11-17T00:05:43+00:00",85.84907913208,98,"updated stim.csv","Version98.csv","Version 98","List 98","nipple",NA,2934,5.625,1775,2935,"BOI","-","-","Please name all of the ways you could use this object. Keep in mind that one object can have many uses. Separate your responses with a comma.",NA,"y",85669,NA,NA,81839,83681,NA,NA,NA,"pumping",0.358
"J00686057_cas","7dn61eorc2","Affordance Norms_South Alabama",1,38,"2022-11-17T00:06:01+00:00",17.616901874542,98,"updated stim.csv","Version98.csv","Version 98","List 98","tutu",NA,2932,5.413793103,2808,2933,"BOI","-","-","Please name all of the ways you could use this object. Keep in mind that one object can have many uses. Separate your responses with a comma.",NA,"y",17481,NA,NA,2591,16396,NA,NA,NA,"wearing, dancing, dress-up",1
"J00686057_cas","7dn61eorc2","Affordance Norms_South Alabama",1,39,"2022-11-17T00:06:20+00:00",19.113608121872,98,"updated stim.csv","Version98.csv","Version 98","List 98","magnet",NA,2940,5.615384615,1572,2941,"BOI","-","-","Please name all of the ways you could use this object. Keep in mind that one object can have many uses. Separate your responses with a comma.",NA,"y",18977,NA,NA,2914,17027,NA,NA,NA,"attracting, sticking",1
"J00686057_cas","7dn61eorc2","Affordance Norms_South Alabama",1,40,"2022-11-17T00:06:51+00:00",30.556803941727,98,"updated stim.csv","Version98.csv","Version 98","List 98","quarterback",NA,2938,4.346153846,2111,2939,"BOI","-","-","Please name all of the ways you could use this object. Keep in mind that one object can have many uses. Separate your responses with a comma.",NA,"y",30345,NA,NA,1823,28263,NA,NA,NA,"playing, running",0.756
