"Username","ID","ExperimentName","Session","Trial","Date","TimeDif","Condition.Number","Stimuli.File","Order.File","Condition.Description","Condition.Notes","Stimuli.Cue","Stimuli.Answer","Stimuli.Shuffle","Stimuli.Stimuli.Notes","Stimuli.Value","Stimuli.Rand","Procedure.Item","Procedure.Trial.Type","Procedure.Max.Time","Procedure.Min.Time","Procedure.Text","Procedure.Procedure.Notes","Procedure.Shuffle","Response.RT","Response.Response","Response.Accuracy","Response.RTfirst","Response.RTlast","Response.strictAcc","Response.lenientAcc","Response.focus","Response.JOL","Response.Focus"
"10001222AO","bzy03725md","BOI Norms",1,11,"2022-03-30T03:59:03+00:00",9.151458978653,3,"updated stim.csv","Version78.csv","Version 78","List 78","bookbinder",NA,2312,4.75,271,0.461851371,2313,"BOI","-","-","Please name all of the ways you could use this object. Keep in mind that one object can have many uses. Separate your responses with a comma.",NA,"y",8818,NA,NA,2902,4763,NA,NA,NA,"hold",1
"10001222AO","bzy03725md","BOI Norms",1,12,"2022-03-30T03:59:22+00:00",18.948201179504,3,"updated stim.csv","Version78.csv","Version 78","List 78","turkey",NA,2339,4.833333333,2801,0.26724413,2340,"BOI","-","-","Please name all of the ways you could use this object. Keep in mind that one object can have many uses. Separate your responses with a comma.",NA,"y",18606,NA,NA,1923,12354,NA,NA,NA,"eat, cook",1
"10001222AO","bzy03725md","BOI Norms",1,13,"2022-03-30T03:59:37+00:00",14.636992931366,3,"updated stim.csv","Version78.csv","Version 78","List 78","dresser",NA,2332,5.04,844,0.671546339,2333,"BOI","-","-","Please name all of the ways you could use this object. Keep in mind that one object can have many uses. Separate your responses with a comma.",NA,"y",14284,NA,NA,12444,13602,NA,NA,NA,"stuffed",1
"10001222AO","bzy03725md","BOI Norms",1,14,"2022-03-30T03:59:54+00:00",17.421688079834,3,"updated stim.csv","Version78.csv","Version 78","List 78","friend",NA,2313,5,1057,0.768934119,2314,"BOI","-","-","Please name all of the ways you could use this object. Keep in mind that one object can have many uses. Separate your responses with a comma.",NA,"y",17067,NA,NA,3828,15838,NA,NA,NA,"Support, humor, loyalty",1
"10001222AO","bzy03725md","BOI Norms",1,15,"2022-03-30T03:59:59+00:00",4.6564018726349,3,"updated stim.csv","Version78.csv","Version 78","List 78","sphincter",NA,2322,4.88,2469,0.005777489,2323,"BOI","-","-","Please name all of the ways you could use this object. Keep in mind that one object can have many uses. Separate your responses with a comma.",NA,"y",4322,NA,NA,3481,3481,NA,NA,NA,"?",1
"10001222AO","bzy03725md","BOI Norms",1,16,"2022-03-30T04:00:04+00:00",5.2953140735626,3,"updated stim.csv","Version78.csv","Version 78","List 78","mirror",NA,2328,6.086956522,1667,0.226109729,2329,"BOI","-","-","Please name all of the ways you could use this object. Keep in mind that one object can have many uses. Separate your responses with a comma.",NA,"y",4958,NA,NA,2654,3783,NA,NA,NA,"reflect",1
"10001222AO","bzy03725md","BOI Norms",1,17,"2022-03-30T04:00:19+00:00",14.452241897583,3,"updated stim.csv","Version78.csv","Version 78","List 78","gymnast",NA,2320,5,1205,0.491360586,2321,"BOI","-","-","Please name all of the ways you could use this object. Keep in mind that one object can have many uses. Separate your responses with a comma.",NA,"y",14106,NA,NA,2805,13191,NA,NA,NA,"twirl, jump, bend, twist, flip",1
"10001222AO","bzy03725md","BOI Norms",1,18,"2022-03-30T04:00:27+00:00",8.7543320655823,3,"updated stim.csv","Version78.csv","Version 78","List 78","goddaughter",NA,2340,5.04,1126,0.939122415,2341,"BOI","-","-","Please name all of the ways you could use this object. Keep in mind that one object can have many uses. Separate your responses with a comma.",NA,"y",8412,NA,NA,7610,7610,NA,NA,NA,"?",1
"10001222AO","bzy03725md","BOI Norms",1,19,"2022-03-30T04:00:33+00:00",5.4554340839386,3,"updated stim.csv","Version78.csv","Version 78","List 78","mousse",NA,2334,5.260869565,1703,0.29265278,2335,"BOI","-","-","Please name all of the ways you could use this object. Keep in mind that one object can have many uses. Separate your responses with a comma.",NA,"y",5114,NA,NA,3148,3973,NA,NA,NA,"style",1
"10001222AO","bzy03725md","BOI Norms",1,20,"2022-03-30T04:00:47+00:00",14.050837993622,3,"updated stim.csv","Version78.csv","Version 78","List 78","bully",NA,2324,4.857142857,356,0.503281238,2325,"BOI","-","-","Please name all of the ways you could use this object. Keep in mind that one object can have many uses. Separate your responses with a comma.",NA,"y",13688,NA,NA,5707,12911,NA,NA,NA,"beat up, steal, push",1
"10001222AO","bzy03725md","BOI Norms",1,21,"2022-03-30T04:00:52+00:00",5.1110830307007,3,"updated stim.csv","Version78.csv","Version 78","List 78","pretzel",NA,2321,6.04,2061,0.687271848,2322,"BOI","-","-","Please name all of the ways you could use this object. Keep in mind that one object can have many uses. Separate your responses with a comma.",NA,"y",4775,NA,NA,2245,3846,NA,NA,NA,"eat, held",1
"10001222AO","bzy03725md","BOI Norms",1,22,"2022-03-30T04:00:55+00:00",2.8575158119202,3,"updated stim.csv","Version78.csv","Version 78","List 78","windsock",NA,2330,4.391304348,2946,0.038283571,2331,"BOI","-","-","Please name all of the ways you could use this object. Keep in mind that one object can have many uses. Separate your responses with a comma.",NA,"y",2626,NA,NA,1835,1835,NA,NA,NA,"?",1
"10001222AO","bzy03725md","BOI Norms",1,23,"2022-03-30T04:00:59+00:00",4.0583231449127,3,"updated stim.csv","Version78.csv","Version 78","List 78","urn",NA,2338,4.791666667,2829,0.342669345,2339,"BOI","-","-","Please name all of the ways you could use this object. Keep in mind that one object can have many uses. Separate your responses with a comma.",NA,"y",3837,NA,NA,2429,3154,NA,NA,NA,"filled",1
"10001222AO","bzy03725md","BOI Norms",1,24,"2022-03-30T04:01:08+00:00",9.295569896698,3,"updated stim.csv","Version78.csv","Version 78","List 78","silverware",NA,2315,6.24,2383,0.774426058,2316,"BOI","-","-","Please name all of the ways you could use this object. Keep in mind that one object can have many uses. Separate your responses with a comma.",NA,"y",8945,NA,NA,1920,8137,NA,NA,NA,"washed, eaten, cut",1
"10001222AO","bzy03725md","BOI Norms",1,25,"2022-03-30T04:01:21+00:00",12.478697061539,3,"updated stim.csv","Version78.csv","Version 78","List 78","kiss",NA,2311,4.571428571,1422,0.943335028,2312,"BOI","-","-","Please name all of the ways you could use this object. Keep in mind that one object can have many uses. Separate your responses with a comma.",NA,"y",12126,NA,NA,6557,11301,NA,NA,NA,"friend, couple, family",1
"10001222AO","bzy03725md","BOI Norms",1,26,"2022-03-30T04:01:24+00:00",3.0242359638214,3,"updated stim.csv","Version78.csv","Version 78","List 78","roadster",NA,2329,4.96,2177,0.847078991,2330,"BOI","-","-","Please name all of the ways you could use this object. Keep in mind that one object can have many uses. Separate your responses with a comma.",NA,"y",2778,NA,NA,2003,2003,NA,NA,NA,"?",1
"10001222AO","bzy03725md","BOI Norms",1,27,"2022-03-30T04:01:33+00:00",9.1654229164124,3,"updated stim.csv","Version78.csv","Version 78","List 78","butcher",NA,2336,4.739130435,373,0.369005695,2337,"BOI","-","-","Please name all of the ways you could use this object. Keep in mind that one object can have many uses. Separate your responses with a comma.",NA,"y",8828,NA,NA,1962,8128,NA,NA,NA,"chop, cut, throw, package",1
"10001222AO","bzy03725md","BOI Norms",1,28,"2022-03-30T04:01:37+00:00",4.5463809967041,3,"updated stim.csv","Version78.csv","Version 78","List 78","garter",NA,2327,4.904761905,1083,0.246258385,2328,"BOI","-","-","Please name all of the ways you could use this object. Keep in mind that one object can have many uses. Separate your responses with a comma.",NA,"y",4202,NA,NA,2923,3525,NA,NA,NA,"wear",1
"10001222AO","bzy03725md","BOI Norms",1,29,"2022-03-30T04:01:49+00:00",11.962972164154,3,"updated stim.csv","Version78.csv","Version 78","List 78","cop",NA,2319,4.458333333,635,0.734992749,2320,"BOI","-","-","Please name all of the ways you could use this object. Keep in mind that one object can have many uses. Separate your responses with a comma.",NA,"y",11620,NA,NA,3353,7449,NA,NA,NA,"run, shoot, drive",1
"10001222AO","bzy03725md","BOI Norms",1,30,"2022-03-30T04:01:56+00:00",6.6180539131165,3,"updated stim.csv","Version78.csv","Version 78","List 78","drawstring",NA,2314,5.28,842,0.923833407,2315,"BOI","-","-","Please name all of the ways you could use this object. Keep in mind that one object can have many uses. Separate your responses with a comma.",NA,"y",6270,NA,NA,2304,3296,NA,NA,NA,"tie",1
"10001222AO","bzy03725md","BOI Norms",1,31,"2022-03-30T04:02:02+00:00",5.5474269390106,3,"updated stim.csv","Version78.csv","Version 78","List 78","plantain",NA,2316,5.409090909,1990,0.820216404,2317,"BOI","-","-","Please name all of the ways you could use this object. Keep in mind that one object can have many uses. Separate your responses with a comma.",NA,"y",5220,NA,NA,2129,4613,NA,NA,NA,"eaten, cooked",1
"10001222AO","bzy03725md","BOI Norms",1,32,"2022-03-30T04:02:05+00:00",3.6766781806946,3,"updated stim.csv","Version78.csv","Version 78","List 78","bonnet",NA,2317,6.043478261,269,0.199553809,2318,"BOI","-","-","Please name all of the ways you could use this object. Keep in mind that one object can have many uses. Separate your responses with a comma.",NA,"y",3431,NA,NA,1952,2593,NA,NA,NA,"wear",1
"10001222AO","bzy03725md","BOI Norms",1,33,"2022-03-30T04:02:12+00:00",6.6577198505402,3,"updated stim.csv","Version78.csv","Version 78","List 78","cigarette",NA,2326,6.272727273,543,0.024884146,2327,"BOI","-","-","Please name all of the ways you could use this object. Keep in mind that one object can have many uses. Separate your responses with a comma.",NA,"y",6309,NA,NA,1934,4031,NA,NA,NA,"smoked, held",1
"10001222AO","bzy03725md","BOI Norms",1,34,"2022-03-30T04:02:20+00:00",8.3390381336212,3,"updated stim.csv","Version78.csv","Version 78","List 78","tavern",NA,2337,4.36,2638,0.476901058,2338,"BOI","-","-","Please name all of the ways you could use this object. Keep in mind that one object can have many uses. Separate your responses with a comma.",NA,"y",7997,NA,NA,3170,6332,NA,NA,NA,"shelter",1
"10001222AO","bzy03725md","BOI Norms",1,35,"2022-03-30T04:02:27+00:00",7.113107919693,3,"updated stim.csv","Version78.csv","Version 78","List 78","sugarcane",NA,2335,5.043478261,2581,0.24502885,2336,"BOI","-","-","Please name all of the ways you could use this object. Keep in mind that one object can have many uses. Separate your responses with a comma.",NA,"y",6777,NA,NA,1797,6071,NA,NA,NA,"eaten, smelled, looked at",1
"10001222AO","bzy03725md","BOI Norms",1,36,"2022-03-30T04:02:34+00:00",6.8787059783936,3,"updated stim.csv","Version78.csv","Version 78","List 78","ribbon",NA,2333,6.375,2165,0.050087732,2334,"BOI","-","-","Please name all of the ways you could use this object. Keep in mind that one object can have many uses. Separate your responses with a comma.",NA,"y",6520,NA,NA,2093,4399,NA,NA,NA,"tied up",1
"10001222AO","bzy03725md","BOI Norms",1,37,"2022-03-30T04:02:42+00:00",7.9148449897766,3,"updated stim.csv","Version78.csv","Version 78","List 78","rug",NA,2318,6.173913043,2204,0.561473521,2319,"BOI","-","-","Please name all of the ways you could use this object. Keep in mind that one object can have many uses. Separate your responses with a comma.",NA,"y",7564,NA,NA,4440,5915,NA,NA,NA,"decoration",1
"10001222AO","bzy03725md","BOI Norms",1,38,"2022-03-30T04:02:51+00:00",8.6233489513397,3,"updated stim.csv","Version78.csv","Version 78","List 78","colleague",NA,2325,5.724137931,602,0.146664058,2326,"BOI","-","-","Please name all of the ways you could use this object. Keep in mind that one object can have many uses. Separate your responses with a comma.",NA,"y",8288,NA,NA,3962,7603,NA,NA,NA,"help, support, friend",1
"10001222AO","bzy03725md","BOI Norms",1,39,"2022-03-30T04:02:58+00:00",6.8416299819946,3,"updated stim.csv","Version78.csv","Version 78","List 78","turnstile",NA,2323,4.818181818,2803,0.709723973,2324,"BOI","-","-","Please name all of the ways you could use this object. Keep in mind that one object can have many uses. Separate your responses with a comma.",NA,"y",6483,NA,NA,3941,5751,NA,NA,NA,"Move",1
"10001222AO","bzy03725md","BOI Norms",1,40,"2022-03-30T04:03:02+00:00",4.8060550689697,3,"updated stim.csv","Version78.csv","Version 78","List 78","limeade",NA,2331,4.75,1513,0.129339551,2332,"BOI","-","-","Please name all of the ways you could use this object. Keep in mind that one object can have many uses. Separate your responses with a comma.",NA,"y",4466,NA,NA,3031,3726,NA,NA,NA,"Drink",1
"10116618AC","n03jsz4x8e","BOI Norms",1,11,"2022-03-24T21:05:41+00:00",8.0167961120605,16,"updated stim.csv","Version91.csv","Version 91","List 91","hailstone",NA,2722,5,1208,0.564230675,2723,"BOI","-","-","Please name all of the ways you could use this object. Keep in mind that one object can have many uses. Separate your responses with a comma.",NA,"y",7899,NA,NA,5156,7014,NA,NA,NA,"not sure",1
"10116618AC","n03jsz4x8e","BOI Norms",1,12,"2022-03-24T21:06:03+00:00",21.468837976456,16,"updated stim.csv","Version91.csv","Version 91","List 91","stepsister",NA,2713,5.333333333,2529,0.9206728,2714,"BOI","-","-","Please name all of the ways you could use this object. Keep in mind that one object can have many uses. Separate your responses with a comma.",NA,"y",21345,NA,NA,6885,20546,NA,NA,NA,"guidance, love, family",1
"10116618AC","n03jsz4x8e","BOI Norms",1,13,"2022-03-24T21:06:14+00:00",11.381959915161,16,"updated stim.csv","Version91.csv","Version 91","List 91","present",NA,2721,4.32,2060,0.47598815,2722,"BOI","-","-","Please name all of the ways you could use this object. Keep in mind that one object can have many uses. Separate your responses with a comma.",NA,"y",11255,NA,NA,1653,7871,NA,NA,NA,"used, cooked, played",1
"10116618AC","n03jsz4x8e","BOI Norms",1,14,"2022-03-24T21:06:28+00:00",14.067776918411,16,"updated stim.csv","Version91.csv","Version 91","List 91","sister",NA,2730,4.8,2387,0.181723275,2731,"BOI","-","-","Please name all of the ways you could use this object. Keep in mind that one object can have many uses. Separate your responses with a comma.",NA,"y",13934,NA,NA,1647,12924,NA,NA,NA,"love, hate, close, fun",1
"10116618AC","n03jsz4x8e","BOI Norms",1,15,"2022-03-24T21:06:46+00:00",17.4912981987,16,"updated stim.csv","Version91.csv","Version 91","List 91","shirtsleeve",NA,2702,6.125,2347,0.794932287,2703,"BOI","-","-","Please name all of the ways you could use this object. Keep in mind that one object can have many uses. Separate your responses with a comma.",NA,"y",17367,NA,NA,2017,11221,NA,NA,NA,"worn, tear",1
"10116618AC","n03jsz4x8e","BOI Norms",1,16,"2022-03-24T21:06:52+00:00",6.521931886673,16,"updated stim.csv","Version91.csv","Version 91","List 91","record",NA,2725,4.75,2147,0.795554894,2726,"BOI","-","-","Please name all of the ways you could use this object. Keep in mind that one object can have many uses. Separate your responses with a comma.",NA,"y",6398,NA,NA,1820,5452,NA,NA,NA,"played, visual",1
"10116618AC","n03jsz4x8e","BOI Norms",1,17,"2022-03-24T21:06:57+00:00",5.0281419754028,16,"updated stim.csv","Version91.csv","Version 91","List 91","acrobat",NA,2705,5.043478261,9,0.473646521,2706,"BOI","-","-","Please name all of the ways you could use this object. Keep in mind that one object can have many uses. Separate your responses with a comma.",NA,"y",4914,NA,NA,2136,3617,NA,NA,NA,"watched",1
"10116618AC","n03jsz4x8e","BOI Norms",1,18,"2022-03-24T21:07:05+00:00",8.2578139305115,16,"updated stim.csv","Version91.csv","Version 91","List 91","clothesline",NA,2704,5.333333333,570,0.725946553,2705,"BOI","-","-","Please name all of the ways you could use this object. Keep in mind that one object can have many uses. Separate your responses with a comma.",NA,"y",8140,NA,NA,2801,7355,NA,NA,NA,"used, clothes",1
"10116618AC","n03jsz4x8e","BOI Norms",1,19,"2022-03-24T21:07:11+00:00",5.5080552101135,16,"updated stim.csv","Version91.csv","Version 91","List 91","midget",NA,2708,4.821428571,1657,0.005998145,2709,"BOI","-","-","Please name all of the ways you could use this object. Keep in mind that one object can have many uses. Separate your responses with a comma.",NA,"y",5385,NA,NA,3642,4646,NA,NA,NA,"not sure",1
"10116618AC","n03jsz4x8e","BOI Norms",1,20,"2022-03-24T21:07:29+00:00",17.659039974213,16,"updated stim.csv","Version91.csv","Version 91","List 91","moustache",NA,2719,5.347826087,1704,0.723940671,2720,"BOI","-","-","Please name all of the ways you could use this object. Keep in mind that one object can have many uses. Separate your responses with a comma.",NA,"y",17526,NA,NA,2644,16681,NA,NA,NA,"sexual, man",1
"10116618AC","n03jsz4x8e","BOI Norms",1,21,"2022-03-24T21:07:37+00:00",8.1479167938232,16,"updated stim.csv","Version91.csv","Version 91","List 91","penthouse",NA,2715,4.333333333,1918,0.574224431,2716,"BOI","-","-","Please name all of the ways you could use this object. Keep in mind that one object can have many uses. Separate your responses with a comma.",NA,"y",8023,NA,NA,2140,6324,NA,NA,NA,"lived, viewed",1
"10116618AC","n03jsz4x8e","BOI Norms",1,22,"2022-03-24T21:07:47+00:00",9.9414911270142,16,"updated stim.csv","Version91.csv","Version 91","List 91","gin",NA,2717,5.074074074,1103,0.01373338,2718,"BOI","-","-","Please name all of the ways you could use this object. Keep in mind that one object can have many uses. Separate your responses with a comma.",NA,"y",9820,NA,NA,1777,8905,NA,NA,NA,"drank, viewed, party",1
"10116618AC","n03jsz4x8e","BOI Norms",1,23,"2022-03-24T21:07:51+00:00",4.7775790691376,16,"updated stim.csv","Version91.csv","Version 91","List 91","nugget",NA,2701,4.826086957,1784,0.565120674,2702,"BOI","-","-","Please name all of the ways you could use this object. Keep in mind that one object can have many uses. Separate your responses with a comma.",NA,"y",4662,NA,NA,1242,2610,NA,NA,NA,"eat",1
"10116618AC","n03jsz4x8e","BOI Norms",1,24,"2022-03-24T21:07:55+00:00",4.0040528774261,16,"updated stim.csv","Version91.csv","Version 91","List 91","chopstick",NA,2707,5.625,533,0.944337853,2708,"BOI","-","-","Please name all of the ways you could use this object. Keep in mind that one object can have many uses. Separate your responses with a comma.",NA,"y",3897,NA,NA,2120,2681,NA,NA,NA,"used",1
"10116618AC","n03jsz4x8e","BOI Norms",1,25,"2022-03-24T21:08:01+00:00",5.0974180698395,16,"updated stim.csv","Version91.csv","Version 91","List 91","pelvis",NA,2703,5.72,1911,0.367160384,2704,"BOI","-","-","Please name all of the ways you could use this object. Keep in mind that one object can have many uses. Separate your responses with a comma.",NA,"y",4972,NA,NA,3140,3668,NA,NA,NA,"bone",1
"10116618AC","n03jsz4x8e","BOI Norms",1,26,"2022-03-24T21:08:13+00:00",12.279991865158,16,"updated stim.csv","Version91.csv","Version 91","List 91","physiologist",NA,2709,4.75,1946,0.533639944,2710,"BOI","-","-","Please name all of the ways you could use this object. Keep in mind that one object can have many uses. Separate your responses with a comma.",NA,"y",12135,NA,NA,3975,8926,NA,NA,NA,"guidance, friend",1
"10116618AC","n03jsz4x8e","BOI Norms",1,27,"2022-03-24T21:08:19+00:00",6.2648701667786,16,"updated stim.csv","Version91.csv","Version 91","List 91","blackhead",NA,2720,4.739130435,229,0.930375226,2721,"BOI","-","-","Please name all of the ways you could use this object. Keep in mind that one object can have many uses. Separate your responses with a comma.",NA,"y",6141,NA,NA,3324,5222,NA,NA,NA,"extraction",1
"10116618AC","n03jsz4x8e","BOI Norms",1,28,"2022-03-24T21:08:29+00:00",9.8255848884583,16,"updated stim.csv","Version91.csv","Version 91","List 91","flyswatter",NA,2726,5.703703704,1022,0.30903365,2727,"BOI","-","-","Please name all of the ways you could use this object. Keep in mind that one object can have many uses. Separate your responses with a comma.",NA,"y",9707,NA,NA,1584,8924,NA,NA,NA,"used, hanging",1
"10116618AC","n03jsz4x8e","BOI Norms",1,29,"2022-03-24T21:08:32+00:00",3.2993831634521,16,"updated stim.csv","Version91.csv","Version 91","List 91","wigwam",NA,2710,4.888888889,2937,0.352006909,2711,"BOI","-","-","Please name all of the ways you could use this object. Keep in mind that one object can have many uses. Separate your responses with a comma.",NA,"y",3183,NA,NA,1503,2436,NA,NA,NA,"not sure",1
"10116618AC","n03jsz4x8e","BOI Norms",1,30,"2022-03-24T21:08:41+00:00",9.0051629543304,16,"updated stim.csv","Version91.csv","Version 91","List 91","practitioner",NA,2718,4.5,2057,0.084673005,2719,"BOI","-","-","Please name all of the ways you could use this object. Keep in mind that one object can have many uses. Separate your responses with a comma.",NA,"y",8895,NA,NA,3502,8232,NA,NA,NA,"diagnosed",1
"10116618AC","n03jsz4x8e","BOI Norms",1,31,"2022-03-24T21:08:48+00:00",6.8261368274689,16,"updated stim.csv","Version91.csv","Version 91","List 91","horse",NA,2706,5.88,1312,0.28910975,2707,"BOI","-","-","Please name all of the ways you could use this object. Keep in mind that one object can have many uses. Separate your responses with a comma.",NA,"y",6706,NA,NA,1196,4146,NA,NA,NA,"ride, pet",1
"10116618AC","n03jsz4x8e","BOI Norms",1,32,"2022-03-24T21:08:57+00:00",9.2479701042175,16,"updated stim.csv","Version91.csv","Version 91","List 91","hairstylist",NA,2711,5.041666667,1218,0.528817723,2712,"BOI","-","-","Please name all of the ways you could use this object. Keep in mind that one object can have many uses. Separate your responses with a comma.",NA,"y",9134,NA,NA,4460,8265,NA,NA,NA,"to do hair, friend",1
"10116618AC","n03jsz4x8e","BOI Norms",1,33,"2022-03-24T21:09:08+00:00",10.721878051758,16,"updated stim.csv","Version91.csv","Version 91","List 91","housewife",NA,2729,5.2,1333,0.450696717,2730,"BOI","-","-","Please name all of the ways you could use this object. Keep in mind that one object can have many uses. Separate your responses with a comma.",NA,"y",10600,NA,NA,2180,9717,NA,NA,NA,"sexual, wife, mom",1
"10116618AC","n03jsz4x8e","BOI Norms",1,34,"2022-03-24T21:09:23+00:00",15.002382993698,16,"updated stim.csv","Version91.csv","Version 91","List 91","crocodile",NA,2724,4.291666667,698,0.576043853,2725,"BOI","-","-","Please name all of the ways you could use this object. Keep in mind that one object can have many uses. Separate your responses with a comma.",NA,"y",14874,NA,NA,1415,14108,NA,NA,NA,"pet, viewed",1
"10116618AC","n03jsz4x8e","BOI Norms",1,35,"2022-03-24T21:09:35+00:00",12.086712837219,16,"updated stim.csv","Version91.csv","Version 91","List 91","kleenex",NA,2723,6.043478261,1431,0.903319587,2724,"BOI","-","-","Please name all of the ways you could use this object. Keep in mind that one object can have many uses. Separate your responses with a comma.",NA,"y",11698,NA,NA,2665,10923,NA,NA,NA,"sneeze, in case",1
"10116618AC","n03jsz4x8e","BOI Norms",1,36,"2022-03-24T21:09:38+00:00",3.1614751815796,16,"updated stim.csv","Version91.csv","Version 91","List 91","pedicurist",NA,2716,5.137931034,1903,0.617861066,2717,"BOI","-","-","Please name all of the ways you could use this object. Keep in mind that one object can have many uses. Separate your responses with a comma.",NA,"y",3032,NA,NA,1287,2255,NA,NA,NA,"not sure",1
"10116618AC","n03jsz4x8e","BOI Norms",1,37,"2022-03-24T21:09:48+00:00",10.158402919769,16,"updated stim.csv","Version91.csv","Version 91","List 91","car",NA,2727,6.035714286,428,0.210032637,2728,"BOI","-","-","Please name all of the ways you could use this object. Keep in mind that one object can have many uses. Separate your responses with a comma.",NA,"y",10038,NA,NA,1587,6323,NA,NA,NA,"drive, gas",1
"10116618AC","n03jsz4x8e","BOI Norms",1,38,"2022-03-24T21:09:51+00:00",3.0675029754639,16,"updated stim.csv","Version91.csv","Version 91","List 91","goulash",NA,2712,4.846153846,1140,0.300977167,2713,"BOI","-","-","Please name all of the ways you could use this object. Keep in mind that one object can have many uses. Separate your responses with a comma.",NA,"y",2937,NA,NA,1138,2226,NA,NA,NA,"not sure",1
"10116618AC","n03jsz4x8e","BOI Norms",1,39,"2022-03-24T21:09:55+00:00",3.1588599681854,16,"updated stim.csv","Version91.csv","Version 91","List 91","ant",NA,2714,4.84,45,0.196570531,2715,"BOI","-","-","Please name all of the ways you could use this object. Keep in mind that one object can have many uses. Separate your responses with a comma.",NA,"y",3038,NA,NA,1802,2113,NA,NA,NA,"bug",1
"10116618AC","n03jsz4x8e","BOI Norms",1,40,"2022-03-24T21:10:00+00:00",5.3672330379486,16,"updated stim.csv","Version91.csv","Version 91","List 91","trainer",NA,2728,5.357142857,2758,0.201211991,2729,"BOI","-","-","Please name all of the ways you could use this object. Keep in mind that one object can have many uses. Separate your responses with a comma.",NA,"y",5252,NA,NA,1940,4494,NA,NA,NA,"guidance, friend",1
"w10023510_qcw","ggqfyy5yii","BOI Norms",1,11,"2022-03-24T22:08:10+00:00",122.09490013123,17,"updated stim.csv","Version92.csv","Version 92","List 92","rawhide",NA,2733,4.541666667,2141,0.992980546,2734,"BOI","-","-","Please name all of the ways you could use this object. Keep in mind that one object can have many uses. Separate your responses with a comma.",NA,"y",121845,NA,NA,6593,119527,NA,NA,NA,"lick, rub, design, create items",1
"w10023510_qcw","ggqfyy5yii","BOI Norms",1,12,"2022-03-24T22:10:13+00:00",122.37994384766,17,"updated stim.csv","Version92.csv","Version 92","List 92","padding",NA,2742,4.925925926,1841,0.414513499,2743,"BOI","-","-","Please name all of the ways you could use this object. Keep in mind that one object can have many uses. Separate your responses with a comma.",NA,"y",122104,NA,NA,5756,80947,NA,NA,NA,"protection, soften, cut, squeeze",1
"w10023510_qcw","ggqfyy5yii","BOI Norms",1,13,"2022-03-24T22:12:35+00:00",142.67668604851,17,"updated stim.csv","Version92.csv","Version 92","List 92","torso",NA,2739,5.64,2739,0.109305249,2740,"BOI","-","-","Please name all of the ways you could use this object. Keep in mind that one object can have many uses. Separate your responses with a comma.",NA,"y",142396,NA,NA,2561,135366,NA,NA,NA,"stab, kiss, hug, touch, rub, hit, burn, strengthen",1
"w10023510_qcw","ggqfyy5yii","BOI Norms",1,14,"2022-03-24T22:13:29+00:00",53.529469013214,17,"updated stim.csv","Version92.csv","Version 92","List 92","chestnut",NA,2753,5.555555556,514,0.971745449,2754,"BOI","-","-","Please name all of the ways you could use this object. Keep in mind that one object can have many uses. Separate your responses with a comma.",NA,"y",53233,NA,NA,1606,47490,NA,NA,NA,"eat, crack, throw, step on, lick, bite, blend, mix ",0.959
"w10023510_qcw","ggqfyy5yii","BOI Norms",1,15,"2022-03-24T22:14:35+00:00",65.747229099274,17,"updated stim.csv","Version92.csv","Version 92","List 92","sweatshirt",NA,2744,6.6,2605,0.206073363,2745,"BOI","-","-","Please name all of the ways you could use this object. Keep in mind that one object can have many uses. Separate your responses with a comma.",NA,"y",65468,NA,NA,5606,64251,NA,NA,NA,"cover skin, tear, stain, paint it",1
"w10023510_qcw","ggqfyy5yii","BOI Norms",1,16,"2022-03-24T22:15:15+00:00",40.905679941177,17,"updated stim.csv","Version92.csv","Version 92","List 92","tissue",NA,2759,5.72,2707,0.79838115,2760,"BOI","-","-","Please name all of the ways you could use this object. Keep in mind that one object can have many uses. Separate your responses with a comma.",NA,"y",40674,NA,NA,6593,34532,NA,NA,NA,"blow nose, wipe bottom, dry surfaces, dampen",1
"w10023510_qcw","ggqfyy5yii","BOI Norms",1,17,"2022-03-24T22:16:34+00:00",78.816656112671,17,"updated stim.csv","Version92.csv","Version 92","List 92","sangria",NA,2756,4.863636364,2239,0.271380112,2757,"BOI","-","-","Please name all of the ways you could use this object. Keep in mind that one object can have many uses. Separate your responses with a comma.",NA,"y",78558,NA,NA,45934,70726,NA,NA,NA,"drink, spill, stain, boil, mix",1
"w10023510_qcw","ggqfyy5yii","BOI Norms",1,18,"2022-03-24T22:17:43+00:00",69.195689916611,17,"updated stim.csv","Version92.csv","Version 92","List 92","technician",NA,2757,4.56,2655,0.092155041,2758,"BOI","-","-","Please name all of the ways you could use this object. Keep in mind that one object can have many uses. Separate your responses with a comma.",NA,"y",68833,NA,NA,1807,65631,NA,NA,NA,"help, harass, kill, seduce",1
"w10023510_qcw","ggqfyy5yii","BOI Norms",1,19,"2022-03-24T22:18:43+00:00",59.821618080139,17,"updated stim.csv","Version92.csv","Version 92","List 92","poker",NA,2745,4.590909091,2019,0.251545465,2746,"BOI","-","-","Please name all of the ways you could use this object. Keep in mind that one object can have many uses. Separate your responses with a comma.",NA,"y",59543,NA,NA,2155,58315,NA,NA,NA,"play, gamble, quit, scam, manipulate",1
"w10023510_qcw","ggqfyy5yii","BOI Norms",1,20,"2022-03-24T22:20:08+00:00",85.097127914429,17,"updated stim.csv","Version92.csv","Version 92","List 92","groin",NA,2758,5.72,1180,0.249014614,2759,"BOI","-","-","Please name all of the ways you could use this object. Keep in mind that one object can have many uses. Separate your responses with a comma.",NA,"y",84777,NA,NA,1659,83588,NA,NA,NA,"submission, hit, bite, caress, lick",1
"w10023510_qcw","ggqfyy5yii","BOI Norms",1,21,"2022-03-24T22:21:46+00:00",97.491312026978,17,"updated stim.csv","Version92.csv","Version 92","List 92","newsprint",NA,2752,4.260869565,1762,0.324228274,2753,"BOI","-","-","Please name all of the ways you could use this object. Keep in mind that one object can have many uses. Separate your responses with a comma.",NA,"y",97117,NA,NA,13660,85794,NA,NA,NA,"throw, burn, print, dampen, change, touch, wipe down, rub, tear ",1
"w10023510_qcw","ggqfyy5yii","BOI Norms",1,22,"2022-03-24T22:22:47+00:00",61.174679040909,17,"updated stim.csv","Version92.csv","Version 92","List 92","vacuum",NA,2738,5.291666667,2831,0.217079292,2739,"BOI","-","-","Please name all of the ways you could use this object. Keep in mind that one object can have many uses. Separate your responses with a comma.",NA,"y",60832,NA,NA,2821,49139,NA,NA,NA,"suck, clean, break, play with",1
"w10023510_qcw","ggqfyy5yii","BOI Norms",1,23,"2022-03-24T22:23:39+00:00",51.804099798203,17,"updated stim.csv","Version92.csv","Version 92","List 92","cellist",NA,2760,4.869565217,473,0.269429709,2761,"BOI","-","-","Please name all of the ways you could use this object. Keep in mind that one object can have many uses. Separate your responses with a comma.",NA,"y",51472,NA,NA,13020,47488,NA,NA,NA,"play music, applaud, domination ",0.996
"w10023510_qcw","ggqfyy5yii","BOI Norms",1,24,"2022-03-24T22:24:22+00:00",42.892720222473,17,"updated stim.csv","Version92.csv","Version 92","List 92","mule",NA,2743,4.318181818,1716,0.264178826,2744,"BOI","-","-","Please name all of the ways you could use this object. Keep in mind that one object can have many uses. Separate your responses with a comma.",NA,"y",42632,NA,NA,1865,41256,NA,NA,NA,"ride, spank, eat, pet, breed, shave, befriend, tame",1
"w10023510_qcw","ggqfyy5yii","BOI Norms",1,25,"2022-03-24T22:24:43+00:00",21.060637950897,17,"updated stim.csv","Version92.csv","Version 92","List 92","zipper",NA,2740,6.08,2999,0.091808488,2741,"BOI","-","-","Please name all of the ways you could use this object. Keep in mind that one object can have many uses. Separate your responses with a comma.",NA,"y",20783,NA,NA,2393,13642,NA,NA,NA,"zip up and down",1
"w10023510_qcw","ggqfyy5yii","BOI Norms",1,26,"2022-03-24T22:25:35+00:00",51.806881904602,17,"updated stim.csv","Version92.csv","Version 92","List 92","basil",NA,2736,5.916666667,160,0.041453571,2737,"BOI","-","-","Please name all of the ways you could use this object. Keep in mind that one object can have many uses. Separate your responses with a comma.",NA,"y",51451,NA,NA,27650,44759,NA,NA,NA,"eat, mix, create, destroy",1
"w10023510_qcw","ggqfyy5yii","BOI Norms",1,27,"2022-03-24T22:27:29+00:00",114.61743593216,17,"updated stim.csv","Version92.csv","Version 92","List 92","bill",NA,2735,5.111111111,214,0.182223817,2736,"BOI","-","-","Please name all of the ways you could use this object. Keep in mind that one object can have many uses. Separate your responses with a comma.",NA,"y",114258,NA,NA,1603,112778,NA,NA,NA,"spend, destroy, duplicate, counterfeiting",1
"w10023510_qcw","ggqfyy5yii","BOI Norms",1,28,"2022-03-24T22:28:08+00:00",38.5319480896,17,"updated stim.csv","Version92.csv","Version 92","List 92","airplane",NA,2750,4.625,22,0.539121628,2751,"BOI","-","-","Please name all of the ways you could use this object. Keep in mind that one object can have many uses. Separate your responses with a comma.",NA,"y",38207,NA,NA,1863,35751,NA,NA,NA,"crash, touch, fly, organize, hijack",1
"w10023510_qcw","ggqfyy5yii","BOI Norms",1,29,"2022-03-24T22:28:28+00:00",19.876005887985,17,"updated stim.csv","Version92.csv","Version 92","List 92","workbox",NA,2754,5.454545455,2970,0.23536446,2755,"BOI","-","-","Please name all of the ways you could use this object. Keep in mind that one object can have many uses. Separate your responses with a comma.",NA,"y",19674,NA,NA,4598,18307,NA,NA,NA,"store items, smash",1
"w10023510_qcw","ggqfyy5yii","BOI Norms",1,30,"2022-03-24T22:29:02+00:00",34.678427219391,17,"updated stim.csv","Version92.csv","Version 92","List 92","smoothie",NA,2741,6.041666667,2423,0.034869801,2742,"BOI","-","-","Please name all of the ways you could use this object. Keep in mind that one object can have many uses. Separate your responses with a comma.",NA,"y",34373,NA,NA,1945,30019,NA,NA,NA,"consume, throw, spill, cool down, hydrate",1
"w10023510_qcw","ggqfyy5yii","BOI Norms",1,31,"2022-03-24T22:30:48+00:00",106.0982170105,17,"updated stim.csv","Version92.csv","Version 92","List 92","wife",NA,2746,6.357142857,2934,0.301062412,2747,"BOI","-","-","Please name all of the ways you could use this object. Keep in mind that one object can have many uses. Separate your responses with a comma.",NA,"y",105686,NA,NA,1365,102667,NA,NA,NA,"intercourse, love, beg, court, care for, seduce, eat food with",0.987
"w10023510_qcw","ggqfyy5yii","BOI Norms",1,32,"2022-03-24T22:31:56+00:00",67.986096858978,17,"updated stim.csv","Version92.csv","Version 92","List 92","garnets",NA,2751,4.65,1082,0.45457956,2752,"BOI","-","-","Please name all of the ways you could use this object. Keep in mind that one object can have many uses. Separate your responses with a comma.",NA,"y",67570,NA,NA,21323,66678,NA,NA,NA,"spend, admire, throw, squeeze, observe, study",1
"w10023510_qcw","ggqfyy5yii","BOI Norms",1,33,"2022-03-24T22:32:36+00:00",39.10861992836,17,"updated stim.csv","Version92.csv","Version 92","List 92","swing",NA,2748,5.36,2608,0.846479663,2749,"BOI","-","-","Please name all of the ways you could use this object. Keep in mind that one object can have many uses. Separate your responses with a comma.",NA,"y",38820,NA,NA,2494,37015,NA,NA,NA,"swing on, launch",1
"w10023510_qcw","ggqfyy5yii","BOI Norms",1,34,"2022-03-24T22:32:57+00:00",21.651635169983,17,"updated stim.csv","Version92.csv","Version 92","List 92","spokesman",NA,2734,4.375,2479,0.399647674,2735,"BOI","-","-","Please name all of the ways you could use this object. Keep in mind that one object can have many uses. Separate your responses with a comma.",NA,"y",21374,NA,NA,1688,18322,NA,NA,NA,"ignore, listen to",1
"w10023510_qcw","ggqfyy5yii","BOI Norms",1,35,"2022-03-24T22:33:52+00:00",54.617597818375,17,"updated stim.csv","Version92.csv","Version 92","List 92","fruitcake",NA,2747,6,1061,0.894019945,2748,"BOI","-","-","Please name all of the ways you could use this object. Keep in mind that one object can have many uses. Separate your responses with a comma.",NA,"y",54273,NA,NA,1510,23162,NA,NA,NA,"eat, throw, discard, flatten",1
"w10023510_qcw","ggqfyy5yii","BOI Norms",1,36,"2022-03-24T22:34:13+00:00",20.907857179642,17,"updated stim.csv","Version92.csv","Version 92","List 92","screen",NA,2749,5.041666667,2285,0.449651764,2750,"BOI","-","-","Please name all of the ways you could use this object. Keep in mind that one object can have many uses. Separate your responses with a comma.",NA,"y",20674,NA,NA,2923,19385,NA,NA,NA,"smash, touch, look at",1
"w10023510_qcw","ggqfyy5yii","BOI Norms",1,37,"2022-03-24T22:34:41+00:00",28.613262891769,17,"updated stim.csv","Version92.csv","Version 92","List 92","teahouse",NA,2737,4.347826087,2645,0.253002246,2738,"BOI","-","-","Please name all of the ways you could use this object. Keep in mind that one object can have many uses. Separate your responses with a comma.",NA,"y",28318,NA,NA,2396,17687,NA,NA,NA,"play with, drink tea, break apart",1
"w10023510_qcw","ggqfyy5yii","BOI Norms",1,38,"2022-03-24T22:35:32+00:00",50.804728984833,17,"updated stim.csv","Version92.csv","Version 92","List 92","wreath",NA,2732,5.461538462,2979,0.545736443,2733,"BOI","-","-","Please name all of the ways you could use this object. Keep in mind that one object can have many uses. Separate your responses with a comma.",NA,"y",50502,NA,NA,1981,48191,NA,NA,NA,"hang up, hit, throw, bite, drop, admire",1
"w10023510_qcw","ggqfyy5yii","BOI Norms",1,39,"2022-03-24T22:35:49+00:00",17.343542098999,17,"updated stim.csv","Version92.csv","Version 92","List 92","typewriter",NA,2731,5.592592593,2814,0.066843696,2732,"BOI","-","-","Please name all of the ways you could use this object. Keep in mind that one object can have many uses. Separate your responses with a comma.",NA,"y",17064,NA,NA,1283,15799,NA,NA,NA,"type, destroy, create",1
"w10023510_qcw","ggqfyy5yii","BOI Norms",1,40,"2022-03-24T22:36:10+00:00",20.201685905457,17,"updated stim.csv","Version92.csv","Version 92","List 92","cannonball",NA,2755,4.304347826,416,0.112743857,2756,"BOI","-","-","Please name all of the ways you could use this object. Keep in mind that one object can have many uses. Separate your responses with a comma.",NA,"y",19920,NA,NA,2058,14377,NA,NA,NA,"fire, roll",1
"w10062325_bkt","vwhglldz3b","BOI Norms",1,11,"2022-03-30T16:25:58+00:00",17.635470867157,5,"updated stim.csv","Version80.csv","Version 80","List 80","sausage",NA,2372,6.48,2252,0.068814903,2373,"BOI","-","-","Please name all of the ways you could use this object. Keep in mind that one object can have many uses. Separate your responses with a comma.",NA,"y",17529,NA,NA,1506,8971,NA,NA,NA,"cooking, frying, baking, eating, feeding animals",1
"w10062325_bkt","vwhglldz3b","BOI Norms",1,12,"2022-03-30T16:26:16+00:00",18.444957971573,5,"updated stim.csv","Version80.csv","Version 80","List 80","knuckle",NA,2389,5.76,1439,0.938660692,2390,"BOI","-","-","Please name all of the ways you could use this object. Keep in mind that one object can have many uses. Separate your responses with a comma.",NA,"y",18345,NA,NA,1186,17132,NA,NA,NA,"punching, hitting, cracking, kneading, massaging",1
"w10062325_bkt","vwhglldz3b","BOI Norms",1,13,"2022-03-30T16:26:44+00:00",27.679166078568,5,"updated stim.csv","Version80.csv","Version 80","List 80","gramophone",NA,2380,5.25,1144,0.567146337,2381,"BOI","-","-","Please name all of the ways you could use this object. Keep in mind that one object can have many uses. Separate your responses with a comma.",NA,"y",27570,NA,NA,17530,26412,NA,NA,NA,"record playing, listening to music, entertaining",1
"w10062325_bkt","vwhglldz3b","BOI Norms",1,14,"2022-03-30T16:27:14+00:00",30.375010967255,5,"updated stim.csv","Version80.csv","Version 80","List 80","musket",NA,2379,5.217391304,1725,0.299073222,2380,"BOI","-","-","Please name all of the ways you could use this object. Keep in mind that one object can have many uses. Separate your responses with a comma.",NA,"y",30247,NA,NA,3678,28850,NA,NA,NA,"shooting, hunting, protection, fighting",1
"w10062325_bkt","vwhglldz3b","BOI Norms",1,15,"2022-03-30T16:27:48+00:00",33.793560028076,5,"updated stim.csv","Version80.csv","Version 80","List 80","ore",NA,2399,4.375,1818,0.477769034,2400,"BOI","-","-","Please name all of the ways you could use this object. Keep in mind that one object can have many uses. Separate your responses with a comma.",NA,"y",33682,NA,NA,16007,32681,NA,NA,NA,"mining, crafting jewelry, sourcing metal",1
"w10062325_bkt","vwhglldz3b","BOI Norms",1,16,"2022-03-30T16:28:18+00:00",29.887755870819,5,"updated stim.csv","Version80.csv","Version 80","List 80","mastiff",NA,2397,5,1617,0.239919217,2398,"BOI","-","-","Please name all of the ways you could use this object. Keep in mind that one object can have many uses. Separate your responses with a comma.",NA,"y",29771,NA,NA,11243,28820,NA,NA,NA,"petting, hugging, raising, training, companionship",1
"w10062325_bkt","vwhglldz3b","BOI Norms",1,17,"2022-03-30T16:28:55+00:00",37.124031066895,5,"updated stim.csv","Version80.csv","Version 80","List 80","fingernail",NA,2371,5.88,979,0.866083127,2372,"BOI","-","-","Please name all of the ways you could use this object. Keep in mind that one object can have many uses. Separate your responses with a comma.",NA,"y",37022,NA,NA,1379,34814,NA,NA,NA,"scratching, digging, painting, biting, chewing, expression, opening things",1
"w10062325_bkt","vwhglldz3b","BOI Norms",1,18,"2022-03-30T16:29:24+00:00",28.451494932175,5,"updated stim.csv","Version80.csv","Version 80","List 80","emerald",NA,2385,4.833333333,902,0.718148566,2386,"BOI","-","-","Please name all of the ways you could use this object. Keep in mind that one object can have many uses. Separate your responses with a comma.",NA,"y",28268,NA,NA,2817,21459,NA,NA,NA,"making jewelry, color matching, designing",1
"w10062325_bkt","vwhglldz3b","BOI Norms",1,19,"2022-03-30T16:30:02+00:00",38.095937013626,5,"updated stim.csv","Version80.csv","Version 80","List 80","coconut",NA,2388,5.64,590,0.991329841,2389,"BOI","-","-","Please name all of the ways you could use this object. Keep in mind that one object can have many uses. Separate your responses with a comma.",NA,"y",37959,NA,NA,1139,34682,NA,NA,NA,"eating, drinking, cracking open, decoration, throwing",1
"w10062325_bkt","vwhglldz3b","BOI Norms",1,20,"2022-03-30T16:30:20+00:00",18.744019031525,5,"updated stim.csv","Version80.csv","Version 80","List 80","environmentalist",NA,2387,4.482758621,915,0.0299571,2388,"BOI","-","-","Please name all of the ways you could use this object. Keep in mind that one object can have many uses. Separate your responses with a comma.",NA,"y",18584,NA,NA,6325,17660,NA,NA,NA,"conservation, spreading awareness, activism, education",1
"w10062325_bkt","vwhglldz3b","BOI Norms",1,21,"2022-03-30T16:30:39+00:00",19.060069084167,5,"updated stim.csv","Version80.csv","Version 80","List 80","packet",NA,2383,4.52173913,1839,0.560424682,2384,"BOI","-","-","Please name all of the ways you could use this object. Keep in mind that one object can have many uses. Separate your responses with a comma.",NA,"y",18961,NA,NA,1402,17936,NA,NA,NA,"educating, informing, giving instructions",1
"w10062325_bkt","vwhglldz3b","BOI Norms",1,22,"2022-03-30T16:30:55+00:00",15.126136064529,5,"updated stim.csv","Version80.csv","Version 80","List 80","shelving",NA,2374,5.47826087,2336,0.767095655,2375,"BOI","-","-","Please name all of the ways you could use this object. Keep in mind that one object can have many uses. Separate your responses with a comma.",NA,"y",14995,NA,NA,2704,14026,NA,NA,NA,"holding things, support, decoration, organizing",1
"w10062325_bkt","vwhglldz3b","BOI Norms",1,23,"2022-03-30T16:31:40+00:00",44.940618038177,5,"updated stim.csv","Version80.csv","Version 80","List 80","clothespin",NA,2384,5.12,571,0.678732729,2385,"BOI","-","-","Please name all of the ways you could use this object. Keep in mind that one object can have many uses. Separate your responses with a comma.",NA,"y",44831,NA,NA,1587,43866,NA,NA,NA,"hanging clothes on a line, hanging other objects like paper on a line, holding lab slides, crafting",1
"w10062325_bkt","vwhglldz3b","BOI Norms",1,24,"2022-03-30T16:32:07+00:00",27.603862762451,5,"updated stim.csv","Version80.csv","Version 80","List 80","beefsteak",NA,2396,5.227272727,191,0.035415229,2397,"BOI","-","-","Please name all of the ways you could use this object. Keep in mind that one object can have many uses. Separate your responses with a comma.",NA,"y",27446,NA,NA,1972,25736,NA,NA,NA,"eating, cooking, searing, selling, basting, serving",1
"w10062325_bkt","vwhglldz3b","BOI Norms",1,25,"2022-03-30T16:32:21+00:00",13.996329069138,5,"updated stim.csv","Version80.csv","Version 80","List 80","hitchhiker",NA,2381,4.375,1293,0.820058564,2382,"BOI","-","-","Please name all of the ways you could use this object. Keep in mind that one object can have many uses. Separate your responses with a comma.",NA,"y",13875,NA,NA,5554,12993,NA,NA,NA,"finding a ride, getting somewhere",1
"w10062325_bkt","vwhglldz3b","BOI Norms",1,26,"2022-03-30T16:33:04+00:00",42.498420000076,5,"updated stim.csv","Version80.csv","Version 80","List 80","jaguar",NA,2377,4.826086957,1371,0.843307196,2378,"BOI","-","-","Please name all of the ways you could use this object. Keep in mind that one object can have many uses. Separate your responses with a comma.",NA,"y",42393,NA,NA,4412,41097,NA,NA,NA,"entertainment in captivity, controlling prey population, exotic pet",1
"w10062325_bkt","vwhglldz3b","BOI Norms",1,27,"2022-03-30T16:33:18+00:00",14.489158153534,5,"updated stim.csv","Version80.csv","Version 80","List 80","crossbow",NA,2373,5.541666667,705,0.469963878,2374,"BOI","-","-","Please name all of the ways you could use this object. Keep in mind that one object can have many uses. Separate your responses with a comma.",NA,"y",14142,NA,NA,1325,10171,NA,NA,NA,"hunting, shooting, sport, target practice, costume",1
"w10062325_bkt","vwhglldz3b","BOI Norms",1,28,"2022-03-30T16:33:49+00:00",31.017572879791,5,"updated stim.csv","Version80.csv","Version 80","List 80","basket",NA,2398,6.391304348,162,0.763494063,2399,"BOI","-","-","Please name all of the ways you could use this object. Keep in mind that one object can have many uses. Separate your responses with a comma.",NA,"y",30904,NA,NA,1543,21719,NA,NA,NA,"to hold things, to carry things, to gift, laundry, as a prize",1
"w10062325_bkt","vwhglldz3b","BOI Norms",1,29,"2022-03-30T16:33:58+00:00",9.2694361209869,5,"updated stim.csv","Version80.csv","Version 80","List 80","herring",NA,2395,4.409090909,1283,0.337820384,2396,"BOI","-","-","Please name all of the ways you could use this object. Keep in mind that one object can have many uses. Separate your responses with a comma.",NA,"y",9171,NA,NA,1448,7246,NA,NA,NA,"catching, eating",1
"w10062325_bkt","vwhglldz3b","BOI Norms",1,30,"2022-03-30T16:34:20+00:00",22.084016799927,5,"updated stim.csv","Version80.csv","Version 80","List 80","uncle",NA,2393,5.392857143,2817,0.563820135,2394,"BOI","-","-","Please name all of the ways you could use this object. Keep in mind that one object can have many uses. Separate your responses with a comma.",NA,"y",21981,NA,NA,4313,21115,NA,NA,NA,"companionship, familial love, support, memories",1
"w10062325_bkt","vwhglldz3b","BOI Norms",1,31,"2022-03-30T16:34:50+00:00",29.629293203354,5,"updated stim.csv","Version80.csv","Version 80","List 80","coat",NA,2394,6.565217391,581,0.594554122,2395,"BOI","-","-","Please name all of the ways you could use this object. Keep in mind that one object can have many uses. Separate your responses with a comma.",NA,"y",29522,NA,NA,2243,6477,NA,NA,NA,"warmth, style, protection",1
"w10062325_bkt","vwhglldz3b","BOI Norms",1,32,"2022-03-30T16:35:20+00:00",29.899784803391,5,"updated stim.csv","Version80.csv","Version 80","List 80","woodcarver",NA,2400,4.625,2958,0.972675411,2401,"BOI","-","-","Please name all of the ways you could use this object. Keep in mind that one object can have many uses. Separate your responses with a comma.",NA,"y",29796,NA,NA,4032,17695,NA,NA,NA,"crafting, making art",1
"w10062325_bkt","vwhglldz3b","BOI Norms",1,33,"2022-03-30T16:35:56+00:00",36.241232156754,5,"updated stim.csv","Version80.csv","Version 80","List 80","seashore",NA,2376,4.44,2299,0.201856393,2377,"BOI","-","-","Please name all of the ways you could use this object. Keep in mind that one object can have many uses. Separate your responses with a comma.",NA,"y",36047,NA,NA,2019,35214,NA,NA,NA,"picking up sea shells, running from the tide, sunbathing, playing beach games",1
"w10062325_bkt","vwhglldz3b","BOI Norms",1,34,"2022-03-30T16:36:17+00:00",20.836334943771,5,"updated stim.csv","Version80.csv","Version 80","List 80","ballplayer",NA,2392,4.56,133,0.759693243,2393,"BOI","-","-","Please name all of the ways you could use this object. Keep in mind that one object can have many uses. Separate your responses with a comma.",NA,"y",20733,NA,NA,2443,7057,NA,NA,NA,"entertainment, training",1
"w10062325_bkt","vwhglldz3b","BOI Norms",1,35,"2022-03-30T16:36:42+00:00",24.689342021942,5,"updated stim.csv","Version80.csv","Version 80","List 80","tradesman",NA,2390,4.84,2754,0.00266527,2391,"BOI","-","-","Please name all of the ways you could use this object. Keep in mind that one object can have many uses. Separate your responses with a comma.",NA,"y",24345,NA,NA,2830,23525,NA,NA,NA,"working, fixing things, manual labor",1
"w10062325_bkt","vwhglldz3b","BOI Norms",1,36,"2022-03-30T16:37:23+00:00",41.388819932938,5,"updated stim.csv","Version80.csv","Version 80","List 80","morphine",NA,2382,5.32,1684,0.251276475,2383,"BOI","-","-","Please name all of the ways you could use this object. Keep in mind that one object can have many uses. Separate your responses with a comma.",NA,"y",41277,NA,NA,1757,40495,NA,NA,NA,"pain relief, addiction, healing",1
"w10062325_bkt","vwhglldz3b","BOI Norms",1,37,"2022-03-30T16:37:48+00:00",24.445286989212,5,"updated stim.csv","Version80.csv","Version 80","List 80","firebox",NA,2391,4.363636364,984,0.331339408,2392,"BOI","-","-","Please name all of the ways you could use this object. Keep in mind that one object can have many uses. Separate your responses with a comma.",NA,"y",24337,NA,NA,4455,20331,NA,NA,NA,"warmth, light, cooking, roasting marshmallows, burning things",1
"w10062325_bkt","vwhglldz3b","BOI Norms",1,38,"2022-03-30T16:38:10+00:00",22.28836107254,5,"updated stim.csv","Version80.csv","Version 80","List 80","mommy",NA,2375,5.434782609,1676,0.994613732,2376,"BOI","-","-","Please name all of the ways you could use this object. Keep in mind that one object can have many uses. Separate your responses with a comma.",NA,"y",22186,NA,NA,1386,21116,NA,NA,NA,"love, affection, raising children, advice, protection",1
"w10062325_bkt","vwhglldz3b","BOI Norms",1,39,"2022-03-30T16:38:25+00:00",15.363513946533,5,"updated stim.csv","Version80.csv","Version 80","List 80","globe",NA,2386,5.28,1116,0.217235145,2387,"BOI","-","-","Please name all of the ways you could use this object. Keep in mind that one object can have many uses. Separate your responses with a comma.",NA,"y",15264,NA,NA,5815,14511,NA,NA,NA,"education, locating places, visualizing the world",1
"w10062325_bkt","vwhglldz3b","BOI Norms",1,40,"2022-03-30T16:38:36+00:00",10.991326093674,5,"updated stim.csv","Version80.csv","Version 80","List 80","pew",NA,2378,4.666666667,1936,0.793731691,2379,"BOI","-","-","Please name all of the ways you could use this object. Keep in mind that one object can have many uses. Separate your responses with a comma.",NA,"y",10884,NA,NA,2430,9249,NA,NA,NA,"church, worship, wedding, seating",1
"w10062528_mbm","25qj7wbsle","BOI Norms",1,11,"2022-03-29T00:06:16+00:00",13.124988079071,19,"updated stim.csv","Version94.csv","Version 94","List 94","kazoo",NA,2792,5.6,1401,0.310136054,2793,"BOI","-","-","Please name all of the ways you could use this object. Keep in mind that one object can have many uses. Separate your responses with a comma.",NA,"y",12977,NA,NA,1762,11326,NA,NA,NA,"play, make music,",1
"w10062528_mbm","25qj7wbsle","BOI Norms",1,12,"2022-03-29T00:06:31+00:00",14.216953039169,19,"updated stim.csv","Version94.csv","Version 94","List 94","snorkel",NA,2807,4.814814815,2428,0.530703777,2808,"BOI","-","-","Please name all of the ways you could use this object. Keep in mind that one object can have many uses. Separate your responses with a comma.",NA,"y",14078,NA,NA,2464,12766,NA,NA,NA,"scuba dive, go under water",1
"w10062528_mbm","25qj7wbsle","BOI Norms",1,13,"2022-03-29T00:06:50+00:00",19.51021194458,19,"updated stim.csv","Version94.csv","Version 94","List 94","lighthouse",NA,2795,4.791666667,1507,0.115692455,2796,"BOI","-","-","Please name all of the ways you could use this object. Keep in mind that one object can have many uses. Separate your responses with a comma.",NA,"y",19376,NA,NA,1543,17991,NA,NA,NA,"see, look at boats, look at ocean, make a path",1
"w10062528_mbm","25qj7wbsle","BOI Norms",1,14,"2022-03-29T00:06:59+00:00",9.0840699672699,19,"updated stim.csv","Version94.csv","Version 94","List 94","cigar",NA,2811,5.962962963,542,0.389740937,2812,"BOI","-","-","Please name all of the ways you could use this object. Keep in mind that one object can have many uses. Separate your responses with a comma.",NA,"y",8959,NA,NA,1152,7597,NA,NA,NA,"smoke, throw away, step on ",1
"w10062528_mbm","25qj7wbsle","BOI Norms",1,15,"2022-03-29T00:07:11+00:00",11.610749959946,19,"updated stim.csv","Version94.csv","Version 94","List 94","booze",NA,2800,5.84,285,0.455584343,2801,"BOI","-","-","Please name all of the ways you could use this object. Keep in mind that one object can have many uses. Separate your responses with a comma.",NA,"y",11471,NA,NA,1233,9565,NA,NA,NA,"drink, throw away, heal wounds,",1
"w10062528_mbm","25qj7wbsle","BOI Norms",1,16,"2022-03-29T00:07:20+00:00",8.8056819438934,19,"updated stim.csv","Version94.csv","Version 94","List 94","cheerleader",NA,2818,5.285714286,505,0.580282419,2819,"BOI","-","-","Please name all of the ways you could use this object. Keep in mind that one object can have many uses. Separate your responses with a comma.",NA,"y",8663,NA,NA,1534,6659,NA,NA,NA,"cheer, dance with, cheer",1
"w10062528_mbm","25qj7wbsle","BOI Norms",1,17,"2022-03-29T00:07:28+00:00",8.0522379875183,19,"updated stim.csv","Version94.csv","Version 94","List 94","kernel",NA,2797,4.5,1407,0.356725928,2798,"BOI","-","-","Please name all of the ways you could use this object. Keep in mind that one object can have many uses. Separate your responses with a comma.",NA,"y",7911,NA,NA,2356,6246,NA,NA,NA,"make popcorn, eat",1
"w10062528_mbm","25qj7wbsle","BOI Norms",1,18,"2022-03-29T00:07:54+00:00",26.571552038193,19,"updated stim.csv","Version94.csv","Version 94","List 94","sackcloth",NA,2802,4.913043478,2211,0.489130765,2803,"BOI","-","-","Please name all of the ways you could use this object. Keep in mind that one object can have many uses. Separate your responses with a comma.",NA,"y",26448,NA,NA,13609,24844,NA,NA,NA,"carry food, wear, make clothes, make shoes",1
"w10062528_mbm","25qj7wbsle","BOI Norms",1,19,"2022-03-29T00:08:05+00:00",11.003676176071,19,"updated stim.csv","Version94.csv","Version 94","List 94","fishbone",NA,2816,5.173913043,990,0.879116537,2817,"BOI","-","-","Please name all of the ways you could use this object. Keep in mind that one object can have many uses. Separate your responses with a comma.",NA,"y",10868,NA,NA,2279,8859,NA,NA,NA,"throw away, take out of fish",1
"w10062528_mbm","25qj7wbsle","BOI Norms",1,20,"2022-03-29T00:08:19+00:00",13.4584608078,19,"updated stim.csv","Version94.csv","Version 94","List 94","aircraft",NA,2801,4.925925926,19,0.385530787,2802,"BOI","-","-","Please name all of the ways you could use this object. Keep in mind that one object can have many uses. Separate your responses with a comma.",NA,"y",13314,NA,NA,1980,11664,NA,NA,NA,"fly, transportation",1
"w10062528_mbm","25qj7wbsle","BOI Norms",1,21,"2022-03-29T00:08:31+00:00",12.53618812561,19,"updated stim.csv","Version94.csv","Version 94","List 94","pork",NA,2796,4.916666667,2037,0.339315341,2797,"BOI","-","-","Please name all of the ways you could use this object. Keep in mind that one object can have many uses. Separate your responses with a comma.",NA,"y",12408,NA,NA,1117,10514,NA,NA,NA,"eat, cook, throw away",1
"w10062528_mbm","25qj7wbsle","BOI Norms",1,22,"2022-03-29T00:08:42+00:00",10.643974065781,19,"updated stim.csv","Version94.csv","Version 94","List 94","nutcrackers",NA,2794,5.347826087,1791,0.072605459,2795,"BOI","-","-","Please name all of the ways you could use this object. Keep in mind that one object can have many uses. Separate your responses with a comma.",NA,"y",10508,NA,NA,2379,8643,NA,NA,NA,"decorate, christmas",1
"w10062528_mbm","25qj7wbsle","BOI Norms",1,23,"2022-03-29T00:08:53+00:00",11.677176952362,19,"updated stim.csv","Version94.csv","Version 94","List 94","cafe",NA,2814,4.772727273,396,0.016959145,2815,"BOI","-","-","Please name all of the ways you could use this object. Keep in mind that one object can have many uses. Separate your responses with a comma.",NA,"y",11542,NA,NA,2792,9997,NA,NA,NA,"eat, drink, hang out ",1
"w10062528_mbm","25qj7wbsle","BOI Norms",1,24,"2022-03-29T00:08:54+00:00",0.47016382217407,19,"updated stim.csv","Version94.csv","Version 94","List 94","sax",NA,2820,5.045454545,2256,0.271482721,2821,"BOI","-","-","Please name all of the ways you could use this object. Keep in mind that one object can have many uses. Separate your responses with a comma.",NA,"y",337,NA,NA,-1,-1,NA,NA,NA,"",1
"w10062528_mbm","25qj7wbsle","BOI Norms",1,25,"2022-03-29T00:09:02+00:00",7.7273051738739,19,"updated stim.csv","Version94.csv","Version 94","List 94","garland",NA,2819,5.166666667,1079,0.487831192,2820,"BOI","-","-","Please name all of the ways you could use this object. Keep in mind that one object can have many uses. Separate your responses with a comma.",NA,"y",7601,NA,NA,1926,3425,NA,NA,NA,"decorate, ",1
"w10062528_mbm","25qj7wbsle","BOI Norms",1,26,"2022-03-29T00:09:13+00:00",10.903739929199,19,"updated stim.csv","Version94.csv","Version 94","List 94","bassinet",NA,2808,5.375,165,0.942939522,2809,"BOI","-","-","Please name all of the ways you could use this object. Keep in mind that one object can have many uses. Separate your responses with a comma.",NA,"y",10763,NA,NA,2552,7483,NA,NA,NA,"sleep, decorate, ",1
"w10062528_mbm","25qj7wbsle","BOI Norms",1,27,"2022-03-29T00:09:29+00:00",16.850277900696,19,"updated stim.csv","Version94.csv","Version 94","List 94","jeep",NA,2812,5.409090909,1380,0.355780564,2813,"BOI","-","-","Please name all of the ways you could use this object. Keep in mind that one object can have many uses. Separate your responses with a comma.",NA,"y",16715,NA,NA,2606,15006,NA,NA,NA,"ride, cruise, sleep",1
"w10062528_mbm","25qj7wbsle","BOI Norms",1,28,"2022-03-29T00:09:37+00:00",7.8910880088806,19,"updated stim.csv","Version94.csv","Version 94","List 94","oyster",NA,2813,5.407407407,1834,0.932964259,2814,"BOI","-","-","Please name all of the ways you could use this object. Keep in mind that one object can have many uses. Separate your responses with a comma.",NA,"y",7762,NA,NA,1172,5275,NA,NA,NA,"eat, throw away",1
"w10062528_mbm","25qj7wbsle","BOI Norms",1,29,"2022-03-29T00:09:51+00:00",13.829576015472,19,"updated stim.csv","Version94.csv","Version 94","List 94","omelet",NA,2806,5.6,1807,0.790169092,2807,"BOI","-","-","Please name all of the ways you could use this object. Keep in mind that one object can have many uses. Separate your responses with a comma.",NA,"y",13697,NA,NA,6739,12276,NA,NA,NA,"eat, throw away, feed",1
"w10062528_mbm","25qj7wbsle","BOI Norms",1,30,"2022-03-29T00:09:58+00:00",6.6882960796356,19,"updated stim.csv","Version94.csv","Version 94","List 94","maggot",NA,2791,4.44,1570,0.788570737,2792,"BOI","-","-","Please name all of the ways you could use this object. Keep in mind that one object can have many uses. Separate your responses with a comma.",NA,"y",6552,NA,NA,1948,4905,NA,NA,NA,"throw away",1
"w10062528_mbm","25qj7wbsle","BOI Norms",1,31,"2022-03-29T00:10:11+00:00",12.928541898727,19,"updated stim.csv","Version94.csv","Version 94","List 94","sack",NA,2817,5.083333333,2210,0.51753878,2818,"BOI","-","-","Please name all of the ways you could use this object. Keep in mind that one object can have many uses. Separate your responses with a comma.",NA,"y",12809,NA,NA,2377,11287,NA,NA,NA,"carry stuff, storage, purse",1
"w10062528_mbm","25qj7wbsle","BOI Norms",1,32,"2022-03-29T00:10:28+00:00",17.641355037689,19,"updated stim.csv","Version94.csv","Version 94","List 94","hanky",NA,2815,4.481481481,1247,0.363795056,2816,"BOI","-","-","Please name all of the ways you could use this object. Keep in mind that one object can have many uses. Separate your responses with a comma.",NA,"y",17495,NA,NA,2207,15909,NA,NA,NA,"wipe nose, sneeze in, accessory",1
"w10062528_mbm","25qj7wbsle","BOI Norms",1,33,"2022-03-29T00:10:53+00:00",24.405331134796,19,"updated stim.csv","Version94.csv","Version 94","List 94","girl",NA,2809,5.52,1108,0.249735431,2810,"BOI","-","-","Please name all of the ways you could use this object. Keep in mind that one object can have many uses. Separate your responses with a comma.",NA,"y",24264,NA,NA,4154,22829,NA,NA,NA,"befriend, talk to, sleep with, hangout with",1
"w10062528_mbm","25qj7wbsle","BOI Norms",1,34,"2022-03-29T00:10:59+00:00",5.955983877182,19,"updated stim.csv","Version94.csv","Version 94","List 94","retriever",NA,2803,4.96,2160,0.323930836,2804,"BOI","-","-","Please name all of the ways you could use this object. Keep in mind that one object can have many uses. Separate your responses with a comma.",NA,"y",5826,NA,NA,2503,4332,NA,NA,NA,"play with",1
"w10062528_mbm","25qj7wbsle","BOI Norms",1,35,"2022-03-29T00:11:10+00:00",11.373060941696,19,"updated stim.csv","Version94.csv","Version 94","List 94","sheet",NA,2793,5.708333333,2331,0.953838586,2794,"BOI","-","-","Please name all of the ways you could use this object. Keep in mind that one object can have many uses. Separate your responses with a comma.",NA,"y",11251,NA,NA,2136,9731,NA,NA,NA,"put on bed, wear, decoration",1
"w10062528_mbm","25qj7wbsle","BOI Norms",1,36,"2022-03-29T00:11:24+00:00",14.330538034439,19,"updated stim.csv","Version94.csv","Version 94","List 94","toothpaste",NA,2805,5.76,2733,0.042102383,2806,"BOI","-","-","Please name all of the ways you could use this object. Keep in mind that one object can have many uses. Separate your responses with a comma.",NA,"y",14199,NA,NA,1736,12543,NA,NA,NA,"brush teeth, whiten, acne ",1
"w10062528_mbm","25qj7wbsle","BOI Norms",1,37,"2022-03-29T00:11:43+00:00",18.061617136002,19,"updated stim.csv","Version94.csv","Version 94","List 94","bridge",NA,2810,5.52173913,322,0.069552783,2811,"BOI","-","-","Please name all of the ways you could use this object. Keep in mind that one object can have many uses. Separate your responses with a comma.",NA,"y",17929,NA,NA,1758,16463,NA,NA,NA,"cars drive over, protect from water, transport",1
"w10062528_mbm","25qj7wbsle","BOI Norms",1,38,"2022-03-29T00:12:10+00:00",27.354524850845,19,"updated stim.csv","Version94.csv","Version 94","List 94","fag",NA,2798,4.8,942,0.41812496,2799,"BOI","-","-","Please name all of the ways you could use this object. Keep in mind that one object can have many uses. Separate your responses with a comma.",NA,"y",27226,NA,NA,24914,25863,NA,NA,NA,"smoke",1
"w10062528_mbm","25qj7wbsle","BOI Norms",1,39,"2022-03-29T00:12:22+00:00",12.427672147751,19,"updated stim.csv","Version94.csv","Version 94","List 94","dispenser",NA,2799,4.708333333,805,0.262195631,2800,"BOI","-","-","Please name all of the ways you could use this object. Keep in mind that one object can have many uses. Separate your responses with a comma.",NA,"y",12295,NA,NA,3024,10787,NA,NA,NA,"get soap, drinks",1
"w10062528_mbm","25qj7wbsle","BOI Norms",1,40,"2022-03-29T00:12:31+00:00",8.4438610076904,19,"updated stim.csv","Version94.csv","Version 94","List 94","catnip",NA,2804,4.52,461,0.804980444,2805,"BOI","-","-","Please name all of the ways you could use this object. Keep in mind that one object can have many uses. Separate your responses with a comma.",NA,"y",8308,NA,NA,3758,6844,NA,NA,NA,"give to cats",1
"w10063195_SYP","v98f9teval","BOI Norms",1,11,"2022-03-22T21:17:44+00:00",24.961755990982,11,"updated stim.csv","Version86.csv","Version 86","List 86","searchlight",NA,2562,4.391304348,2298,0.037391814,2563,"BOI","-","-","Please name all of the ways you could use this object. Keep in mind that one object can have many uses. Separate your responses with a comma.",NA,"y",24837,NA,NA,2645,23107,NA,NA,NA,"searching, lighting up the way",1
"w10063195_SYP","v98f9teval","BOI Norms",1,12,"2022-03-22T21:18:27+00:00",42.446746110916,11,"updated stim.csv","Version86.csv","Version 86","List 86","wax",NA,2573,5.291666667,2912,0.507985351,2574,"BOI","-","-","Please name all of the ways you could use this object. Keep in mind that one object can have many uses. Separate your responses with a comma.",NA,"y",42312,NA,NA,3135,38495,NA,NA,NA,"burning, solidifying, removing hair",1
"w10063195_SYP","v98f9teval","BOI Norms",1,13,"2022-03-22T21:18:47+00:00",20.055979967117,11,"updated stim.csv","Version86.csv","Version 86","List 86","boutique",NA,2566,4.692307692,291,0.165579657,2567,"BOI","-","-","Please name all of the ways you could use this object. Keep in mind that one object can have many uses. Separate your responses with a comma.",NA,"y",19918,NA,NA,1875,19013,NA,NA,NA,"shopping, making clothes, buying, browsing",1
"w10063195_SYP","v98f9teval","BOI Norms",1,14,"2022-03-22T21:19:00+00:00",13.561059951782,11,"updated stim.csv","Version86.csv","Version 86","List 86","taxpayer",NA,2571,4.583333333,2640,0.602654368,2572,"BOI","-","-","Please name all of the ways you could use this object. Keep in mind that one object can have many uses. Separate your responses with a comma.",NA,"y",13422,NA,NA,2400,12032,NA,NA,NA,"paying, collecting",1
"w10063195_SYP","v98f9teval","BOI Norms",1,15,"2022-03-22T21:19:22+00:00",21.746833086014,11,"updated stim.csv","Version86.csv","Version 86","List 86","toastmaster",NA,2561,4.652173913,2711,0.107891275,2562,"BOI","-","-","Please name all of the ways you could use this object. Keep in mind that one object can have many uses. Separate your responses with a comma.",NA,"y",21592,NA,NA,6504,16149,NA,NA,NA,"cooking, heating",1
"w10063195_SYP","v98f9teval","BOI Norms",1,16,"2022-03-22T21:20:01+00:00",39.129898786545,11,"updated stim.csv","Version86.csv","Version 86","List 86","football",NA,2559,6.12,1030,0.080825833,2560,"BOI","-","-","Please name all of the ways you could use this object. Keep in mind that one object can have many uses. Separate your responses with a comma.",NA,"y",38940,NA,NA,1278,26908,NA,NA,NA,"playing, throwing, catching, running with it",1
"w10063195_SYP","v98f9teval","BOI Norms",1,17,"2022-03-22T21:20:28+00:00",26.616123199463,11,"updated stim.csv","Version86.csv","Version 86","List 86","chip",NA,2563,5.181818182,529,0.412239971,2564,"BOI","-","-","Please name all of the ways you could use this object. Keep in mind that one object can have many uses. Separate your responses with a comma.",NA,"y",26419,NA,NA,1425,26123,NA,NA,NA,"eating, smashing, storing, cooking, frying, throwing away",1
"w10063195_SYP","v98f9teval","BOI Norms",1,18,"2022-03-22T21:20:54+00:00",26.131551980972,11,"updated stim.csv","Version86.csv","Version 86","List 86","soldier",NA,2558,4.56,2446,0.86588521,2559,"BOI","-","-","Please name all of the ways you could use this object. Keep in mind that one object can have many uses. Separate your responses with a comma.",NA,"y",25993,NA,NA,3370,24754,NA,NA,NA,"walking, firing a gun, exercising, speaking loudly, following rules",1
"w10063195_SYP","v98f9teval","BOI Norms",1,19,"2022-03-22T21:21:20+00:00",26.668588876724,11,"updated stim.csv","Version86.csv","Version 86","List 86","alcohol",NA,2568,5.833333333,24,0.898153716,2569,"BOI","-","-","Please name all of the ways you could use this object. Keep in mind that one object can have many uses. Separate your responses with a comma.",NA,"y",26522,NA,NA,1168,26371,NA,NA,NA,"drinking, storing, giving out to people, fermenting",1
"w10063195_SYP","v98f9teval","BOI Norms",1,20,"2022-03-22T21:21:35+00:00",14.78146314621,11,"updated stim.csv","Version86.csv","Version 86","List 86","fillet",NA,2554,4.32,975,0.568599469,2555,"BOI","-","-","Please name all of the ways you could use this object. Keep in mind that one object can have many uses. Separate your responses with a comma.",NA,"y",14617,NA,NA,1492,13766,NA,NA,NA,"eating, cooking, burning, serving",1
"w10063195_SYP","v98f9teval","BOI Norms",1,21,"2022-03-22T21:22:26+00:00",51.20672082901,11,"updated stim.csv","Version86.csv","Version 86","List 86","periscope",NA,2557,4.653846154,1927,0.675369734,2558,"BOI","-","-","Please name all of the ways you could use this object. Keep in mind that one object can have many uses. Separate your responses with a comma.",NA,"y",51064,NA,NA,25536,47341,NA,NA,NA,"looking, searching",1
"w10063195_SYP","v98f9teval","BOI Norms",1,22,"2022-03-22T21:22:47+00:00",20.38751411438,11,"updated stim.csv","Version86.csv","Version 86","List 86","dove",NA,2580,4.333333333,835,0.599815512,2581,"BOI","-","-","Please name all of the ways you could use this object. Keep in mind that one object can have many uses. Separate your responses with a comma.",NA,"y",20239,NA,NA,1842,20092,NA,NA,NA,"flying, eating, pecking, walking, looking",1
"w10063195_SYP","v98f9teval","BOI Norms",1,23,"2022-03-22T21:22:57+00:00",10.663933992386,11,"updated stim.csv","Version86.csv","Version 86","List 86","gumbo",NA,2556,4.619047619,1196,0.729479921,2557,"BOI","-","-","Please name all of the ways you could use this object. Keep in mind that one object can have many uses. Separate your responses with a comma.",NA,"y",10536,NA,NA,5117,10310,NA,NA,NA,"eating, cooking, serving",1
"w10063195_SYP","v98f9teval","BOI Norms",1,24,"2022-03-22T21:23:26+00:00",28.454048871994,11,"updated stim.csv","Version86.csv","Version 86","List 86","rainfall",NA,2577,4.88,2132,0.072471926,2578,"BOI","-","-","Please name all of the ways you could use this object. Keep in mind that one object can have many uses. Separate your responses with a comma.",NA,"y",28324,NA,NA,9444,23404,NA,NA,NA,"playing, catching in a bottle",1
"w10063195_SYP","v98f9teval","BOI Norms",1,25,"2022-03-22T21:23:37+00:00",10.607766151428,11,"updated stim.csv","Version86.csv","Version 86","List 86","tumbler",NA,2551,5.136363636,2795,0.141279903,2552,"BOI","-","-","Please name all of the ways you could use this object. Keep in mind that one object can have many uses. Separate your responses with a comma.",NA,"y",10476,NA,NA,1765,9371,NA,NA,NA,"storing liquids, drinking",1
"w10063195_SYP","v98f9teval","BOI Norms",1,26,"2022-03-22T21:24:07+00:00",30.672206878662,11,"updated stim.csv","Version86.csv","Version 86","List 86","cryptographer",NA,2575,4.583333333,719,0.320828154,2576,"BOI","-","-","Please name all of the ways you could use this object. Keep in mind that one object can have many uses. Separate your responses with a comma.",NA,"y",30535,NA,NA,19659,30391,NA,NA,NA,"surveillance, searching, identifying",1
"w10063195_SYP","v98f9teval","BOI Norms",1,27,"2022-03-22T21:24:31+00:00",23.999844074249,11,"updated stim.csv","Version86.csv","Version 86","List 86","assassin",NA,2579,4.32,88,0.497401619,2580,"BOI","-","-","Please name all of the ways you could use this object. Keep in mind that one object can have many uses. Separate your responses with a comma.",NA,"y",23870,NA,NA,1698,7870,NA,NA,NA,"killing, searching",1
"w10063195_SYP","v98f9teval","BOI Norms",1,28,"2022-03-22T21:24:56+00:00",25.16835308075,11,"updated stim.csv","Version86.csv","Version 86","List 86","navel",NA,2570,5,1737,0.204591402,2571,"BOI","-","-","Please name all of the ways you could use this object. Keep in mind that one object can have many uses. Separate your responses with a comma.",NA,"y",25028,NA,NA,16374,23611,NA,NA,NA,"sitting, standing, walking, running",1
"w10063195_SYP","v98f9teval","BOI Norms",1,29,"2022-03-22T21:25:17+00:00",20.577804803848,11,"updated stim.csv","Version86.csv","Version 86","List 86","riverboat",NA,2574,5.52,2174,0.65255078,2575,"BOI","-","-","Please name all of the ways you could use this object. Keep in mind that one object can have many uses. Separate your responses with a comma.",NA,"y",20448,NA,NA,3158,17559,NA,NA,NA,"to row, travel",1
"w10063195_SYP","v98f9teval","BOI Norms",1,30,"2022-03-22T21:25:26+00:00",8.7949130535126,11,"updated stim.csv","Version86.csv","Version 86","List 86","sapling",NA,2555,4.304347826,2240,0.250725874,2556,"BOI","-","-","Please name all of the ways you could use this object. Keep in mind that one object can have many uses. Separate your responses with a comma.",NA,"y",8663,NA,NA,3578,8479,NA,NA,NA,"planting, growing",1
"w10063195_SYP","v98f9teval","BOI Norms",1,31,"2022-03-22T21:25:45+00:00",19.718776941299,11,"updated stim.csv","Version86.csv","Version 86","List 86","pug",NA,2572,5.965517241,2090,0.401662633,2573,"BOI","-","-","Please name all of the ways you could use this object. Keep in mind that one object can have many uses. Separate your responses with a comma.",NA,"y",19354,NA,NA,9177,16286,NA,NA,NA,"playing, walking, hugging",1
"w10063195_SYP","v98f9teval","BOI Norms",1,32,"2022-03-22T21:26:01+00:00",15.072230100632,11,"updated stim.csv","Version86.csv","Version 86","List 86","glitter",NA,2578,4.434782609,1115,0.911056253,2579,"BOI","-","-","Please name all of the ways you could use this object. Keep in mind that one object can have many uses. Separate your responses with a comma.",NA,"y",14933,NA,NA,2166,6365,NA,NA,NA,"decorating",1
"w10063195_SYP","v98f9teval","BOI Norms",1,33,"2022-03-22T21:26:11+00:00",10.765201091766,11,"updated stim.csv","Version86.csv","Version 86","List 86","snowman",NA,2553,4.916666667,2435,0.482927272,2554,"BOI","-","-","Please name all of the ways you could use this object. Keep in mind that one object can have many uses. Separate your responses with a comma.",NA,"y",10631,NA,NA,1721,10480,NA,NA,NA,"creating, playing, designing",1
"w10063195_SYP","v98f9teval","BOI Norms",1,34,"2022-03-22T21:26:15+00:00",4.0261528491974,11,"updated stim.csv","Version86.csv","Version 86","List 86","wrench",NA,2565,6.181818182,2980,0.24871765,2566,"BOI","-","-","Please name all of the ways you could use this object. Keep in mind that one object can have many uses. Separate your responses with a comma.",NA,"y",3923,NA,NA,2973,3761,NA,NA,NA,"fixing",1
"w10063195_SYP","v98f9teval","BOI Norms",1,35,"2022-03-22T21:26:30+00:00",14.785670995712,11,"updated stim.csv","Version86.csv","Version 86","List 86","gravestone",NA,2564,4.875,1165,0.794571203,2565,"BOI","-","-","Please name all of the ways you could use this object. Keep in mind that one object can have many uses. Separate your responses with a comma.",NA,"y",14655,NA,NA,5599,14512,NA,NA,NA,"building, positioning",1
"w10063195_SYP","v98f9teval","BOI Norms",1,36,"2022-03-22T21:26:33+00:00",2.9206299781799,11,"updated stim.csv","Version86.csv","Version 86","List 86","crate",NA,2567,5.304347826,684,0.563224365,2568,"BOI","-","-","Please name all of the ways you could use this object. Keep in mind that one object can have many uses. Separate your responses with a comma.",NA,"y",2814,NA,NA,1622,2802,NA,NA,NA,"moving\",1
"w10063195_SYP","v98f9teval","BOI Norms",1,37,"2022-03-22T21:26:40+00:00",6.8752150535583,11,"updated stim.csv","Version86.csv","Version 86","List 86","plaything",NA,2560,4.92,2004,0.817850605,2561,"BOI","-","-","Please name all of the ways you could use this object. Keep in mind that one object can have many uses. Separate your responses with a comma.",NA,"y",6752,NA,NA,4434,6483,NA,NA,NA,"playing",1
"w10063195_SYP","v98f9teval","BOI Norms",1,38,"2022-03-22T21:27:37+00:00",56.621137142181,11,"updated stim.csv","Version86.csv","Version 86","List 86","barn",NA,2569,5.173913043,151,0.640296551,2570,"BOI","-","-","Please name all of the ways you could use this object. Keep in mind that one object can have many uses. Separate your responses with a comma.",NA,"y",56485,NA,NA,2819,56299,NA,NA,NA,"keeping animals safe, warming, feeding place",1
"w10063195_SYP","v98f9teval","BOI Norms",1,39,"2022-03-22T21:27:47+00:00",10.022841930389,11,"updated stim.csv","Version86.csv","Version 86","List 86","forearm",NA,2576,5.782608696,1043,0.774176609,2577,"BOI","-","-","Please name all of the ways you could use this object. Keep in mind that one object can have many uses. Separate your responses with a comma.",NA,"y",9887,NA,NA,1972,9767,NA,NA,NA,"moving",1
"w10063195_SYP","v98f9teval","BOI Norms",1,40,"2022-03-22T21:28:00+00:00",13.594832897186,11,"updated stim.csv","Version86.csv","Version 86","List 86","tapioca",NA,2552,4.454545455,2634,0.115954063,2553,"BOI","-","-","Please name all of the ways you could use this object. Keep in mind that one object can have many uses. Separate your responses with a comma.",NA,"y",13454,NA,NA,8858,13149,NA,NA,NA,"eating, creating",1
"w10070001_JPO","juihudh5xt","BOI Norms",1,11,"2022-03-31T22:17:42+00:00",30.105836868286,7,"updated stim.csv","Version82.csv","Version 82","List 82","announcer",NA,2439,4.296296296,44,0.293508408,2440,"BOI","-","-","Please name all of the ways you could use this object. Keep in mind that one object can have many uses. Separate your responses with a comma.",NA,"y",29811,NA,NA,7115,22979,NA,NA,NA,"broadcast,report,",1
"w10070001_JPO","juihudh5xt","BOI Norms",1,12,"2022-03-31T22:18:11+00:00",28.174025058746,7,"updated stim.csv","Version82.csv","Version 82","List 82","cartridge",NA,2444,5.12,444,0.218092929,2445,"BOI","-","-","Please name all of the ways you could use this object. Keep in mind that one object can have many uses. Separate your responses with a comma.",NA,"y",27667,NA,NA,3535,26754,NA,NA,NA,"fill,load",1
"w10070001_JPO","juihudh5xt","BOI Norms",1,13,"2022-03-31T22:18:27+00:00",15.982517957687,7,"updated stim.csv","Version82.csv","Version 82","List 82","petroleum",NA,2438,4.333333333,1934,0.18972014,2439,"BOI","-","-","Please name all of the ways you could use this object. Keep in mind that one object can have many uses. Separate your responses with a comma.",NA,"y",15507,NA,NA,6872,11457,NA,NA,NA,"fuel",1
"w10070001_JPO","juihudh5xt","BOI Norms",1,14,"2022-03-31T22:18:36+00:00",9.0684850215912,7,"updated stim.csv","Version82.csv","Version 82","List 82","sidecar",NA,2434,4.347826087,2376,0.56786032,2435,"BOI","-","-","Please name all of the ways you could use this object. Keep in mind that one object can have many uses. Separate your responses with a comma.",NA,"y",8557,NA,NA,-1,-1,NA,NA,NA,"",1
"w10070001_JPO","juihudh5xt","BOI Norms",1,15,"2022-03-31T22:18:52+00:00",16.710963010788,7,"updated stim.csv","Version82.csv","Version 82","List 82","socket",NA,2458,5.24,2440,0.765868539,2459,"BOI","-","-","Please name all of the ways you could use this object. Keep in mind that one object can have many uses. Separate your responses with a comma.",NA,"y",16369,NA,NA,4210,4764,NA,NA,NA,"fill,",1
"w10070001_JPO","juihudh5xt","BOI Norms",1,16,"2022-03-31T22:19:26+00:00",33.43869805336,7,"updated stim.csv","Version82.csv","Version 82","List 82","blender",NA,2442,5.739130435,236,0.878994835,2443,"BOI","-","-","Please name all of the ways you could use this object. Keep in mind that one object can have many uses. Separate your responses with a comma.",NA,"y",32912,NA,NA,4938,32005,NA,NA,NA,"grinding,smoothies,drinks",1
"w10070001_JPO","juihudh5xt","BOI Norms",1,17,"2022-03-31T22:19:37+00:00",10.668132066727,7,"updated stim.csv","Version82.csv","Version 82","List 82","corduroy",NA,2446,5.041666667,641,0.863483233,2447,"BOI","-","-","Please name all of the ways you could use this object. Keep in mind that one object can have many uses. Separate your responses with a comma.",NA,"y",10131,NA,NA,5454,8992,NA,NA,NA,"clothing",1
"w10070001_JPO","juihudh5xt","BOI Norms",1,18,"2022-03-31T22:20:04+00:00",27.763012886047,7,"updated stim.csv","Version82.csv","Version 82","List 82","card",NA,2437,5.56,430,0.002227114,2438,"BOI","-","-","Please name all of the ways you could use this object. Keep in mind that one object can have many uses. Separate your responses with a comma.",NA,"y",27288,NA,NA,4625,26302,NA,NA,NA,"identification,payment,special occasions,letters",1
"w10070001_JPO","juihudh5xt","BOI Norms",1,19,"2022-03-31T22:20:31+00:00",26.4032330513,7,"updated stim.csv","Version82.csv","Version 82","List 82","shrine",NA,2443,4.555555556,2367,0.930741572,2444,"BOI","-","-","Please name all of the ways you could use this object. Keep in mind that one object can have many uses. Separate your responses with a comma.",NA,"y",25874,NA,NA,2074,24992,NA,NA,NA,"rituals,religion,honor",1
"w10070001_JPO","juihudh5xt","BOI Norms",1,20,"2022-03-31T22:20:55+00:00",24.037448883057,7,"updated stim.csv","Version82.csv","Version 82","List 82","net",NA,2459,5.208333333,1751,0.421115039,2460,"BOI","-","-","Please name all of the ways you could use this object. Keep in mind that one object can have many uses. Separate your responses with a comma.",NA,"y",23459,NA,NA,6182,22432,NA,NA,NA,"catching,holding",1
"w10070001_JPO","juihudh5xt","BOI Norms",1,21,"2022-03-31T22:21:19+00:00",24.702049016953,7,"updated stim.csv","Version82.csv","Version 82","List 82","doorframe",NA,2455,5.086956522,823,0.680509669,2456,"BOI","-","-","Please name all of the ways you could use this object. Keep in mind that one object can have many uses. Separate your responses with a comma.",NA,"y",24175,NA,NA,5564,14686,NA,NA,NA,"holding a door,walk through it,",1
"w10070001_JPO","juihudh5xt","BOI Norms",1,22,"2022-03-31T22:21:51+00:00",31.08048415184,7,"updated stim.csv","Version82.csv","Version 82","List 82","arrowhead",NA,2457,4.44,77,0.878580468,2458,"BOI","-","-","Please name all of the ways you could use this object. Keep in mind that one object can have many uses. Separate your responses with a comma.",NA,"y",29684,NA,NA,8106,28649,NA,NA,NA,"making arrows, designing,hunting",1
"w10070001_JPO","juihudh5xt","BOI Norms",1,23,"2022-03-31T22:21:57+00:00",6.8446128368378,7,"updated stim.csv","Version82.csv","Version 82","List 82","buffet",NA,2451,5.409090909,346,0.793112316,2452,"BOI","-","-","Please name all of the ways you could use this object. Keep in mind that one object can have many uses. Separate your responses with a comma.",NA,"y",6337,NA,NA,2259,3542,NA,NA,NA,"eating",1
"w10070001_JPO","juihudh5xt","BOI Norms",1,24,"2022-03-31T22:22:44+00:00",46.867285013199,7,"updated stim.csv","Version82.csv","Version 82","List 82","tablet",NA,2448,6.517241379,2619,0.393271427,2449,"BOI","-","-","Please name all of the ways you could use this object. Keep in mind that one object can have many uses. Separate your responses with a comma.",NA,"y",46515,NA,NA,3533,24235,NA,NA,NA,"medicine,internet capabilities,",1
"w10070001_JPO","juihudh5xt","BOI Norms",1,25,"2022-03-31T22:22:52+00:00",8.1611170768738,7,"updated stim.csv","Version82.csv","Version 82","List 82","punter",NA,2454,4.464285714,2100,0.817623298,2455,"BOI","-","-","Please name all of the ways you could use this object. Keep in mind that one object can have many uses. Separate your responses with a comma.",NA,"y",7659,NA,NA,2743,5561,NA,NA,NA,"kicking balls,",1
"w10070001_JPO","juihudh5xt","BOI Norms",1,26,"2022-03-31T22:23:11+00:00",18.160899877548,7,"updated stim.csv","Version82.csv","Version 82","List 82","classmate",NA,2460,5.363636364,549,0.902201284,2461,"BOI","-","-","Please name all of the ways you could use this object. Keep in mind that one object can have many uses. Separate your responses with a comma.",NA,"y",17836,NA,NA,4481,17267,NA,NA,NA,"teach,friend,competition",1
"w10070001_JPO","juihudh5xt","BOI Norms",1,27,"2022-03-31T22:23:23+00:00",12.907073020935,7,"updated stim.csv","Version82.csv","Version 82","List 82","buck",NA,2440,4.291666667,340,0.941213361,2441,"BOI","-","-","Please name all of the ways you could use this object. Keep in mind that one object can have many uses. Separate your responses with a comma.",NA,"y",12402,NA,NA,2037,6804,NA,NA,NA,"money,animal,",1
"w10070001_JPO","juihudh5xt","BOI Norms",1,28,"2022-03-31T22:23:36+00:00",12.706763029099,7,"updated stim.csv","Version82.csv","Version 82","List 82","dumpling",NA,2449,4.826086957,867,0.576231689,2450,"BOI","-","-","Please name all of the ways you could use this object. Keep in mind that one object can have many uses. Separate your responses with a comma.",NA,"y",12174,NA,NA,3209,11093,NA,NA,NA,"eat,describe someone",1
"w10070001_JPO","juihudh5xt","BOI Norms",1,29,"2022-03-31T22:23:42+00:00",5.5693600177765,7,"updated stim.csv","Version82.csv","Version 82","List 82","backboard",NA,2431,4.565217391,112,0.288232898,2432,"BOI","-","-","Please name all of the ways you could use this object. Keep in mind that one object can have many uses. Separate your responses with a comma.",NA,"y",5012,NA,NA,2937,4001,NA,NA,NA,"basketball",1
"w10070001_JPO","juihudh5xt","BOI Norms",1,30,"2022-03-31T22:23:59+00:00",17.083240032196,7,"updated stim.csv","Version82.csv","Version 82","List 82","Crab",NA,2432,4.889189189,674,0.893830777,2433,"BOI","-","-","Please name all of the ways you could use this object. Keep in mind that one object can have many uses. Separate your responses with a comma.",NA,"y",16772,NA,NA,1494,16593,NA,NA,NA,"eat,use as bait,hunt",1
"w10070001_JPO","juihudh5xt","BOI Norms",1,31,"2022-03-31T22:24:16+00:00",16.791175127029,7,"updated stim.csv","Version82.csv","Version 82","List 82","oven",NA,2445,5.923076923,1831,0.613415562,2446,"BOI","-","-","Please name all of the ways you could use this object. Keep in mind that one object can have many uses. Separate your responses with a comma.",NA,"y",16283,NA,NA,1751,12271,NA,NA,NA,"cook, ",1
"w10070001_JPO","juihudh5xt","BOI Norms",1,32,"2022-03-31T22:24:19+00:00",3.7692639827728,7,"updated stim.csv","Version82.csv","Version 82","List 82","eclair",NA,2435,6.166666667,886,0.376305071,2436,"BOI","-","-","Please name all of the ways you could use this object. Keep in mind that one object can have many uses. Separate your responses with a comma.",NA,"y",3277,NA,NA,2667,2900,NA,NA,NA,"what",1
"w10070001_JPO","juihudh5xt","BOI Norms",1,33,"2022-03-31T22:24:42+00:00",22.656637907028,7,"updated stim.csv","Version82.csv","Version 82","List 82","slingshot",NA,2433,5.4,2414,0.097911449,2434,"BOI","-","-","Please name all of the ways you could use this object. Keep in mind that one object can have many uses. Separate your responses with a comma.",NA,"y",22340,NA,NA,3920,21846,NA,NA,NA,"launch stuff, takedown goliath",1
"w10070001_JPO","juihudh5xt","BOI Norms",1,34,"2022-03-31T22:24:46+00:00",3.5414509773254,7,"updated stim.csv","Version82.csv","Version 82","List 82","teakwood",NA,2436,5.136363636,2647,0.381547921,2437,"BOI","-","-","Please name all of the ways you could use this object. Keep in mind that one object can have many uses. Separate your responses with a comma.",NA,"y",3054,NA,NA,2691,2934,NA,NA,NA,"what",1
"w10070001_JPO","juihudh5xt","BOI Norms",1,35,"2022-03-31T22:25:10+00:00",24.341241121292,7,"updated stim.csv","Version82.csv","Version 82","List 82","saxophone",NA,2456,6.222222222,2257,0.438334646,2457,"BOI","-","-","Please name all of the ways you could use this object. Keep in mind that one object can have many uses. Separate your responses with a comma.",NA,"y",24043,NA,NA,2223,23563,NA,NA,NA,"make music, hobby",1
"w10070001_JPO","juihudh5xt","BOI Norms",1,36,"2022-03-31T22:25:22+00:00",11.786927938461,7,"updated stim.csv","Version82.csv","Version 82","List 82","burglar",NA,2447,4.260869565,366,0.636597323,2448,"BOI","-","-","Please name all of the ways you could use this object. Keep in mind that one object can have many uses. Separate your responses with a comma.",NA,"y",11297,NA,NA,3337,4181,NA,NA,NA,"arrest,",1
"w10070001_JPO","juihudh5xt","BOI Norms",1,37,"2022-03-31T22:25:32+00:00",10.058811903,7,"updated stim.csv","Version82.csv","Version 82","List 82","candlestick",NA,2441,6,411,0.314982696,2442,"BOI","-","-","Please name all of the ways you could use this object. Keep in mind that one object can have many uses. Separate your responses with a comma.",NA,"y",9564,NA,NA,3825,7912,NA,NA,NA,"ignite,",1
"w10070001_JPO","juihudh5xt","BOI Norms",1,38,"2022-03-31T22:25:43+00:00",10.822292089462,7,"updated stim.csv","Version82.csv","Version 82","List 82","mattress",NA,2453,6.72,1626,0.986617127,2454,"BOI","-","-","Please name all of the ways you could use this object. Keep in mind that one object can have many uses. Separate your responses with a comma.",NA,"y",10354,NA,NA,1223,2153,NA,NA,NA,"sleep,",1
"w10070001_JPO","juihudh5xt","BOI Norms",1,39,"2022-03-31T22:27:35+00:00",112.20914888382,7,"updated stim.csv","Version82.csv","Version 82","List 82","peppermint",NA,2452,5.391304348,1923,0.275923071,2453,"BOI","-","-","Please name all of the ways you could use this object. Keep in mind that one object can have many uses. Separate your responses with a comma.",NA,"y",10955,NA,NA,3839,10238,NA,NA,NA,"eat, give to someone",1
"w10070001_JPO","juihudh5xt","BOI Norms",1,40,"2022-03-31T22:27:46+00:00",11.489690065384,7,"updated stim.csv","Version82.csv","Version 82","List 82","soda",NA,2450,6.47826087,2442,0.228811069,2451,"BOI","-","-","Please name all of the ways you could use this object. Keep in mind that one object can have many uses. Separate your responses with a comma.",NA,"y",10990,NA,NA,4063,8988,NA,NA,NA,"drink,avoided",1
"w10074451_kcm","cnebfhra40","BOI Norms",1,11,"2022-03-29T20:08:28+00:00",19.340044975281,25,"updated stim.csv","Version100.csv","Version 100","List 100","brow",NA,2998,4.416666667,336,0.275656791,2999,"BOI","-","-","Please name all of the ways you could use this object. Keep in mind that one object can have many uses. Separate your responses with a comma.",NA,"y",19011,NA,NA,3879,17452,NA,NA,NA,"pluck, draw, keep out bacteria from eyes",1
"w10074451_kcm","cnebfhra40","BOI Norms",1,12,"2022-03-29T20:08:49+00:00",21.191103219986,25,"updated stim.csv","Version100.csv","Version 100","List 100","centipede",NA,2986,5.25,478,0.361563673,2987,"BOI","-","-","Please name all of the ways you could use this object. Keep in mind that one object can have many uses. Separate your responses with a comma.",NA,"y",20964,NA,NA,2352,19905,NA,NA,NA,"draw, hold, look at, take a picture of",1
"w10074451_kcm","cnebfhra40","BOI Norms",1,13,"2022-03-29T20:09:02+00:00",12.936378955841,25,"updated stim.csv","Version100.csv","Version 100","List 100","wallboard",NA,2978,4.64,2887,0.494540405,2979,"BOI","-","-","Please name all of the ways you could use this object. Keep in mind that one object can have many uses. Separate your responses with a comma.",NA,"y",12786,NA,NA,1788,11138,NA,NA,NA,"write on, study, take picture of, draw on",1
"w10074451_kcm","cnebfhra40","BOI Norms",1,14,"2022-03-29T20:09:14+00:00",12.51229095459,25,"updated stim.csv","Version100.csv","Version 100","List 100","breadboard",NA,2987,5.44,310,0.496866856,2988,"BOI","-","-","Please name all of the ways you could use this object. Keep in mind that one object can have many uses. Separate your responses with a comma.",NA,"y",12365,NA,NA,10368,10393,NA,NA,NA,"no",1
"w10074451_kcm","cnebfhra40","BOI Norms",1,15,"2022-03-29T20:09:25+00:00",10.311403989792,25,"updated stim.csv","Version100.csv","Version 100","List 100","hound",NA,2974,4.962962963,1324,0.921503251,2975,"BOI","-","-","Please name all of the ways you could use this object. Keep in mind that one object can have many uses. Separate your responses with a comma.",NA,"y",9880,NA,NA,2171,8471,NA,NA,NA,"walk, bring hunting",1
"w10074451_kcm","cnebfhra40","BOI Norms",1,16,"2022-03-29T20:09:37+00:00",12.018356084824,25,"updated stim.csv","Version100.csv","Version 100","List 100","knickers",NA,2977,5.5,1435,0.06671173,2978,"BOI","-","-","Please name all of the ways you could use this object. Keep in mind that one object can have many uses. Separate your responses with a comma.",NA,"y",11869,NA,NA,1440,11194,NA,NA,NA,"wear, wash, fold, put in drawer",1
"w10074451_kcm","cnebfhra40","BOI Norms",1,17,"2022-03-29T20:09:39+00:00",2.8009598255157,25,"updated stim.csv","Version100.csv","Version 100","List 100","marketeer",NA,2989,4.5,1608,0.440459181,2990,"BOI","-","-","Please name all of the ways you could use this object. Keep in mind that one object can have many uses. Separate your responses with a comma.",NA,"y",2646,NA,NA,2225,2311,NA,NA,NA,"no",1
"w10074451_kcm","cnebfhra40","BOI Norms",1,18,"2022-03-29T20:09:51+00:00",11.854884147644,25,"updated stim.csv","Version100.csv","Version 100","List 100","respirator",NA,2995,4.923076923,2158,0.490217612,2996,"BOI","-","-","Please name all of the ways you could use this object. Keep in mind that one object can have many uses. Separate your responses with a comma.",NA,"y",11713,NA,NA,1688,11514,NA,NA,NA,"breathe, clear airway, open up lungs",1
"w10074451_kcm","cnebfhra40","BOI Norms",1,19,"2022-03-29T20:09:58+00:00",6.8159599304199,25,"updated stim.csv","Version100.csv","Version 100","List 100","pulley",NA,2973,5.208333333,2092,0.333814216,2974,"BOI","-","-","Please name all of the ways you could use this object. Keep in mind that one object can have many uses. Separate your responses with a comma.",NA,"y",6456,NA,NA,3764,5931,NA,NA,NA,"pull things",1
"w10074451_kcm","cnebfhra40","BOI Norms",1,20,"2022-03-29T20:10:10+00:00",11.743810892105,25,"updated stim.csv","Version100.csv","Version 100","List 100","school",NA,2979,5.16,2269,0.316817228,2980,"BOI","-","-","Please name all of the ways you could use this object. Keep in mind that one object can have many uses. Separate your responses with a comma.",NA,"y",11578,NA,NA,1257,10681,NA,NA,NA,"learn, socialize, make friends, education",1
"w10074451_kcm","cnebfhra40","BOI Norms",1,21,"2022-03-29T20:10:23+00:00",13.226165056229,25,"updated stim.csv","Version100.csv","Version 100","List 100","bowling",NA,2980,5,293,0.377094601,2981,"BOI","-","-","Please name all of the ways you could use this object. Keep in mind that one object can have many uses. Separate your responses with a comma.",NA,"y",13072,NA,NA,4311,12823,NA,NA,NA,"roll a ball, strike, spare, win, lose",1
"w10074451_kcm","cnebfhra40","BOI Norms",1,22,"2022-03-29T20:10:42+00:00",18.787770986557,25,"updated stim.csv","Version100.csv","Version 100","List 100","trampoline",NA,2994,5.88,2759,0.660595549,2995,"BOI","-","-","Please name all of the ways you could use this object. Keep in mind that one object can have many uses. Separate your responses with a comma.",NA,"y",18647,NA,NA,2696,17890,NA,NA,NA,"jump, get hurt, have fun, to reach something",1
"w10074451_kcm","cnebfhra40","BOI Norms",1,23,"2022-03-29T20:10:59+00:00",17.214699983597,25,"updated stim.csv","Version100.csv","Version 100","List 100","guardrail",NA,2991,4.36,1186,0.020980927,2992,"BOI","-","-","Please name all of the ways you could use this object. Keep in mind that one object can have many uses. Separate your responses with a comma.",NA,"y",16825,NA,NA,3590,16639,NA,NA,NA,"stop from falling, keep people out of places, keep children safe",1
"w10074451_kcm","cnebfhra40","BOI Norms",1,24,"2022-03-29T20:11:13+00:00",13.799674987793,25,"updated stim.csv","Version100.csv","Version 100","List 100","waffle",NA,2983,6.173913043,2878,0.966588305,2984,"BOI","-","-","Please name all of the ways you could use this object. Keep in mind that one object can have many uses. Separate your responses with a comma.",NA,"y",13624,NA,NA,2832,11857,NA,NA,NA,"put syrup on, put butter on, eat it, digest it",1
"w10074451_kcm","cnebfhra40","BOI Norms",1,25,"2022-03-29T20:11:26+00:00",12.940414190292,25,"updated stim.csv","Version100.csv","Version 100","List 100","deck",NA,2988,5.541666667,763,0.401643692,2989,"BOI","-","-","Please name all of the ways you could use this object. Keep in mind that one object can have many uses. Separate your responses with a comma.",NA,"y",12593,NA,NA,1883,12194,NA,NA,NA,"sit on, hang out with people",1
"w10074451_kcm","cnebfhra40","BOI Norms",1,26,"2022-03-29T20:11:41+00:00",15.163011789322,25,"updated stim.csv","Version100.csv","Version 100","List 100","dye",NA,2972,4.52173913,873,0.952729296,2973,"BOI","-","-","Please name all of the ways you could use this object. Keep in mind that one object can have many uses. Separate your responses with a comma.",NA,"y",14996,NA,NA,2494,14569,NA,NA,NA,"use on hair, fabric, wood, leather",1
"w10074451_kcm","cnebfhra40","BOI Norms",1,27,"2022-03-29T20:12:02+00:00",21.430504083633,25,"updated stim.csv","Version100.csv","Version 100","List 100","earplugs",NA,2996,6.541666667,880,0.170981049,2997,"BOI","-","-","Please name all of the ways you could use this object. Keep in mind that one object can have many uses. Separate your responses with a comma.",NA,"y",21202,NA,NA,3736,20142,NA,NA,NA,"quiet loud surroundings, protect against swimmer's ear",1
"w10074451_kcm","cnebfhra40","BOI Norms",1,28,"2022-03-29T20:12:08+00:00",5.7756929397583,25,"updated stim.csv","Version100.csv","Version 100","List 100","greenhouse",NA,2975,5.260869565,1171,0.395588172,2976,"BOI","-","-","Please name all of the ways you could use this object. Keep in mind that one object can have many uses. Separate your responses with a comma.",NA,"y",5627,NA,NA,1443,2975,NA,NA,NA,"plants",1
"w10074451_kcm","cnebfhra40","BOI Norms",1,29,"2022-03-29T20:12:21+00:00",13.085368156433,25,"updated stim.csv","Version100.csv","Version 100","List 100","limb",NA,2982,5.703703704,1511,0.461627008,2983,"BOI","-","-","Please name all of the ways you could use this object. Keep in mind that one object can have many uses. Separate your responses with a comma.",NA,"y",12860,NA,NA,2066,12530,NA,NA,NA,"kick, punch, slap, stretch, poke",1
"w10074451_kcm","cnebfhra40","BOI Norms",1,30,"2022-03-29T20:12:27+00:00",6.2959089279175,25,"updated stim.csv","Version100.csv","Version 100","List 100","fieldstone",NA,2990,4.761904762,971,0.517837285,2991,"BOI","-","-","Please name all of the ways you could use this object. Keep in mind that one object can have many uses. Separate your responses with a comma.",NA,"y",6025,NA,NA,5533,5627,NA,NA,NA,"no",1
"w10074451_kcm","cnebfhra40","BOI Norms",1,31,"2022-03-29T20:12:33+00:00",6.028235912323,25,"updated stim.csv","Version100.csv","Version 100","List 100","Fern",NA,2976,5.005471956,964,0.19837687,2977,"BOI","-","-","Please name all of the ways you could use this object. Keep in mind that one object can have many uses. Separate your responses with a comma.",NA,"y",5887,NA,NA,5439,5533,NA,NA,NA,"no",1
"w10074451_kcm","cnebfhra40","BOI Norms",1,32,"2022-03-29T20:12:48+00:00",14.357744216919,25,"updated stim.csv","Version100.csv","Version 100","List 100","dish",NA,2981,5.8,802,0.35675411,2982,"BOI","-","-","Please name all of the ways you could use this object. Keep in mind that one object can have many uses. Separate your responses with a comma.",NA,"y",14033,NA,NA,1593,13752,NA,NA,NA,"wash, store, put food in, throw, destroy",1
"w10074451_kcm","cnebfhra40","BOI Norms",1,33,"2022-03-29T20:12:54+00:00",6.3644278049469,25,"updated stim.csv","Version100.csv","Version 100","List 100","waist",NA,2997,6.458333333,1117,0.193631458,2998,"BOI","-","-","Please name all of the ways you could use this object. Keep in mind that one object can have many uses. Separate your responses with a comma.",NA,"y",6226,NA,NA,1810,5891,NA,NA,NA,"hold, tickle",1
"w10074451_kcm","cnebfhra40","BOI Norms",1,34,"2022-03-29T20:13:01+00:00",6.4040701389313,25,"updated stim.csv","Version100.csv","Version 100","List 100","tee",NA,2984,5.347826087,2656,0.439440456,2985,"BOI","-","-","Please name all of the ways you could use this object. Keep in mind that one object can have many uses. Separate your responses with a comma.",NA,"y",6274,NA,NA,2039,3771,NA,NA,NA,"wear",1
