Username,ID,ExperimentName,Session,Trial,Date,TimeDif,"Condition Number","Stimuli File","Order File","Condition Description","Condition Notes",Stimuli*Cue,Stimuli*Answer,Stimuli*Shuffle,"Stimuli*Stimuli Notes",Stimuli*Value,Procedure*Item,"Procedure*Trial Type","Procedure*Max Time","Procedure*Min Time",Procedure*Text,"Procedure*Procedure Notes",Procedure*Shuffle,Response*RT,Response*Response,Response*Accuracy,Response*RTfirst,Response*RTlast,Response*strictAcc,Response*lenientAcc,Response*focus,Response*JOL,Response*Focus
LH1949,p02g1tzjb9,"Affordance Norms_ILSTU",1,1,2022-09-23T00:23:26+00:00,11.371839046478,40,"updated stim.csv",Version40.csv,"Version 40","List 40",,,,,,0,Instruct,-,10,"In this section, you will be presented with a series of objects. Please name as many possible uses for this object as you can think of by typing them in the box below each object.",,Instruct1,10797,,,-1,-1,,,,,1
LH1949,p02g1tzjb9,"Affordance Norms_ILSTU",1,2,2022-09-23T00:23:38+00:00,11.65126991272,40,"updated stim.csv",Version40.csv,"Version 40","List 40",,,,,,0,Instruct,-,10,"Please keep in mind that a single object will have more than one use. For example, a ball can be thrown or can be bounced or even stepped on. When listing multiple uses for one object, please separate each use with a comma (i.e., thrown, bounced, stepped on)",,Instruct2,10995,,,-1,-1,,,,,1
LH1949,p02g1tzjb9,"Affordance Norms_ILSTU",1,3,2022-09-23T00:23:43+00:00,4.9564900398254,40,"updated stim.csv",Version40.csv,"Version 40","List 40",,,,,,0,Instruct,-,-,"Before starting the experiment, you will complete a short practice sesstion. Press ENTER when you are ready to begin.",,Instruct3,4334,,,-1,-1,,,,,1
LH1949,p02g1tzjb9,"Affordance Norms_ILSTU",1,4,2022-09-23T00:24:18+00:00,35.524089097977,40,"updated stim.csv",Version40.csv,"Version 40","List 40",spaghetti,,3003,6,2461,3004,BOI,-,-,"Please name all of the ways you could use this object. Keep in mind that one object can have many uses. Separate your responses with a comma.",,n,34919,,,7009,34489,,,,"eat it, cook with it, throw it on a wall, make art with it",1
LH1949,p02g1tzjb9,"Affordance Norms_ILSTU",1,5,2022-09-23T00:25:02+00:00,43.617281913757,40,"updated stim.csv",Version40.csv,"Version 40","List 40",grain,,3004,5.217391304,1143,3005,BOI,-,-,"Please name all of the ways you could use this object. Keep in mind that one object can have many uses. Separate your responses with a comma.",,n,42822,,,3638,41661,,,,"you can cook with it, make beer, make cereal, harvest it, chew on it, step on it",1
LH1949,p02g1tzjb9,"Affordance Norms_ILSTU",1,6,2022-09-23T00:25:48+00:00,46.02659201622,40,"updated stim.csv",Version40.csv,"Version 40","List 40",saucer,,3005,5.777777778,2249,3006,BOI,-,-,"Please name all of the ways you could use this object. Keep in mind that one object can have many uses. Separate your responses with a comma.",,n,45243,,,21533,44932,,,,"eat soup from it, cook with it, play the drums with it, serve food",1
LH1949,p02g1tzjb9,"Affordance Norms_ILSTU",1,7,2022-09-23T00:26:07+00:00,19.12935090065,40,"updated stim.csv",Version40.csv,"Version 40","List 40",shortening,,3002,4.92,2358,3003,BOI,-,-,"Please name all of the ways you could use this object. Keep in mind that one object can have many uses. Separate your responses with a comma.",,n,18493,,,2652,18165,,,,"baking, painting, cooking, you could eat it if you really wanted to",1
LH1949,p02g1tzjb9,"Affordance Norms_ILSTU",1,8,2022-09-23T00:26:37+00:00,29.869945049286,40,"updated stim.csv",Version40.csv,"Version 40","List 40",paperwork,,3001,5.625,1866,3002,BOI,-,-,"Please name all of the ways you could use this object. Keep in mind that one object can have many uses. Separate your responses with a comma.",,n,29086,,,2700,28804,,,,"write on it, tear it up, sit on it, crumple it up, put in on a clip board, use the back side of it to doodle",1
LH1949,p02g1tzjb9,"Affordance Norms_ILSTU",1,9,2022-09-23T00:26:39+00:00,2.2562661170959,40,"updated stim.csv",Version40.csv,"Version 40","List 40",,,,,,0,Instruct,-,-,"You have completed this section. Press ENTER to continue",,"Instruct 5",1592,,,-1,-1,,,,,1
LH1949,p02g1tzjb9,"Affordance Norms_ILSTU",1,10,2022-09-23T00:26:42+00:00,3.1756739616394,40,"updated stim.csv",Version40.csv,"Version 40","List 40",,,,,,0,Instruct,-,-,"You will now start the full experiment. Press ENTER when you are ready to begin.",,,2584,,,-1,-1,,,,,1
LH1949,p02g1tzjb9,"Affordance Norms_ILSTU",1,11,2022-09-23T00:27:14+00:00,31.379715919495,40,"updated stim.csv",Version40.csv,"Version 40","List 40",sushi,,1199,5.708333333,2597,1200,BOI,-,-,"Please name all of the ways you could use this object. Keep in mind that one object can have many uses. Separate your responses with a comma.",,y,30789,,,4248,17124,,,,"eat it, throw it away, make a sushi tower with it",1
LH1949,p02g1tzjb9,"Affordance Norms_ILSTU",1,12,2022-09-23T00:27:30+00:00,16.326174974442,40,"updated stim.csv",Version40.csv,"Version 40","List 40",straitjacket,,1187,5.037037037,2558,1188,BOI,-,-,"Please name all of the ways you could use this object. Keep in mind that one object can have many uses. Separate your responses with a comma.",,y,15698,,,2638,11960,,,,"wear it",1
LH1949,p02g1tzjb9,"Affordance Norms_ILSTU",1,13,2022-09-23T00:27:54+00:00,24.232630968094,40,"updated stim.csv",Version40.csv,"Version 40","List 40",trombone,,1194,5.75,2781,1195,BOI,-,-,"Please name all of the ways you could use this object. Keep in mind that one object can have many uses. Separate your responses with a comma.",,y,23427,,,1488,23064,,,,"play it, use it as decoration, use it as a coat hanger, hug it",1
LH1949,p02g1tzjb9,"Affordance Norms_ILSTU",1,14,2022-09-23T00:28:10+00:00,15.735882043839,40,"updated stim.csv",Version40.csv,"Version 40","List 40",makeup,,1186,6,1580,1187,BOI,-,-,"Please name all of the ways you could use this object. Keep in mind that one object can have many uses. Separate your responses with a comma.",,y,14925,,,1629,9254,,,,"put in on your face, use it for art material",1
LH1949,p02g1tzjb9,"Affordance Norms_ILSTU",1,15,2022-09-23T00:28:22+00:00,11.67421913147,40,"updated stim.csv",Version40.csv,"Version 40","List 40",pie,,1178,5.869565217,1953,1179,BOI,-,-,"Please name all of the ways you could use this object. Keep in mind that one object can have many uses. Separate your responses with a comma.",,y,10996,,,1605,9351,,,,"eat it, throw it at someone",1
LH1949,p02g1tzjb9,"Affordance Norms_ILSTU",1,16,2022-09-23T00:28:50+00:00,28.815233945847,40,"updated stim.csv",Version40.csv,"Version 40","List 40",stopwatch,,1185,6.041666667,2549,1186,BOI,-,-,"Please name all of the ways you could use this object. Keep in mind that one object can have many uses. Separate your responses with a comma.",,y,27941,,,1605,25728,,,,"use it to time someone, use it as a paper weight, use it when you are bored ",1
LH1949,p02g1tzjb9,"Affordance Norms_ILSTU",1,17,2022-09-23T00:29:16+00:00,25.362333059311,40,"updated stim.csv",Version40.csv,"Version 40","List 40",canteen,,1183,5.607142857,419,1184,BOI,-,-,"Please name all of the ways you could use this object. Keep in mind that one object can have many uses. Separate your responses with a comma.",,y,24535,,,16504,23632,,,,"use it to hold water, soup, eat from it",1
LH1949,p02g1tzjb9,"Affordance Norms_ILSTU",1,18,2022-09-23T00:29:32+00:00,16.222715854645,40,"updated stim.csv",Version40.csv,"Version 40","List 40",piercing,,1184,5,1954,1185,BOI,-,-,"Please name all of the ways you could use this object. Keep in mind that one object can have many uses. Separate your responses with a comma.",,y,15523,,,3230,14945,,,,"put an earring in it, use it as a place to hold your gum",1
LH1949,p02g1tzjb9,"Affordance Norms_ILSTU",1,19,2022-09-23T00:29:47+00:00,15.234076976776,40,"updated stim.csv",Version40.csv,"Version 40","List 40",goldsmith,,1193,4.375,1134,1194,BOI,-,-,"Please name all of the ways you could use this object. Keep in mind that one object can have many uses. Separate your responses with a comma.",,y,14602,,,3467,14231,,,,"use it to revamp your gold jewelry",1
LH1949,p02g1tzjb9,"Affordance Norms_ILSTU",1,20,2022-09-23T00:30:14+00:00,27.092715978622,40,"updated stim.csv",Version40.csv,"Version 40","List 40",bedspread,,1174,6.08,188,1175,BOI,-,-,"Please name all of the ways you could use this object. Keep in mind that one object can have many uses. Separate your responses with a comma.",,y,26294,,,2546,26071,,,,"use it as a blanket, use it in a fort, use it as a tent, paint it, turn it into art, hang it on a wall",1
LH1949,p02g1tzjb9,"Affordance Norms_ILSTU",1,21,2022-09-23T00:30:33+00:00,19.036741018295,40,"updated stim.csv",Version40.csv,"Version 40","List 40",denims,,1181,5.541666667,774,1182,BOI,-,-,"Please name all of the ways you could use this object. Keep in mind that one object can have many uses. Separate your responses with a comma.",,y,18371,,,1939,18080,,,,"wear them, put them on canvas, convert them to other clothing items",1
LH1949,p02g1tzjb9,"Affordance Norms_ILSTU",1,22,2022-09-23T00:30:38+00:00,4.3479211330414,40,"updated stim.csv",Version40.csv,"Version 40","List 40",tank,,1173,4.608695652,2631,1174,BOI,-,-,"Please name all of the ways you could use this object. Keep in mind that one object can have many uses. Separate your responses with a comma.",,y,3704,,,2065,3485,,,,"drive it ",1
LH1949,p02g1tzjb9,"Affordance Norms_ILSTU",1,23,2022-09-23T00:31:06+00:00,27.950708866119,40,"updated stim.csv",Version40.csv,"Version 40","List 40",clitoris,,1172,6.090909091,564,1173,BOI,-,-,"Please name all of the ways you could use this object. Keep in mind that one object can have many uses. Separate your responses with a comma.",,y,27348,,,22097,26887,,,,"for sexual purposes",1
LH1949,p02g1tzjb9,"Affordance Norms_ILSTU",1,24,2022-09-23T00:31:35+00:00,29.366661071777,40,"updated stim.csv",Version40.csv,"Version 40","List 40",bat,,1192,5.041666667,166,1193,BOI,-,-,"Please name all of the ways you could use this object. Keep in mind that one object can have many uses. Separate your responses with a comma.",,y,28644,,,10733,28339,,,,"to a hit a ball with, to use as a decoration, to use in self defense ",1
LH1949,p02g1tzjb9,"Affordance Norms_ILSTU",1,25,2022-09-23T00:32:08+00:00,33.23433804512,40,"updated stim.csv",Version40.csv,"Version 40","List 40",monk,,1176,5.173913043,1680,1177,BOI,-,-,"Please name all of the ways you could use this object. Keep in mind that one object can have many uses. Separate your responses with a comma.",,y,32383,,,24086,32005,,,,"use them on your pursuit of spirituality ",1
LH1949,p02g1tzjb9,"Affordance Norms_ILSTU",1,26,2022-09-23T00:32:41+00:00,32.285708904266,40,"updated stim.csv",Version40.csv,"Version 40","List 40",buckle,,1188,4.846153846,342,1189,BOI,-,-,"Please name all of the ways you could use this object. Keep in mind that one object can have many uses. Separate your responses with a comma.",,y,31447,,,12946,29370,,,,"to wear a seatbelt, to hold up your pants, to keep your shoes on ",1
LH1949,p02g1tzjb9,"Affordance Norms_ILSTU",1,27,2022-09-23T00:32:52+00:00,11.179907083511,40,"updated stim.csv",Version40.csv,"Version 40","List 40",epidermis,,1191,5.636363636,916,1192,BOI,-,-,"Please name all of the ways you could use this object. Keep in mind that one object can have many uses. Separate your responses with a comma.",,y,10536,,,3928,10201,,,,"to protect your bodies insides",1
LH1949,p02g1tzjb9,"Affordance Norms_ILSTU",1,28,2022-09-23T00:32:59+00:00,7.5122339725494,40,"updated stim.csv",Version40.csv,"Version 40","List 40",bleacher,,1196,5.083333333,235,1197,BOI,-,-,"Please name all of the ways you could use this object. Keep in mind that one object can have many uses. Separate your responses with a comma.",,y,6845,,,1468,6624,,,,"to run up, to sit on, to walk on ",1
LH1949,p02g1tzjb9,"Affordance Norms_ILSTU",1,29,2022-09-23T00:33:07+00:00,7.5135679244995,40,"updated stim.csv",Version40.csv,"Version 40","List 40",piccolo,,1182,4.956521739,1948,1183,BOI,-,-,"Please name all of the ways you could use this object. Keep in mind that one object can have many uses. Separate your responses with a comma.",,y,7075,,,1569,6722,,,,"to play, to use as decoration ",1
LH1949,p02g1tzjb9,"Affordance Norms_ILSTU",1,30,2022-09-23T00:33:30+00:00,22.752590179443,40,"updated stim.csv",Version40.csv,"Version 40","List 40",newspaperman,,1195,4.48,1761,1196,BOI,-,-,"Please name all of the ways you could use this object. Keep in mind that one object can have many uses. Separate your responses with a comma.",,y,22163,,,2669,21827,,,,"to say hello to, to receive your newspaper from them",1
LH1949,p02g1tzjb9,"Affordance Norms_ILSTU",1,31,2022-09-23T00:33:41+00:00,11.312644958496,40,"updated stim.csv",Version40.csv,"Version 40","List 40",gyroscope,,1189,4.814814815,1207,1190,BOI,-,-,"Please name all of the ways you could use this object. Keep in mind that one object can have many uses. Separate your responses with a comma.",,y,10534,,,5362,9465,,,,"to look at something",1
LH1949,p02g1tzjb9,"Affordance Norms_ILSTU",1,32,2022-09-23T00:33:53+00:00,12.225090026855,40,"updated stim.csv",Version40.csv,"Version 40","List 40",signpost,,1198,5.25,2380,1199,BOI,-,-,"Please name all of the ways you could use this object. Keep in mind that one object can have many uses. Separate your responses with a comma.",,y,11490,,,1510,11207,,,,"to look at, to use as decoration ",1
LH1949,p02g1tzjb9,"Affordance Norms_ILSTU",1,33,2022-09-23T00:34:00+00:00,6.5219538211823,40,"updated stim.csv",Version40.csv,"Version 40","List 40",porridge,,1190,4.80952381,2038,1191,BOI,-,-,"Please name all of the ways you could use this object. Keep in mind that one object can have many uses. Separate your responses with a comma.",,y,5863,,,1266,5412,,,,"to eat, to bake with",1
LH1949,p02g1tzjb9,"Affordance Norms_ILSTU",1,34,2022-09-23T00:34:26+00:00,26.808606147766,40,"updated stim.csv",Version40.csv,"Version 40","List 40",twine,,1177,5.5,2812,1178,BOI,-,-,"Please name all of the ways you could use this object. Keep in mind that one object can have many uses. Separate your responses with a comma.",,y,26192,,,1472,25886,,,,"for decoration, to tie a knot, to tie things together",1
LH1949,p02g1tzjb9,"Affordance Norms_ILSTU",1,35,2022-09-23T00:34:33+00:00,6.7671270370483,40,"updated stim.csv",Version40.csv,"Version 40","List 40",baklava,,1171,5.454545455,126,1172,BOI,-,-,"Please name all of the ways you could use this object. Keep in mind that one object can have many uses. Separate your responses with a comma.",,y,6111,,,1744,3484,,,,"to eat?",1
LH1949,p02g1tzjb9,"Affordance Norms_ILSTU",1,36,2022-09-23T00:34:48+00:00,14.553736925125,40,"updated stim.csv",Version40.csv,"Version 40","List 40",acorn,,1197,5.28,8,1198,BOI,-,-,"Please name all of the ways you could use this object. Keep in mind that one object can have many uses. Separate your responses with a comma.",,y,14119,,,1444,13095,,,,"to throw at something, to eat, for squirrels to eat",1
LH1949,p02g1tzjb9,"Affordance Norms_ILSTU",1,37,2022-09-23T00:35:03+00:00,15.46484208107,40,"updated stim.csv",Version40.csv,"Version 40","List 40",walker,,1179,5.181818182,2885,1180,BOI,-,-,"Please name all of the ways you could use this object. Keep in mind that one object can have many uses. Separate your responses with a comma.",,y,14789,,,1187,14568,,,,"to use for balance, to hold things, to hold onto when you need to get up or down ",1
LH1949,p02g1tzjb9,"Affordance Norms_ILSTU",1,38,2022-09-23T00:35:26+00:00,22.640111923218,40,"updated stim.csv",Version40.csv,"Version 40","List 40",dance,,1180,4.44,753,1181,BOI,-,-,"Please name all of the ways you could use this object. Keep in mind that one object can have many uses. Separate your responses with a comma.",,y,21821,,,5304,20922,,,,"you can use this to relieve stress, to have fun, to make friends",1
LH1949,p02g1tzjb9,"Affordance Norms_ILSTU",1,39,2022-09-23T00:35:40+00:00,14.357580900192,40,"updated stim.csv",Version40.csv,"Version 40","List 40",oilcan,,1200,4.782608696,1802,1201,BOI,-,-,"Please name all of the ways you could use this object. Keep in mind that one object can have many uses. Separate your responses with a comma.",,y,13660,,,3212,13465,,,,"to hold oil or water, to water your garden ",1
LH1949,p02g1tzjb9,"Affordance Norms_ILSTU",1,40,2022-09-23T00:35:58+00:00,17.486023187637,40,"updated stim.csv",Version40.csv,"Version 40","List 40",salad,,1175,6.111111111,2218,1176,BOI,-,-,"Please name all of the ways you could use this object. Keep in mind that one object can have many uses. Separate your responses with a comma.",,y,16815,,,1230,16676,,,,"to eat, to make for your rabbit, to look at it ",1
LH1949,p02g1tzjb9,"Affordance Norms_ILSTU",1,41,2022-09-23T00:36:00+00:00,2.4746379852295,40,"updated stim.csv",Version40.csv,"Version 40","List 40",,,,,,0,Instruct,,,"You will now be asked a few questions about your experience today.",,"Instruct 4",1807,,,-1,-1,,,,,1
