Username,ID,ExperimentName,Session,Trial,Date,TimeDif,"Condition Number","Stimuli File","Order File","Condition Description","Condition Notes",Stimuli*Cue,Stimuli*Answer,Stimuli*Shuffle,"Stimuli*Stimuli Notes",Stimuli*Value,Stimuli*Rand,Procedure*Item,"Procedure*Trial Type","Procedure*Max Time","Procedure*Min Time",Procedure*Text,"Procedure*Procedure Notes",Procedure*Shuffle,Response*RT,Response*Response,Response*Accuracy,Response*RTfirst,Response*RTlast,Response*strictAcc,Response*lenientAcc,Response*focus,Response*JOL,Response*Focus
5875778b5c17910001ea4f35,8bl07ipy9t,"Affordance Norms_Prolific",1,1,2023-02-04T21:48:06+00:00,10.942049980164,69,"updated stim.csv",Version69.csv,"Version 69","List 69",,,,,,,0,Instruct,-,10,"In this section, you will be presented with a series of objects. Please name as many possible uses for this object as you can think of by typing them in the box below each object.",,Instruct1,10518,,,-1,-1,,,,,1
5875778b5c17910001ea4f35,8bl07ipy9t,"Affordance Norms_Prolific",1,2,2023-02-04T21:49:17+00:00,70.41005396843,69,"updated stim.csv",Version69.csv,"Version 69","List 69",,,,,,,0,Instruct,-,10,"Please keep in mind that a single object will have more than one use. For example, a ball can be thrown or can be bounced or even stepped on. When listing multiple uses for one object, please separate each use with a comma (i.e., thrown, bounced, stepped on)",,Instruct2,69484,,,-1,-1,,,,,1
5875778b5c17910001ea4f35,8bl07ipy9t,"Affordance Norms_Prolific",1,3,2023-02-04T21:49:19+00:00,2.6208920478821,69,"updated stim.csv",Version69.csv,"Version 69","List 69",,,,,,,0,Instruct,-,-,"Before starting the experiment, you will complete a short practice sesstion. Press ENTER when you are ready to begin.",,Instruct3,2062,,,-1,-1,,,,,1
5875778b5c17910001ea4f35,8bl07ipy9t,"Affordance Norms_Prolific",1,4,2023-02-04T21:49:33+00:00,13.15708398819,69,"updated stim.csv",Version69.csv,"Version 69","List 69",shortening,,3002,4.92,2358,0.604328482,3003,BOI,-,-,"Please name all of the ways you could use this object. Keep in mind that one object can have many uses. Separate your responses with a comma.",,n,12691,,,5333,10371,,,,smaller,1
5875778b5c17910001ea4f35,8bl07ipy9t,"Affordance Norms_Prolific",1,5,2023-02-04T21:49:53+00:00,20.80363702774,69,"updated stim.csv",Version69.csv,"Version 69","List 69",saucer,,3005,5.777777778,2249,0.304808074,3006,BOI,-,-,"Please name all of the ways you could use this object. Keep in mind that one object can have many uses. Separate your responses with a comma.",,n,19917,,,3416,18978,,,,"carry, fly, throw, protect",0.94
5875778b5c17910001ea4f35,8bl07ipy9t,"Affordance Norms_Prolific",1,6,2023-02-04T21:50:28+00:00,34.170387029648,69,"updated stim.csv",Version69.csv,"Version 69","List 69",paperwork,,3001,5.625,1866,0.124284162,3002,BOI,-,-,"Please name all of the ways you could use this object. Keep in mind that one object can have many uses. Separate your responses with a comma.",,n,33375,,,2324,23441,,,,"list, help, accounts, ",1
5875778b5c17910001ea4f35,8bl07ipy9t,"Affordance Norms_Prolific",1,7,2023-02-04T21:50:40+00:00,12.320240020752,69,"updated stim.csv",Version69.csv,"Version 69","List 69",spaghetti,,3003,6,2461,0.090379998,3004,BOI,-,-,"Please name all of the ways you could use this object. Keep in mind that one object can have many uses. Separate your responses with a comma.",,n,11863,,,1763,11131,,,,"eat, design, play, throw",1
5875778b5c17910001ea4f35,8bl07ipy9t,"Affordance Norms_Prolific",1,8,2023-02-04T21:50:50+00:00,10.51385807991,69,"updated stim.csv",Version69.csv,"Version 69","List 69",grain,,3004,5.217391304,1143,0.226863762,3005,BOI,-,-,"Please name all of the ways you could use this object. Keep in mind that one object can have many uses. Separate your responses with a comma.",,n,10010,,,1481,9019,,,,"eat, mash, sew",1
5875778b5c17910001ea4f35,8bl07ipy9t,"Affordance Norms_Prolific",1,9,2023-02-04T21:52:01+00:00,70.569540977478,69,"updated stim.csv",Version69.csv,"Version 69","List 69",,,,,,,0,Instruct,-,-,"You have completed this section. Press ENTER to continue",,"Instruct 5",69854,,,-1,-1,,,,,0.843
5875778b5c17910001ea4f35,8bl07ipy9t,"Affordance Norms_Prolific",1,10,2023-02-04T21:52:03+00:00,2.2281098365784,69,"updated stim.csv",Version69.csv,"Version 69","List 69",,,,,,,0,Instruct,-,-,"You will now start the full experiment. Press ENTER when you are ready to begin.",,,1732,,,-1,-1,,,,,1
5875778b5c17910001ea4f35,8bl07ipy9t,"Affordance Norms_Prolific",1,11,2023-02-04T21:52:38+00:00,34.932002067566,69,"updated stim.csv",Version69.csv,"Version 69","List 69",farmhouse,,2055,5.068965517,949,0.607320841,2056,BOI,-,-,"Please name all of the ways you could use this object. Keep in mind that one object can have many uses. Separate your responses with a comma.",,y,34124,,,4614,33135,,,,"live, work, protect, dry, house, meet",1
5875778b5c17910001ea4f35,8bl07ipy9t,"Affordance Norms_Prolific",1,12,2023-02-04T21:52:55+00:00,17.373990058899,69,"updated stim.csv",Version69.csv,"Version 69","List 69",firecracker,,2047,4.916666667,985,0.557520939,2048,BOI,-,-,"Please name all of the ways you could use this object. Keep in mind that one object can have many uses. Separate your responses with a comma.",,y,16915,,,4012,16070,,,,"impress, scare, celebrate, enjoy",1
5875778b5c17910001ea4f35,8bl07ipy9t,"Affordance Norms_Prolific",1,13,2023-02-04T21:54:02+00:00,66.027860879898,69,"updated stim.csv",Version69.csv,"Version 69","List 69",armoire,,2041,4.904761905,73,0.052185151,2042,BOI,-,-,"Please name all of the ways you could use this object. Keep in mind that one object can have many uses. Separate your responses with a comma.",,y,65193,,,16925,28448,,,,"keep, store, protect, ",0.965
5875778b5c17910001ea4f35,8bl07ipy9t,"Affordance Norms_Prolific",1,14,2023-02-04T21:54:44+00:00,42.638336181641,69,"updated stim.csv",Version69.csv,"Version 69","List 69",sponge,,2069,6.5,2480,0.696963991,2070,BOI,-,-,"Please name all of the ways you could use this object. Keep in mind that one object can have many uses. Separate your responses with a comma.",,y,41789,,,1949,19117,,,,"soak, wash, eat, clean, wipe, ",1
5875778b5c17910001ea4f35,8bl07ipy9t,"Affordance Norms_Prolific",1,15,2023-02-04T21:55:38+00:00,54.340147972107,69,"updated stim.csv",Version69.csv,"Version 69","List 69",nightie,,2042,5.62962963,1771,0.901097667,2043,BOI,-,-,"Please name all of the ways you could use this object. Keep in mind that one object can have many uses. Separate your responses with a comma.",,y,53560,,,4011,52742,,,,"wear, wash",1
5875778b5c17910001ea4f35,8bl07ipy9t,"Affordance Norms_Prolific",1,16,2023-02-04T21:55:49+00:00,10.863711833954,69,"updated stim.csv",Version69.csv,"Version 69","List 69",thimble,,2048,5.347826087,2681,0.809801416,2049,BOI,-,-,"Please name all of the ways you could use this object. Keep in mind that one object can have many uses. Separate your responses with a comma.",,y,10377,,,1937,8054,,,,"sew, protect, play, ",1
5875778b5c17910001ea4f35,8bl07ipy9t,"Affordance Norms_Prolific",1,17,2023-02-04T21:56:09+00:00,19.243746042252,69,"updated stim.csv",Version69.csv,"Version 69","List 69",crop,,2050,4.833333333,700,0.508408081,2051,BOI,-,-,"Please name all of the ways you could use this object. Keep in mind that one object can have many uses. Separate your responses with a comma.",,y,18711,,,4508,16789,,,,"ride, whip, harvest, eat, share",1
5875778b5c17910001ea4f35,8bl07ipy9t,"Affordance Norms_Prolific",1,18,2023-02-04T21:57:06+00:00,57.349882125854,69,"updated stim.csv",Version69.csv,"Version 69","List 69",phone,,2046,6.5,1940,0.865824601,2047,BOI,-,-,"Please name all of the ways you could use this object. Keep in mind that one object can have many uses. Separate your responses with a comma.",,y,56479,,,34476,54717,,,,"speak, play, browse, text, message, listen, watch, type",1
5875778b5c17910001ea4f35,8bl07ipy9t,"Affordance Norms_Prolific",1,19,2023-02-04T21:57:38+00:00,32.014564990997,69,"updated stim.csv",Version69.csv,"Version 69","List 69",radiator,,2054,5.217391304,2121,0.849996905,2055,BOI,-,-,"Please name all of the ways you could use this object. Keep in mind that one object can have many uses. Separate your responses with a comma.",,y,31005,,,3489,29946,,,,"warm, dry, run",1
5875778b5c17910001ea4f35,8bl07ipy9t,"Affordance Norms_Prolific",1,20,2023-02-04T21:57:55+00:00,16.6276948452,69,"updated stim.csv",Version69.csv,"Version 69","List 69",lily,,2052,4.884615385,1510,0.933135702,2053,BOI,-,-,"Please name all of the ways you could use this object. Keep in mind that one object can have many uses. Separate your responses with a comma.",,y,15954,,,5099,14430,,,,"brighten, cheer, gift, ",1
5875778b5c17910001ea4f35,8bl07ipy9t,"Affordance Norms_Prolific",1,21,2023-02-04T21:58:48+00:00,52.996327161789,69,"updated stim.csv",Version69.csv,"Version 69","List 69",battery,,2061,4.8,172,0.309515417,2062,BOI,-,-,"Please name all of the ways you could use this object. Keep in mind that one object can have many uses. Separate your responses with a comma.",,y,52163,,,2068,51069,,,,"charge, run, discharge, power",1
5875778b5c17910001ea4f35,8bl07ipy9t,"Affordance Norms_Prolific",1,22,2023-02-04T21:59:14+00:00,26.740349054337,69,"updated stim.csv",Version69.csv,"Version 69","List 69",medicine,,2063,5.692307692,1638,0.021183078,2064,BOI,-,-,"Please name all of the ways you could use this object. Keep in mind that one object can have many uses. Separate your responses with a comma.",,y,25779,,,5580,24556,,,,"help, improve, protect,",1
5875778b5c17910001ea4f35,8bl07ipy9t,"Affordance Norms_Prolific",1,23,2023-02-04T21:59:39+00:00,24.27546787262,69,"updated stim.csv",Version69.csv,"Version 69","List 69",cloth,,2070,5.961538462,568,0.069972611,2071,BOI,-,-,"Please name all of the ways you could use this object. Keep in mind that one object can have many uses. Separate your responses with a comma.",,y,23479,,,1937,18620,,,,"dry, clean, wash, wipe, freshen, ",1
5875778b5c17910001ea4f35,8bl07ipy9t,"Affordance Norms_Prolific",1,24,2023-02-04T22:00:24+00:00,45.751662969589,69,"updated stim.csv",Version69.csv,"Version 69","List 69",mascara,,2057,5.703703704,1612,0.241914287,2058,BOI,-,-,"Please name all of the ways you could use this object. Keep in mind that one object can have many uses. Separate your responses with a comma.",,y,44988,,,2455,43431,,,,"hide, improve, conceal",1
5875778b5c17910001ea4f35,8bl07ipy9t,"Affordance Norms_Prolific",1,25,2023-02-04T22:00:46+00:00,21.232409954071,69,"updated stim.csv",Version69.csv,"Version 69","List 69",foot,,2060,6,1029,0.672429638,2061,BOI,-,-,"Please name all of the ways you could use this object. Keep in mind that one object can have many uses. Separate your responses with a comma.",,y,20507,,,2143,19233,,,,"run, hop, kick, sprint, jump,",1
5875778b5c17910001ea4f35,8bl07ipy9t,"Affordance Norms_Prolific",1,26,2023-02-04T22:01:03+00:00,17.401640176773,69,"updated stim.csv",Version69.csv,"Version 69","List 69",neckerchief,,2051,5.347826087,1740,0.029417573,2052,BOI,-,-,"Please name all of the ways you could use this object. Keep in mind that one object can have many uses. Separate your responses with a comma.",,y,16933,,,2277,16083,,,,"wear, warm, improve",1
5875778b5c17910001ea4f35,8bl07ipy9t,"Affordance Norms_Prolific",1,27,2023-02-04T22:01:31+00:00,27.583029031754,69,"updated stim.csv",Version69.csv,"Version 69","List 69",home,,2058,5.434782609,1299,0.801909438,2059,BOI,-,-,"Please name all of the ways you could use this object. Keep in mind that one object can have many uses. Separate your responses with a comma.",,y,26730,,,10416,25870,,,,"live, eat, house, warm, share,",1
5875778b5c17910001ea4f35,8bl07ipy9t,"Affordance Norms_Prolific",1,28,2023-02-04T22:03:22+00:00,111.14802384377,69,"updated stim.csv",Version69.csv,"Version 69","List 69",moonshine,,2064,5.260869565,1682,0.261203355,2065,BOI,-,-,"Please name all of the ways you could use this object. Keep in mind that one object can have many uses. Separate your responses with a comma.",,y,110264,,,94518,108294,,,,"drink, enjoy, walk, stare, light",1
5875778b5c17910001ea4f35,8bl07ipy9t,"Affordance Norms_Prolific",1,29,2023-02-04T22:03:43+00:00,21.139583110809,69,"updated stim.csv",Version69.csv,"Version 69","List 69",bunk,,2066,4.260869565,360,0.933970977,2067,BOI,-,-,"Please name all of the ways you could use this object. Keep in mind that one object can have many uses. Separate your responses with a comma.",,y,20325,,,8403,17814,,,,"lift, sleep, miss, rest",1
5875778b5c17910001ea4f35,8bl07ipy9t,"Affordance Norms_Prolific",1,30,2023-02-04T22:04:57+00:00,73.739656925201,69,"updated stim.csv",Version69.csv,"Version 69","List 69",medallion,,2059,5.541666667,1635,0.593281575,2060,BOI,-,-,"Please name all of the ways you could use this object. Keep in mind that one object can have many uses. Separate your responses with a comma.",,y,72942,,,4079,66677,,,,"gift, wear",0.745
5875778b5c17910001ea4f35,8bl07ipy9t,"Affordance Norms_Prolific",1,31,2023-02-04T22:05:21+00:00,24.328133106232,69,"updated stim.csv",Version69.csv,"Version 69","List 69",rubbish,,2049,4.666666667,2201,0.65494414,2050,BOI,-,-,"Please name all of the ways you could use this object. Keep in mind that one object can have many uses. Separate your responses with a comma.",,y,23593,,,1971,23002,,,,"throw, recycle, hide",1
5875778b5c17910001ea4f35,8bl07ipy9t,"Affordance Norms_Prolific",1,32,2023-02-04T22:05:36+00:00,15.379812955856,69,"updated stim.csv",Version69.csv,"Version 69","List 69",masseur,,2068,5.6,1615,0.872292757,2069,BOI,-,-,"Please name all of the ways you could use this object. Keep in mind that one object can have many uses. Separate your responses with a comma.",,y,14912,,,2752,13936,,,,"massage, relax, enjoy, pay",1
5875778b5c17910001ea4f35,8bl07ipy9t,"Affordance Norms_Prolific",1,33,2023-02-04T22:06:04+00:00,28.053702831268,69,"updated stim.csv",Version69.csv,"Version 69","List 69",cape,,2053,5.416666667,424,0.375751754,2054,BOI,-,-,"Please name all of the ways you could use this object. Keep in mind that one object can have many uses. Separate your responses with a comma.",,y,27358,,,9646,25572,,,,"wrap, hide",1
5875778b5c17910001ea4f35,8bl07ipy9t,"Affordance Norms_Prolific",1,34,2023-02-04T22:06:25+00:00,20.290279150009,69,"updated stim.csv",Version69.csv,"Version 69","List 69",candidate,,2056,4.739130435,409,0.163378695,2057,BOI,-,-,"Please name all of the ways you could use this object. Keep in mind that one object can have many uses. Separate your responses with a comma.",,y,19541,,,4701,11882,,,,"elect, decided, choose, ",1
5875778b5c17910001ea4f35,8bl07ipy9t,"Affordance Norms_Prolific",1,35,2023-02-04T22:06:49+00:00,24.449940919876,69,"updated stim.csv",Version69.csv,"Version 69","List 69",cheekbone,,2045,4.88,504,0.553378119,2046,BOI,-,-,"Please name all of the ways you could use this object. Keep in mind that one object can have many uses. Separate your responses with a comma.",,y,23774,,,18413,22848,,,,"rub, smile",1
5875778b5c17910001ea4f35,8bl07ipy9t,"Affordance Norms_Prolific",1,36,2023-02-04T22:07:16+00:00,26.426305055618,69,"updated stim.csv",Version69.csv,"Version 69","List 69",kite,,2044,5.8,1427,0.898180033,2045,BOI,-,-,"Please name all of the ways you could use this object. Keep in mind that one object can have many uses. Separate your responses with a comma.",,y,25472,,,1715,5974,,,,"fly, run, ",1
5875778b5c17910001ea4f35,8bl07ipy9t,"Affordance Norms_Prolific",1,37,2023-02-04T22:07:30+00:00,14.502069950104,69,"updated stim.csv",Version69.csv,"Version 69","List 69",bleach,,2065,5.32,234,0.58088773,2066,BOI,-,-,"Please name all of the ways you could use this object. Keep in mind that one object can have many uses. Separate your responses with a comma.",,y,13982,,,1625,13091,,,,"clean, wipe, disinfect, poison",1
5875778b5c17910001ea4f35,8bl07ipy9t,"Affordance Norms_Prolific",1,38,2023-02-04T22:08:33+00:00,62.653732061386,69,"updated stim.csv",Version69.csv,"Version 69","List 69",cuff,,2067,5.333333333,724,0.92115639,2068,BOI,-,-,"Please name all of the ways you could use this object. Keep in mind that one object can have many uses. Separate your responses with a comma.",,y,61864,,,1968,3464,,,,"hit, ",1
5875778b5c17910001ea4f35,8bl07ipy9t,"Affordance Norms_Prolific",1,39,2023-02-04T22:09:00+00:00,27.371495008469,69,"updated stim.csv",Version69.csv,"Version 69","List 69",snack,,2043,6.142857143,2425,0.564086134,2044,BOI,-,-,"Please name all of the ways you could use this object. Keep in mind that one object can have many uses. Separate your responses with a comma.",,y,26616,,,1737,25678,,,,"eat, share, nibble, fill",1
5875778b5c17910001ea4f35,8bl07ipy9t,"Affordance Norms_Prolific",1,40,2023-02-04T22:09:13+00:00,12.778925895691,69,"updated stim.csv",Version69.csv,"Version 69","List 69",brace,,2062,5.04,299,0.200654341,2063,BOI,-,-,"Please name all of the ways you could use this object. Keep in mind that one object can have many uses. Separate your responses with a comma.",,y,12339,,,2376,11222,,,,"ready, wear, ping",1
5875778b5c17910001ea4f35,8bl07ipy9t,"Affordance Norms_Prolific",1,41,2023-02-04T22:09:15+00:00,2.3102371692657,69,"updated stim.csv",Version69.csv,"Version 69","List 69",,,,,,,0,Instruct,,,"You will now be asked a few questions about your experience today.",,"Instruct 4",1838,,,-1,-1,,,,,1
