Username,ID,ExperimentName,Session,Trial,Date,TimeDif,"Condition Number","Stimuli File","Order File","Condition Description","Condition Notes",Stimuli*Cue,Stimuli*Answer,Stimuli*Shuffle,"Stimuli*Stimuli Notes",Stimuli*Value,Stimuli*Rand,Procedure*Item,"Procedure*Trial Type","Procedure*Max Time","Procedure*Min Time",Procedure*Text,"Procedure*Procedure Notes",Procedure*Shuffle,Response*RT,Response*Response,Response*Accuracy,Response*RTfirst,Response*RTlast,Response*strictAcc,Response*lenientAcc,Response*focus,Response*JOL,Response*Focus
M20290865_PSJ,x9w8q2uugf,"Affordance Norms_MSU_TEX",1,1,2023-04-02T15:16:32+00:00,11.85952091217,15,"updated stim.csv",Version15.csv,"Version 15","List 15",,,,,,,0,Instruct,-,10,"In this section, you will be presented with a series of objects. Please name as many possible uses for this object as you can think of by typing them in the box below each object.",,Instruct1,11471,,,-1,-1,,,,,0.862
M20290865_PSJ,x9w8q2uugf,"Affordance Norms_MSU_TEX",1,2,2023-04-02T15:16:44+00:00,12.153193950653,15,"updated stim.csv",Version15.csv,"Version 15","List 15",,,,,,,0,Instruct,-,10,"Please keep in mind that a single object will have more than one use. For example, a ball can be thrown or can be bounced or even stepped on. When listing multiple uses for one object, please separate each use with a comma (i.e., thrown, bounced, stepped on)",,Instruct2,11748,,,-1,-1,,,,,1
M20290865_PSJ,x9w8q2uugf,"Affordance Norms_MSU_TEX",1,3,2023-04-02T15:16:49+00:00,4.9364531040192,15,"updated stim.csv",Version15.csv,"Version 15","List 15",,,,,,,0,Instruct,-,-,"Before starting the experiment, you will complete a short practice sesstion. Press ENTER when you are ready to begin.",,Instruct3,4555,,,-1,-1,,,,,1
M20290865_PSJ,x9w8q2uugf,"Affordance Norms_MSU_TEX",1,4,2023-04-02T15:16:56+00:00,7.4411780834198,15,"updated stim.csv",Version15.csv,"Version 15","List 15",shortening,,3002,4.92,2358,0.604328482,3003,BOI,-,-,"Please name all of the ways you could use this object. Keep in mind that one object can have many uses. Separate your responses with a comma.",,n,5170,,,2555,3763,,,,"baking ",1
M20290865_PSJ,x9w8q2uugf,"Affordance Norms_MSU_TEX",1,5,2023-04-02T15:17:08+00:00,11.594036817551,15,"updated stim.csv",Version15.csv,"Version 15","List 15",grain,,3004,5.217391304,1143,0.226863762,3005,BOI,-,-,"Please name all of the ways you could use this object. Keep in mind that one object can have many uses. Separate your responses with a comma.",,n,9500,,,6855,8061,,,,"baking ",1
M20290865_PSJ,x9w8q2uugf,"Affordance Norms_MSU_TEX",1,6,2023-04-02T15:17:28+00:00,20.578274011612,15,"updated stim.csv",Version15.csv,"Version 15","List 15",paperwork,,3001,5.625,1866,0.124284162,3002,BOI,-,-,"Please name all of the ways you could use this object. Keep in mind that one object can have many uses. Separate your responses with a comma.",,n,16326,,,3497,14679,,,,"accounting, taxes, lawsuits",1
M20290865_PSJ,x9w8q2uugf,"Affordance Norms_MSU_TEX",1,7,2023-04-02T15:17:50+00:00,21.551541090012,15,"updated stim.csv",Version15.csv,"Version 15","List 15",spaghetti,,3003,6,2461,0.090379998,3004,BOI,-,-,"Please name all of the ways you could use this object. Keep in mind that one object can have many uses. Separate your responses with a comma.",,n,7325,,,2799,5472,,,,"cooking, eating",1
M20290865_PSJ,x9w8q2uugf,"Affordance Norms_MSU_TEX",1,8,2023-04-02T15:18:18+00:00,28.125278949738,15,"updated stim.csv",Version15.csv,"Version 15","List 15",saucer,,3005,5.777777778,2249,0.304808074,3006,BOI,-,-,"Please name all of the ways you could use this object. Keep in mind that one object can have many uses. Separate your responses with a comma.",,n,22103,,,4937,20313,,,,"to put food in",1
M20290865_PSJ,x9w8q2uugf,"Affordance Norms_MSU_TEX",1,9,2023-04-02T15:18:28+00:00,9.6064159870148,15,"updated stim.csv",Version15.csv,"Version 15","List 15",,,,,,,0,Instruct,-,-,"You have completed this section. Press ENTER to continue",,"Instruct 5",6814,,,-1,-1,,,,,1
M20290865_PSJ,x9w8q2uugf,"Affordance Norms_MSU_TEX",1,10,2023-04-02T15:18:30+00:00,2.3566370010376,15,"updated stim.csv",Version15.csv,"Version 15","List 15",,,,,,,0,Instruct,-,-,"You will now start the full experiment. Press ENTER when you are ready to begin.",,,1977,,,-1,-1,,,,,1
M20290865_PSJ,x9w8q2uugf,"Affordance Norms_MSU_TEX",1,11,2023-04-02T15:18:48+00:00,18.301617145538,15,"updated stim.csv",Version15.csv,"Version 15","List 15",refrigerator,,435,5.851851852,2152,0.017631805,436,BOI,-,-,"Please name all of the ways you could use this object. Keep in mind that one object can have many uses. Separate your responses with a comma.",,y,17918,,,2610,16200,,,,"to put foods, keep things cold,preserve perishables",1
M20290865_PSJ,x9w8q2uugf,"Affordance Norms_MSU_TEX",1,12,2023-04-02T15:18:55+00:00,7.0776569843292,15,"updated stim.csv",Version15.csv,"Version 15","List 15",keyboard,,445,6.08,1412,0.85415253,446,BOI,-,-,"Please name all of the ways you could use this object. Keep in mind that one object can have many uses. Separate your responses with a comma.",,y,5996,,,2631,3725,,,,typing,1
M20290865_PSJ,x9w8q2uugf,"Affordance Norms_MSU_TEX",1,13,2023-04-02T15:19:07+00:00,11.712157011032,15,"updated stim.csv",Version15.csv,"Version 15","List 15",money,,425,6.291666667,1677,0.69421982,426,BOI,-,-,"Please name all of the ways you could use this object. Keep in mind that one object can have many uses. Separate your responses with a comma.",,y,11279,,,1622,10984,,,,"paying bills, buying food, helping the poor",1
M20290865_PSJ,x9w8q2uugf,"Affordance Norms_MSU_TEX",1,14,2023-04-02T15:19:21+00:00,13.663187026978,15,"updated stim.csv",Version15.csv,"Version 15","List 15",grandma,,448,5.769230769,1148,0.122398019,449,BOI,-,-,"Please name all of the ways you could use this object. Keep in mind that one object can have many uses. Separate your responses with a comma.",,y,13260,,,4144,13034,,,,"watch after the kids,cook meals, ask for money ",1
M20290865_PSJ,x9w8q2uugf,"Affordance Norms_MSU_TEX",1,15,2023-04-02T15:19:39+00:00,18.675596952438,15,"updated stim.csv",Version15.csv,"Version 15","List 15",sibling,,424,5.04,2373,0.526230235,425,BOI,-,-,"Please name all of the ways you could use this object. Keep in mind that one object can have many uses. Separate your responses with a comma.",,y,17982,,,4474,16691,,,,"drive you places, makes you miserable, buy you things",1
M20290865_PSJ,x9w8q2uugf,"Affordance Norms_MSU_TEX",1,16,2023-04-02T15:19:54+00:00,14.734328985214,15,"updated stim.csv",Version15.csv,"Version 15","List 15",newlyweds,,447,4.772727273,1754,0.905080051,448,BOI,-,-,"Please name all of the ways you could use this object. Keep in mind that one object can have many uses. Separate your responses with a comma.",,y,14295,,,5726,11135,,,,"have a wedding party",1
M20290865_PSJ,x9w8q2uugf,"Affordance Norms_MSU_TEX",1,17,2023-04-02T15:20:02+00:00,8.1268038749695,15,"updated stim.csv",Version15.csv,"Version 15","List 15",cake,,440,6.086956522,399,0.792412943,441,BOI,-,-,"Please name all of the ways you could use this object. Keep in mind that one object can have many uses. Separate your responses with a comma.",,y,7722,,,1646,4671,,,,"eating,feeding",1
M20290865_PSJ,x9w8q2uugf,"Affordance Norms_MSU_TEX",1,18,2023-04-02T15:20:10+00:00,7.9848721027374,15,"updated stim.csv",Version15.csv,"Version 15","List 15",pooch,,446,5.045454545,2031,0.306327361,447,BOI,-,-,"Please name all of the ways you could use this object. Keep in mind that one object can have many uses. Separate your responses with a comma.",,y,7563,,,4671,7007,,,,"keep things n",1
M20290865_PSJ,x9w8q2uugf,"Affordance Norms_MSU_TEX",1,19,2023-04-02T15:20:29+00:00,19.005235910416,15,"updated stim.csv",Version15.csv,"Version 15","List 15",parachutist,,437,4.6,1869,0.022813055,438,BOI,-,-,"Please name all of the ways you could use this object. Keep in mind that one object can have many uses. Separate your responses with a comma.",,y,16942,,,2804,15533,,,,"take you safely on the parachute",1
M20290865_PSJ,x9w8q2uugf,"Affordance Norms_MSU_TEX",1,20,2023-04-02T15:20:52+00:00,22.192724943161,15,"updated stim.csv",Version15.csv,"Version 15","List 15",cap,,427,5.826086957,422,0.328762048,428,BOI,-,-,"Please name all of the ways you could use this object. Keep in mind that one object can have many uses. Separate your responses with a comma.",,y,14520,,,1715,14422,,,,"cover you head, protect you from the sun\",1
M20290865_PSJ,x9w8q2uugf,"Affordance Norms_MSU_TEX",1,21,2023-04-02T15:21:06+00:00,14.427117109299,15,"updated stim.csv",Version15.csv,"Version 15","List 15",slut,,433,4.652173913,2420,0.469760498,434,BOI,-,-,"Please name all of the ways you could use this object. Keep in mind that one object can have many uses. Separate your responses with a comma.",,y,13235,,,10842,11253,,,,sex,1
M20290865_PSJ,x9w8q2uugf,"Affordance Norms_MSU_TEX",1,22,2023-04-02T15:21:14+00:00,7.9430999755859,15,"updated stim.csv",Version15.csv,"Version 15","List 15",tongs,,449,5.826086957,2727,0.638758823,450,BOI,-,-,"Please name all of the ways you could use this object. Keep in mind that one object can have many uses. Separate your responses with a comma.",,y,6472,,,2868,6303,,,,"pick up foods",1
M20290865_PSJ,x9w8q2uugf,"Affordance Norms_MSU_TEX",1,23,2023-04-02T15:21:39+00:00,24.75204205513,15,"updated stim.csv",Version15.csv,"Version 15","List 15",essay,,439,4.333333333,922,0.993576252,440,BOI,-,-,"Please name all of the ways you could use this object. Keep in mind that one object can have many uses. Separate your responses with a comma.",,y,20516,,,2855,20070,,,,"to give opinions on a topic",1
M20290865_PSJ,x9w8q2uugf,"Affordance Norms_MSU_TEX",1,24,2023-04-02T15:21:59+00:00,20.550472021103,15,"updated stim.csv",Version15.csv,"Version 15","List 15",lifeboat,,443,5.333333333,1504,0.414036557,444,BOI,-,-,"Please name all of the ways you could use this object. Keep in mind that one object can have many uses. Separate your responses with a comma.",,y,18919,,,1923,18645,,,,"keep you afloat on water, keeps you from drowning",1
M20290865_PSJ,x9w8q2uugf,"Affordance Norms_MSU_TEX",1,25,2023-04-02T15:22:20+00:00,20.448336839676,15,"updated stim.csv",Version15.csv,"Version 15","List 15",investigator,,422,4.888888889,1367,0.47461087,423,BOI,-,-,"Please name all of the ways you could use this object. Keep in mind that one object can have many uses. Separate your responses with a comma.",,y,19429,,,2398,19246,,,,"finds out information, figures out the bad gy",1
M20290865_PSJ,x9w8q2uugf,"Affordance Norms_MSU_TEX",1,26,2023-04-02T15:22:51+00:00,31.20706319809,15,"updated stim.csv",Version15.csv,"Version 15","List 15",storekeeper,,442,4.75,2552,0.711529641,443,BOI,-,-,"Please name all of the ways you could use this object. Keep in mind that one object can have many uses. Separate your responses with a comma.",,y,29926,,,2086,29264,,,,"watches over the stores, keeps items in the store neat and accessible, cashes out items, removes security tags",1
M20290865_PSJ,x9w8q2uugf,"Affordance Norms_MSU_TEX",1,27,2023-04-02T15:23:06+00:00,15.05088186264,15,"updated stim.csv",Version15.csv,"Version 15","List 15",teapot,,450,6.2,2649,0.536720356,451,BOI,-,-,"Please name all of the ways you could use this object. Keep in mind that one object can have many uses. Separate your responses with a comma.",,y,11395,,,3344,5936,,,,"heats water",1
M20290865_PSJ,x9w8q2uugf,"Affordance Norms_MSU_TEX",1,28,2023-04-02T15:23:28+00:00,22.565535068512,15,"updated stim.csv",Version15.csv,"Version 15","List 15",trapeze,,428,4.958333333,2763,0.021755234,429,BOI,-,-,"Please name all of the ways you could use this object. Keep in mind that one object can have many uses. Separate your responses with a comma.",,y,21781,,,19420,20863,,,,"swing on",0.789
M20290865_PSJ,x9w8q2uugf,"Affordance Norms_MSU_TEX",1,29,2023-04-02T15:23:40+00:00,11.23810005188,15,"updated stim.csv",Version15.csv,"Version 15","List 15",rod,,438,4.454545455,2185,0.868683002,439,BOI,-,-,"Please name all of the ways you could use this object. Keep in mind that one object can have many uses. Separate your responses with a comma.",,y,8639,,,3613,8285,,,,"hang things on",1
M20290865_PSJ,x9w8q2uugf,"Affordance Norms_MSU_TEX",1,30,2023-04-02T15:23:43+00:00,3.4875359535217,15,"updated stim.csv",Version15.csv,"Version 15","List 15",burger,,444,6.111111111,365,0.030114514,445,BOI,-,-,"Please name all of the ways you could use this object. Keep in mind that one object can have many uses. Separate your responses with a comma.",,y,3116,,,1687,2280,,,,eat,1
M20290865_PSJ,x9w8q2uugf,"Affordance Norms_MSU_TEX",1,31,2023-04-02T15:24:07+00:00,23.722012042999,15,"updated stim.csv",Version15.csv,"Version 15","List 15",newsstand,,426,5.458333333,1764,0.165548754,427,BOI,-,-,"Please name all of the ways you could use this object. Keep in mind that one object can have many uses. Separate your responses with a comma.",,y,17637,,,2217,17422,,,,"buys and sells newspapers ,sells snacks and drinks",1
M20290865_PSJ,x9w8q2uugf,"Affordance Norms_MSU_TEX",1,32,2023-04-02T15:24:36+00:00,28.728042840958,15,"updated stim.csv",Version15.csv,"Version 15","List 15",oceanographer,,430,4.44,1800,0.127937549,431,BOI,-,-,"Please name all of the ways you could use this object. Keep in mind that one object can have many uses. Separate your responses with a comma.",,y,26937,,,14969,26713,,,,"studies plants and animals in a marine environment ",0.879
M20290865_PSJ,x9w8q2uugf,"Affordance Norms_MSU_TEX",1,33,2023-04-02T15:24:53+00:00,17.167757987976,15,"updated stim.csv",Version15.csv,"Version 15","List 15",sundeck,,421,4.5,2586,0.114183625,422,BOI,-,-,"Please name all of the ways you could use this object. Keep in mind that one object can have many uses. Separate your responses with a comma.",,y,10385,,,3590,10064,,,,"open space to go relax",1
M20290865_PSJ,x9w8q2uugf,"Affordance Norms_MSU_TEX",1,34,2023-04-02T15:25:16+00:00,23.019039154053,15,"updated stim.csv",Version15.csv,"Version 15","List 15",claw,,423,4.391304348,550,0.085968356,424,BOI,-,-,"Please name all of the ways you could use this object. Keep in mind that one object can have many uses. Separate your responses with a comma.",,y,21619,,,4098,21429,,,,"pick things up, scratch you, animals indicator if they are unsafe",1
M20290865_PSJ,x9w8q2uugf,"Affordance Norms_MSU_TEX",1,35,2023-04-02T15:25:34+00:00,18.230741024017,15,"updated stim.csv",Version15.csv,"Version 15","List 15",restaurant,,434,5.275862069,2159,0.75962687,435,BOI,-,-,"Please name all of the ways you could use this object. Keep in mind that one object can have many uses. Separate your responses with a comma.",,y,13603,,,2705,12142,,,,"to eat food in, to buy food from, cooks",1
M20290865_PSJ,x9w8q2uugf,"Affordance Norms_MSU_TEX",1,36,2023-04-02T15:26:11+00:00,36.881989002228,15,"updated stim.csv",Version15.csv,"Version 15","List 15",thermometer,,429,5.56,2676,0.363619709,430,BOI,-,-,"Please name all of the ways you could use this object. Keep in mind that one object can have many uses. Separate your responses with a comma.",,y,21172,,,1862,21065,,,,"takes your temperature, tests the temperature of food and water",1
M20290865_PSJ,x9w8q2uugf,"Affordance Norms_MSU_TEX",1,37,2023-04-02T15:26:21+00:00,10.326812982559,15,"updated stim.csv",Version15.csv,"Version 15","List 15",apartment,,431,4.6,55,0.282470897,432,BOI,-,-,"Please name all of the ways you could use this object. Keep in mind that one object can have many uses. Separate your responses with a comma.",,y,5091,,,2202,3989,,,,"to live in",1
M20290865_PSJ,x9w8q2uugf,"Affordance Norms_MSU_TEX",1,38,2023-04-02T15:26:37+00:00,15.611470937729,15,"updated stim.csv",Version15.csv,"Version 15","List 15",corridor,,441,4.5,651,0.966954402,442,BOI,-,-,"Please name all of the ways you could use this object. Keep in mind that one object can have many uses. Separate your responses with a comma.",,y,11402,,,3021,9982,,,,"to walk in, to keep shoes",1
M20290865_PSJ,x9w8q2uugf,"Affordance Norms_MSU_TEX",1,39,2023-04-02T15:26:57+00:00,19.898844003677,15,"updated stim.csv",Version15.csv,"Version 15","List 15",racket,,436,5.24,2120,0.111236528,437,BOI,-,-,"Please name all of the ways you could use this object. Keep in mind that one object can have many uses. Separate your responses with a comma.",,y,15501,,,11859,15103,,,,"to hit balls with",0.868
M20290865_PSJ,x9w8q2uugf,"Affordance Norms_MSU_TEX",1,40,2023-04-02T15:27:14+00:00,16.793478965759,15,"updated stim.csv",Version15.csv,"Version 15","List 15",flounder,,432,4.52173913,1013,0.365858235,433,BOI,-,-,"Please name all of the ways you could use this object. Keep in mind that one object can have many uses. Separate your responses with a comma.",,y,13934,,,3426,13619,,,,"a fish in the ecosystem",1
M20290865_PSJ,x9w8q2uugf,"Affordance Norms_MSU_TEX",1,41,2023-04-02T15:27:18+00:00,4.5171780586243,15,"updated stim.csv",Version15.csv,"Version 15","List 15",,,,,,,0,Instruct,,,"You will now be asked a few questions about your experience today.",,"Instruct 4",3664,,,2678,2679,,,,,1
