Username,ID,ExperimentName,Session,Trial,Date,TimeDif,"Condition Number","Stimuli File","Order File","Condition Description","Condition Notes",Stimuli*Cue,Stimuli*Answer,Stimuli*Shuffle,"Stimuli*Stimuli Notes",Stimuli*Value,Stimuli*Rand,Procedure*Item,"Procedure*Trial Type","Procedure*Max Time","Procedure*Min Time",Procedure*Text,"Procedure*Procedure Notes",Procedure*Shuffle,Response*RT,Response*Response,Response*Accuracy,Response*RTfirst,Response*RTlast,Response*strictAcc,Response*lenientAcc,Response*focus,Response*JOL,Response*Focus
20317098SB,rltm9zdlfd,"Affordance Norms_MSU_TEX",1,1,2023-04-12T01:57:01+00:00,10.362934112549,37,"updated stim.csv",Version37.csv,"Version 37","List 37",,,,,,,0,Instruct,-,10,"In this section, you will be presented with a series of objects. Please name as many possible uses for this object as you can think of by typing them in the box below each object.",,Instruct1,10214,,,-1,-1,,,,,1
20317098SB,rltm9zdlfd,"Affordance Norms_MSU_TEX",1,2,2023-04-12T01:57:12+00:00,11.804878950119,37,"updated stim.csv",Version37.csv,"Version 37","List 37",,,,,,,0,Instruct,-,10,"Please keep in mind that a single object will have more than one use. For example, a ball can be thrown or can be bounced or even stepped on. When listing multiple uses for one object, please separate each use with a comma (i.e., thrown, bounced, stepped on)",,Instruct2,11610,,,-1,-1,,,,,1
20317098SB,rltm9zdlfd,"Affordance Norms_MSU_TEX",1,3,2023-04-12T01:57:26+00:00,14.106263875961,37,"updated stim.csv",Version37.csv,"Version 37","List 37",,,,,,,0,Instruct,-,-,"Before starting the experiment, you will complete a short practice sesstion. Press ENTER when you are ready to begin.",,Instruct3,13921,,,-1,-1,,,,,1
20317098SB,rltm9zdlfd,"Affordance Norms_MSU_TEX",1,4,2023-04-12T01:59:24+00:00,117.77412700653,37,"updated stim.csv",Version37.csv,"Version 37","List 37",grain,,3004,5.217391304,1143,0.226863762,3005,BOI,-,-,"Please name all of the ways you could use this object. Keep in mind that one object can have many uses. Separate your responses with a comma.",,n,117497,,,37703,115345,,,,"growing wheat, feed livestock, eat,",0.884
20317098SB,rltm9zdlfd,"Affordance Norms_MSU_TEX",1,5,2023-04-12T01:59:49+00:00,24.64678311348,37,"updated stim.csv",Version37.csv,"Version 37","List 37",saucer,,3005,5.777777778,2249,0.304808074,3006,BOI,-,-,"Please name all of the ways you could use this object. Keep in mind that one object can have many uses. Separate your responses with a comma.",,n,24389,,,3022,22735,,,,"plate, alien ship, shape",1
20317098SB,rltm9zdlfd,"Affordance Norms_MSU_TEX",1,6,2023-04-12T02:00:40+00:00,51.387064933777,37,"updated stim.csv",Version37.csv,"Version 37","List 37",shortening,,3002,4.92,2358,0.604328482,3003,BOI,-,-,"Please name all of the ways you could use this object. Keep in mind that one object can have many uses. Separate your responses with a comma.",,n,51202,,,18722,49968,,,,"cooking oil, shortening an object",0.937
20317098SB,rltm9zdlfd,"Affordance Norms_MSU_TEX",1,7,2023-04-12T02:02:05+00:00,85.088927030563,37,"updated stim.csv",Version37.csv,"Version 37","List 37",spaghetti,,3003,6,2461,0.090379998,3004,BOI,-,-,"Please name all of the ways you could use this object. Keep in mind that one object can have many uses. Separate your responses with a comma.",,n,84773,,,5465,83715,,,,"eat, make a macaroni necklace, feed the poor, eat ",1
20317098SB,rltm9zdlfd,"Affordance Norms_MSU_TEX",1,8,2023-04-12T02:02:26+00:00,20.57182598114,37,"updated stim.csv",Version37.csv,"Version 37","List 37",paperwork,,3001,5.625,1866,0.124284162,3002,BOI,-,-,"Please name all of the ways you could use this object. Keep in mind that one object can have many uses. Separate your responses with a comma.",,n,20335,,,5774,19613,,,,"for a job, for a doctors appointment or school",1
20317098SB,rltm9zdlfd,"Affordance Norms_MSU_TEX",1,9,2023-04-12T02:02:28+00:00,2.5734779834747,37,"updated stim.csv",Version37.csv,"Version 37","List 37",,,,,,,0,Instruct,-,-,"You have completed this section. Press ENTER to continue",,"Instruct 5",2405,,,-1,-1,,,,,1
20317098SB,rltm9zdlfd,"Affordance Norms_MSU_TEX",1,10,2023-04-12T02:02:33+00:00,4.1163880825043,37,"updated stim.csv",Version37.csv,"Version 37","List 37",,,,,,,0,Instruct,-,-,"You will now start the full experiment. Press ENTER when you are ready to begin.",,,3926,,,-1,-1,,,,,1
20317098SB,rltm9zdlfd,"Affordance Norms_MSU_TEX",1,11,2023-04-12T02:03:16+00:00,43.269490003586,37,"updated stim.csv",Version37.csv,"Version 37","List 37",elephant,,1108,4.36,900,0.837946143,1109,BOI,-,-,"Please name all of the ways you could use this object. Keep in mind that one object can have many uses. Separate your responses with a comma.",,y,43069,,,11840,27012,,,,"to ride, circus, rescue, jewelry",1
20317098SB,rltm9zdlfd,"Affordance Norms_MSU_TEX",1,12,2023-04-12T02:03:40+00:00,24.230871915817,37,"updated stim.csv",Version37.csv,"Version 37","List 37",kneecap,,1092,5.714285714,1434,0.122056671,1093,BOI,-,-,"Please name all of the ways you could use this object. Keep in mind that one object can have many uses. Separate your responses with a comma.",,y,24035,,,5836,20731,,,,"squat, stand, balance, walk, run, ",1
20317098SB,rltm9zdlfd,"Affordance Norms_MSU_TEX",1,13,2023-04-12T02:05:37+00:00,116.5669491291,37,"updated stim.csv",Version37.csv,"Version 37","List 37",shirttail,,1093,5.333333333,2348,0.56761113,1094,BOI,-,-,"Please name all of the ways you could use this object. Keep in mind that one object can have many uses. Separate your responses with a comma.",,y,116325,,,108600,114576,,,,"shirt, append, add",0.668
20317098SB,rltm9zdlfd,"Affordance Norms_MSU_TEX",1,14,2023-04-12T02:06:22+00:00,45.641814947128,37,"updated stim.csv",Version37.csv,"Version 37","List 37",rosary,,1082,5.791666667,2193,0.270107865,1083,BOI,-,-,"Please name all of the ways you could use this object. Keep in mind that one object can have many uses. Separate your responses with a comma.",,y,45260,,,2508,20607,,,,"pray, take it to church, ",1
20317098SB,rltm9zdlfd,"Affordance Norms_MSU_TEX",1,15,2023-04-12T02:06:40+00:00,18.151136875153,37,"updated stim.csv",Version37.csv,"Version 37","List 37",stereo,,1102,5.68,2531,0.446672274,1103,BOI,-,-,"Please name all of the ways you could use this object. Keep in mind that one object can have many uses. Separate your responses with a comma.",,y,17822,,,3259,17180,,,,"listen to music, set stuff on, decoration",1
20317098SB,rltm9zdlfd,"Affordance Norms_MSU_TEX",1,16,2023-04-12T02:07:17+00:00,36.111991167068,37,"updated stim.csv",Version37.csv,"Version 37","List 37",jeweler,,1100,4.695652174,1385,0.23942267,1101,BOI,-,-,"Please name all of the ways you could use this object. Keep in mind that one object can have many uses. Separate your responses with a comma.",,y,35716,,,2310,25687,,,,"make a necklace, rings, bracelets, earrings",1
20317098SB,rltm9zdlfd,"Affordance Norms_MSU_TEX",1,17,2023-04-12T02:08:17+00:00,60.363141775131,37,"updated stim.csv",Version37.csv,"Version 37","List 37",toffee,,1091,5.608695652,2716,0.995417769,1092,BOI,-,-,"Please name all of the ways you could use this object. Keep in mind that one object can have many uses. Separate your responses with a comma.",,y,60021,,,34576,59694,,,,"coffee, toffee syrup, toffee nuts",1
20317098SB,rltm9zdlfd,"Affordance Norms_MSU_TEX",1,18,2023-04-12T02:09:19+00:00,61.744603157043,37,"updated stim.csv",Version37.csv,"Version 37","List 37",greenery,,1103,4.375,1170,0.663615272,1104,BOI,-,-,"Please name all of the ways you could use this object. Keep in mind that one object can have many uses. Separate your responses with a comma.",,y,61308,,,44548,60618,,,,"plants, vegetation, leaves ",0.766
20317098SB,rltm9zdlfd,"Affordance Norms_MSU_TEX",1,19,2023-04-12T02:10:07+00:00,48.562530994415,37,"updated stim.csv",Version37.csv,"Version 37","List 37",mustard,,1104,5.8,1727,0.310063549,1105,BOI,-,-,"Please name all of the ways you could use this object. Keep in mind that one object can have many uses. Separate your responses with a comma.",,y,48373,,,1933,47287,,,,"on a burger, on a corn dog, in tuna salad",1
20317098SB,rltm9zdlfd,"Affordance Norms_MSU_TEX",1,20,2023-04-12T02:10:19+00:00,11.396691083908,37,"updated stim.csv",Version37.csv,"Version 37","List 37",scorecard,,1090,4.875,2279,0.005628161,1091,BOI,-,-,"Please name all of the ways you could use this object. Keep in mind that one object can have many uses. Separate your responses with a comma.",,y,11196,,,2217,8156,,,,"bingo, golf, bowling, ",1
20317098SB,rltm9zdlfd,"Affordance Norms_MSU_TEX",1,21,2023-04-12T02:14:03+00:00,224.18809485435,37,"updated stim.csv",Version37.csv,"Version 37","List 37",dressing,,1098,5.08,845,0.024846269,1099,BOI,-,-,"Please name all of the ways you could use this object. Keep in mind that one object can have many uses. Separate your responses with a comma.",,y,223749,,,2262,90761,,,,"salad, dressing room, on a wound, on cupcake",1
20317098SB,rltm9zdlfd,"Affordance Norms_MSU_TEX",1,22,2023-04-12T02:15:58+00:00,115.2715010643,37,"updated stim.csv",Version37.csv,"Version 37","List 37",auto,,1096,4.391304348,100,0.633727133,1097,BOI,-,-,"Please name all of the ways you could use this object. Keep in mind that one object can have many uses. Separate your responses with a comma.",,y,114857,,,77790,111278,,,,"automotive, auto pilot, auto care, auto insurance ",1
20317098SB,rltm9zdlfd,"Affordance Norms_MSU_TEX",1,23,2023-04-12T02:16:46+00:00,47.578065872192,37,"updated stim.csv",Version37.csv,"Version 37","List 37",twig,,1109,5.28,2811,0.495724488,1110,BOI,-,-,"Please name all of the ways you could use this object. Keep in mind that one object can have many uses. Separate your responses with a comma.",,y,47333,,,2905,47035,,,,"start a fire, make a fishing pole, use it as a snake poker",1
20317098SB,rltm9zdlfd,"Affordance Norms_MSU_TEX",1,24,2023-04-12T02:16:57+00:00,11.733289003372,37,"updated stim.csv",Version37.csv,"Version 37","List 37",jet,,1084,5.041666667,1383,0.574627572,1085,BOI,-,-,"Please name all of the ways you could use this object. Keep in mind that one object can have many uses. Separate your responses with a comma.",,y,11471,,,2013,8250,,,,"fly, go fast",1
20317098SB,rltm9zdlfd,"Affordance Norms_MSU_TEX",1,25,2023-04-12T02:17:25+00:00,27.957739114761,37,"updated stim.csv",Version37.csv,"Version 37","List 37",clover,,1089,4.695652174,574,0.467038467,1090,BOI,-,-,"Please name all of the ways you could use this object. Keep in mind that one object can have many uses. Separate your responses with a comma.",,y,27724,,,2175,26729,,,,"good luck, saint patricks day",1
20317098SB,rltm9zdlfd,"Affordance Norms_MSU_TEX",1,26,2023-04-12T02:18:43+00:00,78.138347864151,37,"updated stim.csv",Version37.csv,"Version 37","List 37",lotion,,1097,6.28,1548,0.077716612,1098,BOI,-,-,"Please name all of the ways you could use this object. Keep in mind that one object can have many uses. Separate your responses with a comma.",,y,77821,,,13868,46076,,,,"moisturize, conditioner, ",1
20317098SB,rltm9zdlfd,"Affordance Norms_MSU_TEX",1,27,2023-04-12T02:18:59+00:00,15.689791202545,37,"updated stim.csv",Version37.csv,"Version 37","List 37",lid,,1107,5.428571429,1503,0.999014504,1108,BOI,-,-,"Please name all of the ways you could use this object. Keep in mind that one object can have many uses. Separate your responses with a comma.",,y,15431,,,3406,14919,,,,"on a cup, to keep food fresh",1
20317098SB,rltm9zdlfd,"Affordance Norms_MSU_TEX",1,28,2023-04-12T02:19:37+00:00,37.542611837387,37,"updated stim.csv",Version37.csv,"Version 37","List 37",forklift,,1094,5.541666667,1048,0.746760437,1095,BOI,-,-,"Please name all of the ways you could use this object. Keep in mind that one object can have many uses. Separate your responses with a comma.",,y,37345,,,2180,37033,,,,"to reach high places, work on roof, work on light post,",1
20317098SB,rltm9zdlfd,"Affordance Norms_MSU_TEX",1,29,2023-04-12T02:19:47+00:00,9.8202180862427,37,"updated stim.csv",Version37.csv,"Version 37","List 37",chair,,1110,6.88,485,0.668282677,1111,BOI,-,-,"Please name all of the ways you could use this object. Keep in mind that one object can have many uses. Separate your responses with a comma.",,y,9611,,,3413,8816,,,,"to sit, to reach top shelf",1
20317098SB,rltm9zdlfd,"Affordance Norms_MSU_TEX",1,30,2023-04-12T02:20:02+00:00,15.729022979736,37,"updated stim.csv",Version37.csv,"Version 37","List 37",vase,,1081,5.36,2838,0.037039394,1082,BOI,-,-,"Please name all of the ways you could use this object. Keep in mind that one object can have many uses. Separate your responses with a comma.",,y,15480,,,1748,15219,,,,"hold flowers, hold ashes, decorations",1
20317098SB,rltm9zdlfd,"Affordance Norms_MSU_TEX",1,31,2023-04-12T02:20:53+00:00,50.71635890007,37,"updated stim.csv",Version37.csv,"Version 37","List 37",tummy,,1105,5.125,2796,0.537045485,1106,BOI,-,-,"Please name all of the ways you could use this object. Keep in mind that one object can have many uses. Separate your responses with a comma.",,y,50468,,,21849,46543,,,,"hold food, study the body, digesting, absorb nutrients ",1
20317098SB,rltm9zdlfd,"Affordance Norms_MSU_TEX",1,32,2023-04-12T02:21:10+00:00,17.098332166672,37,"updated stim.csv",Version37.csv,"Version 37","List 37",glue,,1106,5.043478261,1118,0.048454562,1107,BOI,-,-,"Please name all of the ways you could use this object. Keep in mind that one object can have many uses. Separate your responses with a comma.",,y,16804,,,1678,11748,,,,"to stick things together, close a cut, ",1
20317098SB,rltm9zdlfd,"Affordance Norms_MSU_TEX",1,33,2023-04-12T02:23:09+00:00,118.88149285316,37,"updated stim.csv",Version37.csv,"Version 37","List 37",gear,,1083,4.695652174,1091,0.867732272,1084,BOI,-,-,"Please name all of the ways you could use this object. Keep in mind that one object can have many uses. Separate your responses with a comma.",,y,118652,,,3590,118172,,,,"gearshift, hunting gear, fishing gear, sports gear",0.997
20317098SB,rltm9zdlfd,"Affordance Norms_MSU_TEX",1,34,2023-04-12T02:23:49+00:00,39.663684129715,37,"updated stim.csv",Version37.csv,"Version 37","List 37",lamplight,,1095,4.291666667,1456,0.241565984,1096,BOI,-,-,"Please name all of the ways you could use this object. Keep in mind that one object can have many uses. Separate your responses with a comma.",,y,39381,,,2876,38795,,,,"for light, to see in the dark, to read in bed",1
20317098SB,rltm9zdlfd,"Affordance Norms_MSU_TEX",1,35,2023-04-12T02:24:27+00:00,38.279052019119,37,"updated stim.csv",Version37.csv,"Version 37","List 37",locket,,1088,5.333333333,1537,0.726702365,1089,BOI,-,-,"Please name all of the ways you could use this object. Keep in mind that one object can have many uses. Separate your responses with a comma.",,y,38049,,,4918,37513,,,,"to keep a picture, as a lock on a locker",1
20317098SB,rltm9zdlfd,"Affordance Norms_MSU_TEX",1,36,2023-04-12T03:00:27+00:00,2160.1158659458,37,"updated stim.csv",Version37.csv,"Version 37","List 37",handle,,1086,4.958333333,1239,0.837622991,1087,BOI,-,-,"Please name all of the ways you could use this object. Keep in mind that one object can have many uses. Separate your responses with a comma.",,y,2159604,,,5203,14161,,,,"door handle, car handle, ",1
20317098SB,rltm9zdlfd,"Affordance Norms_MSU_TEX",1,37,2023-04-12T03:02:49+00:00,142.34975910187,37,"updated stim.csv",Version37.csv,"Version 37","List 37",pistachio,,1101,5.541666667,1978,0.346562769,1102,BOI,-,-,"Please name all of the ways you could use this object. Keep in mind that one object can have many uses. Separate your responses with a comma.",,y,142030,,,113401,141712,,,,"ice cream, snack",1
20317098SB,rltm9zdlfd,"Affordance Norms_MSU_TEX",1,38,2023-04-12T03:03:04+00:00,14.924112796783,37,"updated stim.csv",Version37.csv,"Version 37","List 37",critter,,1087,4.863636364,697,0.020818523,1088,BOI,-,-,"Please name all of the ways you could use this object. Keep in mind that one object can have many uses. Separate your responses with a comma.",,y,14677,,,4711,13934,,,,"raccoon, armadillo, raccoon",1
20317098SB,rltm9zdlfd,"Affordance Norms_MSU_TEX",1,39,2023-04-12T03:03:20+00:00,15.541277170181,37,"updated stim.csv",Version37.csv,"Version 37","List 37",tub,,1099,6.086956522,2789,0.006517216,1100,BOI,-,-,"Please name all of the ways you could use this object. Keep in mind that one object can have many uses. Separate your responses with a comma.",,y,15359,,,1940,14378,,,,"take a bath, wash clothes, bathe dogs and cats",1
20317098SB,rltm9zdlfd,"Affordance Norms_MSU_TEX",1,40,2023-04-12T03:03:43+00:00,23.613432884216,37,"updated stim.csv",Version37.csv,"Version 37","List 37",rag,,1085,5.666666667,2126,0.867262022,1086,BOI,-,-,"Please name all of the ways you could use this object. Keep in mind that one object can have many uses. Separate your responses with a comma.",,y,23443,,,2681,22639,,,,"take off makeup, wipe counter, clean up spill, clean floor",1
20317098SB,rltm9zdlfd,"Affordance Norms_MSU_TEX",1,41,2023-04-12T03:03:47+00:00,3.4862871170044,37,"updated stim.csv",Version37.csv,"Version 37","List 37",,,,,,,0,Instruct,,,"You will now be asked a few questions about your experience today.",,"Instruct 4",3302,,,-1,-1,,,,,1
