Username,ID,ExperimentName,Session,Trial,Date,TimeDif,"Condition Number","Stimuli File","Order File","Condition Description","Condition Notes",Stimuli*Cue,Stimuli*Answer,Stimuli*Shuffle,"Stimuli*Stimuli Notes",Stimuli*Value,Procedure*Item,"Procedure*Trial Type","Procedure*Max Time","Procedure*Min Time",Procedure*Text,"Procedure*Procedure Notes",Procedure*Shuffle,Response*RT,Response*Response,Response*Accuracy,Response*RTfirst,Response*RTlast,Response*strictAcc,Response*lenientAcc,Response*focus,Response*JOL,Response*Focus
w10134539,wad4da6vr3,"BOI Norms",1,1,2022-10-06T15:28:22+00:00,10.477341175079,6,"updated stim.csv",Version6.csv,"Version 6","List 6",,,,,,0,Instruct,-,10,"In this section, you will be presented with a series of objects. Please name as many possible uses for this object as you can think of by typing them in the box below each object.",,Instruct1,10108,,,-1,-1,,,,,1
w10134539,wad4da6vr3,"BOI Norms",1,2,2022-10-06T15:28:40+00:00,17.888427019119,6,"updated stim.csv",Version6.csv,"Version 6","List 6",,,,,,0,Instruct,-,10,"Please keep in mind that a single object will have more than one use. For example, a ball can be thrown or can be bounced or even stepped on. When listing multiple uses for one object, please separate each use with a comma (i.e., thrown, bounced, stepped on)",,Instruct2,17718,,,-1,-1,,,,,0.924
w10134539,wad4da6vr3,"BOI Norms",1,3,2022-10-06T15:28:43+00:00,3.2884638309479,6,"updated stim.csv",Version6.csv,"Version 6","List 6",,,,,,0,Instruct,-,-,"Before starting the experiment, you will complete a short practice sesstion. Press ENTER when you are ready to begin.",,Instruct3,3160,,,-1,-1,,,,,1
w10134539,wad4da6vr3,"BOI Norms",1,4,2022-10-06T15:29:16+00:00,32.899934053421,6,"updated stim.csv",Version6.csv,"Version 6","List 6",spaghetti,,3003,6,2461,3004,BOI,-,-,"Please name all of the ways you could use this object. Keep in mind that one object can have many uses. Separate your responses with a comma.",,n,32738,,,5949,14140,,,,"food, art project",1
w10134539,wad4da6vr3,"BOI Norms",1,5,2022-10-06T15:30:17+00:00,61.208847045898,6,"updated stim.csv",Version6.csv,"Version 6","List 6",paperwork,,3001,5.625,1866,3002,BOI,-,-,"Please name all of the ways you could use this object. Keep in mind that one object can have many uses. Separate your responses with a comma.",,n,60793,,,26367,60645,,,,"organization, job, school",1
w10134539,wad4da6vr3,"BOI Norms",1,6,2022-10-06T15:37:33+00:00,435.50272488594,6,"updated stim.csv",Version6.csv,"Version 6","List 6",saucer,,3005,5.777777778,2249,3006,BOI,-,-,"Please name all of the ways you could use this object. Keep in mind that one object can have many uses. Separate your responses with a comma.",,n,434999,,,411773,432988,,,,"decoration, holds liquid, UFO ",1
w10134539,wad4da6vr3,"BOI Norms",1,7,2022-10-06T15:38:02+00:00,29.291435003281,6,"updated stim.csv",Version6.csv,"Version 6","List 6",shortening,,3002,4.92,2358,3003,BOI,-,-,"Please name all of the ways you could use this object. Keep in mind that one object can have many uses. Separate your responses with a comma.",,n,28972,,,3024,12509,,,,cooking,0.889
w10134539,wad4da6vr3,"BOI Norms",1,8,2022-10-06T15:38:10+00:00,8.041894197464,6,"updated stim.csv",Version6.csv,"Version 6","List 6",grain,,3004,5.217391304,1143,3005,BOI,-,-,"Please name all of the ways you could use this object. Keep in mind that one object can have many uses. Separate your responses with a comma.",,n,7889,,,2827,7027,,,,"farming, making bread",1
w10134539,wad4da6vr3,"BOI Norms",1,9,2022-10-06T15:38:11+00:00,0.82136487960815,6,"updated stim.csv",Version6.csv,"Version 6","List 6",,,,,,0,Instruct,-,-,"You have completed this section. Press ENTER to continue",,"Instruct 5",690,,,-1,-1,,,,,1
w10134539,wad4da6vr3,"BOI Norms",1,10,2022-10-06T15:38:12+00:00,1.4319689273834,6,"updated stim.csv",Version6.csv,"Version 6","List 6",,,,,,0,Instruct,-,-,"You will now start the full experiment. Press ENTER when you are ready to begin.",,,1286,,,-1,-1,,,,,1
w10134539,wad4da6vr3,"BOI Norms",1,11,2022-10-06T15:38:32+00:00,20.142570972443,6,"updated stim.csv",Version6.csv,"Version 6","List 6",pilaf,,157,4.7,1959,158,BOI,-,-,"Please name all of the ways you could use this object. Keep in mind that one object can have many uses. Separate your responses with a comma.",,y,19984,,,17208,19673,,,,"nutrition, cooking",0.839
w10134539,wad4da6vr3,"BOI Norms",1,12,2022-10-06T15:38:43+00:00,10.985648155212,6,"updated stim.csv",Version6.csv,"Version 6","List 6",berry,,179,5.523809524,205,180,BOI,-,-,"Please name all of the ways you could use this object. Keep in mind that one object can have many uses. Separate your responses with a comma.",,y,10833,,,2822,10518,,,,"dye, food, poison, scent, flavor",1
w10134539,wad4da6vr3,"BOI Norms",1,13,2022-10-06T15:38:55+00:00,11.844403982162,6,"updated stim.csv",Version6.csv,"Version 6","List 6",blindfold,,167,5.125,237,168,BOI,-,-,"Please name all of the ways you could use this object. Keep in mind that one object can have many uses. Separate your responses with a comma.",,y,11664,,,3501,11424,,,,"magic trick, sleeping mask, costume",1
w10134539,wad4da6vr3,"BOI Norms",1,14,2022-10-06T15:39:01+00:00,5.7120969295502,6,"updated stim.csv",Version6.csv,"Version 6","List 6",tofu,,180,5.555555556,2717,181,BOI,-,-,"Please name all of the ways you could use this object. Keep in mind that one object can have many uses. Separate your responses with a comma.",,y,5541,,,2268,4745,,,,"vegan, food",1
w10134539,wad4da6vr3,"BOI Norms",1,15,2022-10-06T15:39:13+00:00,12.01483798027,6,"updated stim.csv",Version6.csv,"Version 6","List 6",scale,,175,5.652173913,2259,176,BOI,-,-,"Please name all of the ways you could use this object. Keep in mind that one object can have many uses. Separate your responses with a comma.",,y,11855,,,1937,11234,,,,"measurement, weighing oneself",1
w10134539,wad4da6vr3,"BOI Norms",1,16,2022-10-06T15:39:20+00:00,6.9989249706268,6,"updated stim.csv",Version6.csv,"Version 6","List 6",desert,,160,4.291666667,779,161,BOI,-,-,"Please name all of the ways you could use this object. Keep in mind that one object can have many uses. Separate your responses with a comma.",,y,6846,,,3299,6008,,,,"reward, food",1
w10134539,wad4da6vr3,"BOI Norms",1,17,2022-10-06T15:39:40+00:00,20.376516103745,6,"updated stim.csv",Version6.csv,"Version 6","List 6",bicep,,151,5.666666667,209,152,BOI,-,-,"Please name all of the ways you could use this object. Keep in mind that one object can have many uses. Separate your responses with a comma.",,y,19955,,,12914,18334,,,,"strong, muscle",1
w10134539,wad4da6vr3,"BOI Norms",1,18,2022-10-06T15:40:00+00:00,19.526345014572,6,"updated stim.csv",Version6.csv,"Version 6","List 6",bird,,171,4.896551724,220,172,BOI,-,-,"Please name all of the ways you could use this object. Keep in mind that one object can have many uses. Separate your responses with a comma.",,y,19324,,,3281,18850,,,,"to admire, pet, scare other animals away",1
w10134539,wad4da6vr3,"BOI Norms",1,19,2022-10-06T15:40:33+00:00,33.078849077225,6,"updated stim.csv",Version6.csv,"Version 6","List 6",chinaware,,158,5.913043478,527,159,BOI,-,-,"Please name all of the ways you could use this object. Keep in mind that one object can have many uses. Separate your responses with a comma.",,y,32892,,,1870,32608,,,,"decoration, to set the table, valuue",1
w10134539,wad4da6vr3,"BOI Norms",1,20,2022-10-06T15:40:49+00:00,15.669298887253,6,"updated stim.csv",Version6.csv,"Version 6","List 6",physician,,161,5.12,1945,162,BOI,-,-,"Please name all of the ways you could use this object. Keep in mind that one object can have many uses. Separate your responses with a comma.",,y,14643,,,1977,11366,,,,"to treat, occupation",1
w10134539,wad4da6vr3,"BOI Norms",1,21,2022-10-06T15:40:59+00:00,10.708863973618,6,"updated stim.csv",Version6.csv,"Version 6","List 6",crystal,,170,4.37037037,720,171,BOI,-,-,"Please name all of the ways you could use this object. Keep in mind that one object can have many uses. Separate your responses with a comma.",,y,10552,,,3768,10134,,,,"rock formation, manifestation",1
w10134539,wad4da6vr3,"BOI Norms",1,22,2022-10-06T15:41:06+00:00,6.7199521064758,6,"updated stim.csv",Version6.csv,"Version 6","List 6",ginger,,178,5.32,1104,179,BOI,-,-,"Please name all of the ways you could use this object. Keep in mind that one object can have many uses. Separate your responses with a comma.",,y,6567,,,2611,6177,,,,"hair color, spice",1
w10134539,wad4da6vr3,"BOI Norms",1,23,2022-10-06T15:41:22+00:00,15.627404928207,6,"updated stim.csv",Version6.csv,"Version 6","List 6",ticket,,164,5.333333333,2692,165,BOI,-,-,"Please name all of the ways you could use this object. Keep in mind that one object can have many uses. Separate your responses with a comma.",,y,15469,,,2137,13652,,,,"parking ticket, train ticket, entrance",1
w10134539,wad4da6vr3,"BOI Norms",1,24,2022-10-06T15:41:39+00:00,17.868288040161,6,"updated stim.csv",Version6.csv,"Version 6","List 6",chronograph,,154,4.684210526,538,155,BOI,-,-,"Please name all of the ways you could use this object. Keep in mind that one object can have many uses. Separate your responses with a comma.",,y,17626,,,9580,17128,,,,"stopwatch, clock, tell the time, accessory",0.929
w10134539,wad4da6vr3,"BOI Norms",1,25,2022-10-06T15:42:00+00:00,20.602952003479,6,"updated stim.csv",Version6.csv,"Version 6","List 6",canvass,,177,4.347826087,421,178,BOI,-,-,"Please name all of the ways you could use this object. Keep in mind that one object can have many uses. Separate your responses with a comma.",,y,20414,,,2329,20068,,,,"poll, votes, collection",0.938
w10134539,wad4da6vr3,"BOI Norms",1,26,2022-10-06T15:42:09+00:00,8.7185249328613,6,"updated stim.csv",Version6.csv,"Version 6","List 6",wand,,169,5.08,2892,170,BOI,-,-,"Please name all of the ways you could use this object. Keep in mind that one object can have many uses. Separate your responses with a comma.",,y,8524,,,4017,7505,,,,"hair curler, magic wand",1
w10134539,wad4da6vr3,"BOI Norms",1,27,2022-10-06T15:42:22+00:00,13.190001010895,6,"updated stim.csv",Version6.csv,"Version 6","List 6",balcony,,176,4.739130435,127,177,BOI,-,-,"Please name all of the ways you could use this object. Keep in mind that one object can have many uses. Separate your responses with a comma.",,y,12975,,,2229,11100,,,,"grow plants, sit and relax",1
w10134539,wad4da6vr3,"BOI Norms",1,28,2022-10-06T15:42:36+00:00,13.76144695282,6,"updated stim.csv",Version6.csv,"Version 6","List 6",van,,163,6.28,2836,164,BOI,-,-,"Please name all of the ways you could use this object. Keep in mind that one object can have many uses. Separate your responses with a comma.",,y,13586,,,2773,13085,,,,"transportation, home, work van",1
w10134539,wad4da6vr3,"BOI Norms",1,29,2022-10-06T15:42:49+00:00,12.957796096802,6,"updated stim.csv",Version6.csv,"Version 6","List 6",myself,,162,5.038461538,1731,163,BOI,-,-,"Please name all of the ways you could use this object. Keep in mind that one object can have many uses. Separate your responses with a comma.",,y,12664,,,6839,12296,,,,"hold a job, go to school, be a friend",1
w10134539,wad4da6vr3,"BOI Norms",1,30,2022-10-06T15:43:12+00:00,22.949214935303,6,"updated stim.csv",Version6.csv,"Version 6","List 6",screw,,152,5.708333333,2286,153,BOI,-,-,"Please name all of the ways you could use this object. Keep in mind that one object can have many uses. Separate your responses with a comma.",,y,22771,,,2998,22531,,,,"construction, hold wood together",0.853
w10134539,wad4da6vr3,"BOI Norms",1,31,2022-10-06T15:43:21+00:00,9.1821179389954,6,"updated stim.csv",Version6.csv,"Version 6","List 6",family,,153,5.291666667,944,154,BOI,-,-,"Please name all of the ways you could use this object. Keep in mind that one object can have many uses. Separate your responses with a comma.",,y,9018,,,1417,8808,,,,"support, love, assistance",1
w10134539,wad4da6vr3,"BOI Norms",1,32,2022-10-06T15:43:41+00:00,19.732534170151,6,"updated stim.csv",Version6.csv,"Version 6","List 6",footballer,,165,5.041666667,1031,166,BOI,-,-,"Please name all of the ways you could use this object. Keep in mind that one object can have many uses. Separate your responses with a comma.",,y,19575,,,2871,18490,,,,"athlete, friend, brother",1
w10134539,wad4da6vr3,"BOI Norms",1,33,2022-10-06T15:43:48+00:00,6.9599978923798,6,"updated stim.csv",Version6.csv,"Version 6","List 6",whisky,,174,5.857142857,2931,175,BOI,-,-,"Please name all of the ways you could use this object. Keep in mind that one object can have many uses. Separate your responses with a comma.",,y,6790,,,2495,6589,,,,"drink, to relax",1
w10134539,wad4da6vr3,"BOI Norms",1,34,2022-10-06T15:44:01+00:00,13.427967071533,6,"updated stim.csv",Version6.csv,"Version 6","List 6",tinfoil,,155,5.458333333,2703,156,BOI,-,-,"Please name all of the ways you could use this object. Keep in mind that one object can have many uses. Separate your responses with a comma.",,y,13260,,,1637,13082,,,,"attract heat, keep food warm, cover leftovers",1
w10134539,wad4da6vr3,"BOI Norms",1,35,2022-10-06T15:44:07+00:00,5.6819729804993,6,"updated stim.csv",Version6.csv,"Version 6","List 6",harvest,,168,4.464285714,1256,169,BOI,-,-,"Please name all of the ways you could use this object. Keep in mind that one object can have many uses. Separate your responses with a comma.",,y,5514,,,3509,5236,,,,"collect food",1
w10134539,wad4da6vr3,"BOI Norms",1,36,2022-10-06T15:44:21+00:00,14.2563560009,6,"updated stim.csv",Version6.csv,"Version 6","List 6",snowfall,,166,4.347826087,2433,167,BOI,-,-,"Please name all of the ways you could use this object. Keep in mind that one object can have many uses. Separate your responses with a comma.",,y,14101,,,1687,13964,,,,"play in the snow, no school, snow shoveling business",1
w10134539,wad4da6vr3,"BOI Norms",1,37,2022-10-06T15:44:26+00:00,5.1597850322723,6,"updated stim.csv",Version6.csv,"Version 6","List 6",bathe,,156,5.214285714,168,157,BOI,-,-,"Please name all of the ways you could use this object. Keep in mind that one object can have many uses. Separate your responses with a comma.",,y,4994,,,1923,4660,,,,"to relax, be clean",1
w10134539,wad4da6vr3,"BOI Norms",1,38,2022-10-06T15:44:43+00:00,17.021308898926,6,"updated stim.csv",Version6.csv,"Version 6","List 6",negligee,,172,4.75,1749,173,BOI,-,-,"Please name all of the ways you could use this object. Keep in mind that one object can have many uses. Separate your responses with a comma.",,y,16861,,,11040,16625,,,,"clothing, fabric",0.903
w10134539,wad4da6vr3,"BOI Norms",1,39,2022-10-06T15:44:53+00:00,9.8043940067291,6,"updated stim.csv",Version6.csv,"Version 6","List 6",tabasco,,173,5.260869565,2615,174,BOI,-,-,"Please name all of the ways you could use this object. Keep in mind that one object can have many uses. Separate your responses with a comma.",,y,9635,,,3426,9393,,,,"spicy, sauce, flavor",1
w10134539,wad4da6vr3,"BOI Norms",1,40,2022-10-06T15:44:59+00:00,6.4210829734802,6,"updated stim.csv",Version6.csv,"Version 6","List 6",parsnip,,159,5.666666667,1878,160,BOI,-,-,"Please name all of the ways you could use this object. Keep in mind that one object can have many uses. Separate your responses with a comma.",,y,6264,,,2664,5240,,,,"crop, nutrition",1
w10134539,wad4da6vr3,"BOI Norms",1,41,2022-10-06T15:45:00+00:00,0.89324402809143,6,"updated stim.csv",Version6.csv,"Version 6","List 6",,,,,,0,Instruct,,,"You will now be asked a few questions about your experience today.",,"Instruct 4",755,,,-1,-1,,,,,1
