Username,ID,ExperimentName,Session,Trial,Date,TimeDif,"Condition Number","Stimuli File","Order File","Condition Description","Condition Notes",Stimuli*Cue,Stimuli*Answer,Stimuli*Shuffle,"Stimuli*Stimuli Notes",Stimuli*Value,Procedure*Item,"Procedure*Trial Type","Procedure*Max Time","Procedure*Min Time",Procedure*Text,"Procedure*Procedure Notes",Procedure*Shuffle,Response*RT,Response*Response,Response*Accuracy,Response*RTfirst,Response*RTlast,Response*strictAcc,Response*lenientAcc,Response*focus,Response*JOL,Response*Focus
w10091258_kj,6xdjqblqnd,"BOI Norms",1,1,2020-11-16T11:09:45-08:00,11.501539945602,22,"updated stim.csv",Version47.csv,"Version 47","List 47",,,,,,0,Instruct,-,10,"In this section, you will be presented with a series of objects. Please name as many possible uses for this object as you can think of by typing them in the box below each object.",,Instruct1,11211,,,-1,-1,,,,,1
w10091258_kj,6xdjqblqnd,"BOI Norms",1,2,2020-11-16T11:09:57-08:00,11.688379049301,22,"updated stim.csv",Version47.csv,"Version 47","List 47",,,,,,0,Instruct,-,10,"Please keep in mind that a single object will have more than one use. For example, a ball can be thrown or can be bounced or even stepped on. When listing multiple uses for one object, please separate each use with a comma (i.e., thrown, bounced, stepped on)",,Instruct2,11303,,,-1,-1,,,,,1
w10091258_kj,6xdjqblqnd,"BOI Norms",1,3,2020-11-16T11:10:01-08:00,3.4770660400391,22,"updated stim.csv",Version47.csv,"Version 47","List 47",,,,,,0,Instruct,-,-,"Before starting the experiment, you will complete a short practice sesstion. Press ENTER when you are ready to begin.",,Instruct3,3138,,,-1,-1,,,,,1
w10091258_kj,6xdjqblqnd,"BOI Norms",1,4,2020-11-16T11:10:46-08:00,45.04475903511,22,"updated stim.csv",Version47.csv,"Version 47","List 47",spaghetti,,3003,6,2461,3004,BOI,-,-,"Please name all of the ways you could use this object. Keep in mind that one object can have many uses. Separate your responses with a comma.",,n,44703,,,4210,42907,,,,"eat, cook, throw, trash, refrigerate ",1
w10091258_kj,6xdjqblqnd,"BOI Norms",1,5,2020-11-16T11:11:34-08:00,48.674605846405,22,"updated stim.csv",Version47.csv,"Version 47","List 47",saucer,,3005,5.777777778,2249,3006,BOI,-,-,"Please name all of the ways you could use this object. Keep in mind that one object can have many uses. Separate your responses with a comma.",,n,48076,,,2609,43956,,,,"place, use as a coaster, throw, use to hold spoon or other object",1
w10091258_kj,6xdjqblqnd,"BOI Norms",1,6,2020-11-16T11:12:53-08:00,79.010985136032,22,"updated stim.csv",Version47.csv,"Version 47","List 47",grain,,3004,5.217391304,1143,3005,BOI,-,-,"Please name all of the ways you could use this object. Keep in mind that one object can have many uses. Separate your responses with a comma.",,n,78661,,,2719,76888,,,,"make bread, feed livestock, use to make oils, used in some cosmetic products, used to make some alcohols",1
w10091258_kj,6xdjqblqnd,"BOI Norms",1,7,2020-11-16T11:13:47-08:00,53.293354034424,22,"updated stim.csv",Version47.csv,"Version 47","List 47",paperwork,,3001,5.625,1866,3002,BOI,-,-,"Please name all of the ways you could use this object. Keep in mind that one object can have many uses. Separate your responses with a comma.",,n,52962,,,5905,51987,,,,"document important dates, places, people, and events, can be used to make an agreement or contract, used as homework as well, legal way to pass a law or such",1
w10091258_kj,6xdjqblqnd,"BOI Norms",1,8,2020-11-16T11:15:06-08:00,79.340181827545,22,"updated stim.csv",Version47.csv,"Version 47","List 47",shortening,,3002,4.92,2358,3003,BOI,-,-,"Please name all of the ways you could use this object. Keep in mind that one object can have many uses. Separate your responses with a comma.",,n,79013,,,2745,77966,,,,"used in cooking, used with baked goods, oils, frying things",1
w10091258_kj,6xdjqblqnd,"BOI Norms",1,9,2020-11-16T11:15:08-08:00,2.2403881549835,22,"updated stim.csv",Version47.csv,"Version 47","List 47",,,,,,0,Instruct,-,-,"You have completed this section. Press ENTER to continue",,"Instruct 5",1923,,,-1,-1,,,,,1
w10091258_kj,6xdjqblqnd,"BOI Norms",1,10,2020-11-16T11:15:10-08:00,1.7436258792877,22,"updated stim.csv",Version47.csv,"Version 47","List 47",,,,,,0,Instruct,-,-,"You will now start the full experiment. Press ENTER when you are ready to begin.",,,1421,,,-1,-1,,,,,1
w10091258_kj,6xdjqblqnd,"BOI Norms",1,11,2020-11-16T11:16:59-08:00,109.40042209625,22,"updated stim.csv",Version47.csv,"Version 47","List 47",chest,,1403,5.851851852,513,1404,BOI,-,-,"Please name all of the ways you could use this object. Keep in mind that one object can have many uses. Separate your responses with a comma.",,y,109051,,,2033,99526,,,,"used to hold clothing, toys, books, other items, used to hold valuables, used to store food if an ice chest, used to store pictures, used to store hunting gear",1
w10091258_kj,6xdjqblqnd,"BOI Norms",1,12,2020-11-16T11:17:47-08:00,47.85830783844,22,"updated stim.csv",Version47.csv,"Version 47","List 47",axle,,1398,4.904761905,108,1399,BOI,-,-,"Please name all of the ways you could use this object. Keep in mind that one object can have many uses. Separate your responses with a comma.",,y,47485,,,1931,44869,,,,"used on trucks, cars, and other vehicles, used on boats",1
w10091258_kj,6xdjqblqnd,"BOI Norms",1,13,2020-11-16T11:18:31-08:00,43.583956003189,22,"updated stim.csv",Version47.csv,"Version 47","List 47",confetti,,1389,4.76,626,1390,BOI,-,-,"Please name all of the ways you could use this object. Keep in mind that one object can have many uses. Separate your responses with a comma.",,y,43065,,,1262,41764,,,,"used at baby showers, used at homecoming football games, used at any other sporting event, parties, used at celebrations, used for decorations",1
w10091258_kj,6xdjqblqnd,"BOI Norms",1,14,2020-11-16T11:19:30-08:00,59.679871082306,22,"updated stim.csv",Version47.csv,"Version 47","List 47",handkerchief,,1410,5.72,1238,1411,BOI,-,-,"Please name all of the ways you could use this object. Keep in mind that one object can have many uses. Separate your responses with a comma.",,y,59334,,,1079,58418,,,,"used as a facial tissue, used in men's suits, used in movies as a way to show wealth, used to wipe up something, used to wave off soldiers or welcome them home, used as a surrender tactic ",1
w10091258_kj,6xdjqblqnd,"BOI Norms",1,15,2020-11-16T11:21:11-08:00,100.61183094978,22,"updated stim.csv",Version47.csv,"Version 47","List 47",newt,,1396,4.391304348,1765,1397,BOI,-,-,"Please name all of the ways you could use this object. Keep in mind that one object can have many uses. Separate your responses with a comma.",,y,100250,,,3960,8276,,,,,1
w10091258_kj,6xdjqblqnd,"BOI Norms",1,16,2020-11-16T11:25:34-08:00,263.09416508675,22,"updated stim.csv",Version47.csv,"Version 47","List 47",mink,,1381,4.904761905,1664,1382,BOI,-,-,"Please name all of the ways you could use this object. Keep in mind that one object can have many uses. Separate your responses with a comma.",,y,262535,,,158935,250609,,,,"used in fur coats, used for by products, used in cosmetics ",1
w10091258_kj,6xdjqblqnd,"BOI Norms",1,17,2020-11-16T11:26:20-08:00,45.992073059082,22,"updated stim.csv",Version47.csv,"Version 47","List 47",pet,,1384,6.214285714,1932,1385,BOI,-,-,"Please name all of the ways you could use this object. Keep in mind that one object can have many uses. Separate your responses with a comma.",,y,45648,,,1410,42259,,,,"used to cope with mental health issues, can be used as a companion ",1
w10091258_kj,6xdjqblqnd,"BOI Norms",1,18,2020-11-16T11:26:53-08:00,32.450442790985,22,"updated stim.csv",Version47.csv,"Version 47","List 47",pot,,1383,6.16,2046,1384,BOI,-,-,"Please name all of the ways you could use this object. Keep in mind that one object can have many uses. Separate your responses with a comma.",,y,32100,,,6290,30219,,,,"used in cooking, catching water, used in creating things that require a surface",1
w10091258_kj,6xdjqblqnd,"BOI Norms",1,19,2020-11-16T11:27:41-08:00,48.681267023087,22,"updated stim.csv",Version47.csv,"Version 47","List 47",keepsake,,1400,4.75,1403,1401,BOI,-,-,"Please name all of the ways you could use this object. Keep in mind that one object can have many uses. Separate your responses with a comma.",,y,48307,,,1352,15621,,,,"used to keep a memory alive, used as decor",1
w10091258_kj,6xdjqblqnd,"BOI Norms",1,20,2020-11-16T11:28:54-08:00,73.148989200592,22,"updated stim.csv",Version47.csv,"Version 47","List 47",firstborn,,1394,4.518518519,988,1395,BOI,-,-,"Please name all of the ways you could use this object. Keep in mind that one object can have many uses. Separate your responses with a comma.",,y,72804,,,1872,70104,,,,"used as a stepping stone in a relationship",1
w10091258_kj,6xdjqblqnd,"BOI Norms",1,21,2020-11-16T11:29:28-08:00,34.111006975174,22,"updated stim.csv",Version47.csv,"Version 47","List 47",apron,,1385,5.96,67,1386,BOI,-,-,"Please name all of the ways you could use this object. Keep in mind that one object can have many uses. Separate your responses with a comma.",,y,33785,,,986,32404,,,,"used in protecting clothes, used in cooking attire, used to hold items while multitasking",1
w10091258_kj,6xdjqblqnd,"BOI Norms",1,22,2020-11-16T11:29:42-08:00,13.843393802643,22,"updated stim.csv",Version47.csv,"Version 47","List 47",hamster,,1390,5.583333333,1226,1391,BOI,-,-,"Please name all of the ways you could use this object. Keep in mind that one object can have many uses. Separate your responses with a comma.",,y,13515,,,1808,12131,,,,"used as an emotional support animal ",1
w10091258_kj,6xdjqblqnd,"BOI Norms",1,23,2020-11-16T11:32:43-08:00,180.31958913803,22,"updated stim.csv",Version47.csv,"Version 47","List 47",sled,,1392,6.086956522,2406,1393,BOI,-,-,"Please name all of the ways you could use this object. Keep in mind that one object can have many uses. Separate your responses with a comma.",,y,179951,,,1265,178814,,,,"used to go down hills, mountains, roads, used to carry supplies, used to transport people to places ",1
w10091258_kj,6xdjqblqnd,"BOI Norms",1,24,2020-11-16T11:33:00-08:00,17.419797897339,22,"updated stim.csv",Version47.csv,"Version 47","List 47",animal,,1407,5.958333333,41,1408,BOI,-,-,"Please name all of the ways you could use this object. Keep in mind that one object can have many uses. Separate your responses with a comma.",,y,17064,,,2065,16219,,,,"used as a support companion",1
w10091258_kj,6xdjqblqnd,"BOI Norms",1,25,2020-11-16T11:33:04-08:00,3.7139940261841,22,"updated stim.csv",Version47.csv,"Version 47","List 47",harpsichord,,1386,4.904761905,1255,1387,BOI,-,-,"Please name all of the ways you could use this object. Keep in mind that one object can have many uses. Separate your responses with a comma.",,y,3380,,,-1,-1,,,,,1
w10091258_kj,6xdjqblqnd,"BOI Norms",1,26,2020-11-16T11:33:19-08:00,14.865770101547,22,"updated stim.csv",Version47.csv,"Version 47","List 47",longbow,,1401,5.285714286,1546,1402,BOI,-,-,"Please name all of the ways you could use this object. Keep in mind that one object can have many uses. Separate your responses with a comma.",,y,14526,,,1394,13756,,,,"used to shoot arrows, used to hunt and provide food",1
w10091258_kj,6xdjqblqnd,"BOI Norms",1,27,2020-11-16T11:33:25-08:00,6.8172159194946,22,"updated stim.csv",Version47.csv,"Version 47","List 47",spear,,1382,5.208333333,2465,1383,BOI,-,-,"Please name all of the ways you could use this object. Keep in mind that one object can have many uses. Separate your responses with a comma.",,y,6475,,,1174,4829,,,,"used as a hunting tool",1
w10091258_kj,6xdjqblqnd,"BOI Norms",1,28,2020-11-16T11:33:32-08:00,6.2714691162109,22,"updated stim.csv",Version47.csv,"Version 47","List 47",duckweed,,1408,4.4,861,1409,BOI,-,-,"Please name all of the ways you could use this object. Keep in mind that one object can have many uses. Separate your responses with a comma.",,y,5926,,,-1,-1,,,,,1
w10091258_kj,6xdjqblqnd,"BOI Norms",1,29,2020-11-16T11:34:08-08:00,35.898916959763,22,"updated stim.csv",Version47.csv,"Version 47","List 47",comb,,1387,5.923076923,606,1388,BOI,-,-,"Please name all of the ways you could use this object. Keep in mind that one object can have many uses. Separate your responses with a comma.",,y,35567,,,1231,34589,,,,"used to brush hair, used to separate hair, used to style hair",1
w10091258_kj,6xdjqblqnd,"BOI Norms",1,30,2020-11-16T11:37:53-08:00,225.62053704262,22,"updated stim.csv",Version47.csv,"Version 47","List 47",gate,,1388,5.956521739,1085,1389,BOI,-,-,"Please name all of the ways you could use this object. Keep in mind that one object can have many uses. Separate your responses with a comma.",,y,224985,,,986,223869,,,,"used to keep out unwanted people or animals, used to protect property ",1
w10091258_kj,6xdjqblqnd,"BOI Norms",1,31,2020-11-16T11:37:55-08:00,2.1767058372498,22,"updated stim.csv",Version47.csv,"Version 47","List 47",loin,,1393,4.391304348,1543,1394,BOI,-,-,"Please name all of the ways you could use this object. Keep in mind that one object can have many uses. Separate your responses with a comma.",,y,1729,,,-1,-1,,,,,1
w10091258_kj,6xdjqblqnd,"BOI Norms",1,32,2020-11-16T11:40:38-08:00,162.42490696907,22,"updated stim.csv",Version47.csv,"Version 47","List 47",newspaper,,1406,5.76,1760,1407,BOI,-,-,"Please name all of the ways you could use this object. Keep in mind that one object can have many uses. Separate your responses with a comma.",,y,160880,,,1156,159121,,,,"used to communicate to the public, used for propaganda, used to sell things, get a job",1
w10091258_kj,6xdjqblqnd,"BOI Norms",1,33,2020-11-16T11:41:07-08:00,29.540349006653,22,"updated stim.csv",Version47.csv,"Version 47","List 47",kit,,1404,4.739130435,1424,1405,BOI,-,-,"Please name all of the ways you could use this object. Keep in mind that one object can have many uses. Separate your responses with a comma.",,y,29157,,,1794,27637,,,,"used as a basic necessities organizer",1
w10091258_kj,6xdjqblqnd,"BOI Norms",1,34,2020-11-16T11:42:33-08:00,85.639014005661,22,"updated stim.csv",Version47.csv,"Version 47","List 47",stream,,1391,4.678571429,2562,1392,BOI,-,-,"Please name all of the ways you could use this object. Keep in mind that one object can have many uses. Separate your responses with a comma.",,y,85152,,,1352,83300,,,,"used to collect water, used in ecosystems ",1
w10091258_kj,6xdjqblqnd,"BOI Norms",1,35,2020-11-16T11:42:36-08:00,2.5531899929047,22,"updated stim.csv",Version47.csv,"Version 47","List 47",radiologist,,1399,4.913043478,2123,1400,BOI,-,-,"Please name all of the ways you could use this object. Keep in mind that one object can have many uses. Separate your responses with a comma.",,y,2119,,,-1,-1,,,,,1
w10091258_kj,6xdjqblqnd,"BOI Norms",1,36,2020-11-16T11:43:15-08:00,39.647107124329,22,"updated stim.csv",Version47.csv,"Version 47","List 47",comforter,,1409,6.16,607,1410,BOI,-,-,"Please name all of the ways you could use this object. Keep in mind that one object can have many uses. Separate your responses with a comma.",,y,39282,,,1297,38157,,,,"used to decorate a bed, used to keep warm ",1
w10091258_kj,6xdjqblqnd,"BOI Norms",1,37,2020-11-16T11:43:19-08:00,3.4776039123535,22,"updated stim.csv",Version47.csv,"Version 47","List 47",tortoise,,1402,4.541666667,2741,1403,BOI,-,-,"Please name all of the ways you could use this object. Keep in mind that one object can have many uses. Separate your responses with a comma.",,y,3155,,,-1,-1,,,,,1
w10091258_kj,6xdjqblqnd,"BOI Norms",1,38,2020-11-16T11:44:03-08:00,44.054656028748,22,"updated stim.csv",Version47.csv,"Version 47","List 47",headrest,,1395,5.346153846,1271,1396,BOI,-,-,"Please name all of the ways you could use this object. Keep in mind that one object can have many uses. Separate your responses with a comma.",,y,43736,,,3214,42091,,,,"used to rest a head, used to have correct posture ",1
w10091258_kj,6xdjqblqnd,"BOI Norms",1,39,2020-11-16T11:45:03-08:00,60.485579967499,22,"updated stim.csv",Version47.csv,"Version 47","List 47",floorboard,,1397,5.791666667,1009,1398,BOI,-,-,"Please name all of the ways you could use this object. Keep in mind that one object can have many uses. Separate your responses with a comma.",,y,60155,,,4366,57280,,,,"used to protect foundation of houses, used to walk easier and help feet ",1
w10091258_kj,6xdjqblqnd,"BOI Norms",1,40,2020-11-16T11:46:18-08:00,74.300042152405,22,"updated stim.csv",Version47.csv,"Version 47","List 47",secretary,,1405,5.2,2305,1406,BOI,-,-,"Please name all of the ways you could use this object. Keep in mind that one object can have many uses. Separate your responses with a comma.",,y,73929,,,1401,71454,,,,"used to take notes, run a business, assist the CEO of a business",1
w10091258_kj,6xdjqblqnd,"BOI Norms",1,41,2020-11-16T11:46:20-08:00,2.0746879577637,22,"updated stim.csv",Version47.csv,"Version 47","List 47",,,,,,0,Instruct,,,"You will now be asked a few questions about your experience today.",,"Instruct 4",1673,,,-1,-1,,,,,1
