Username,ID,ExperimentName,Session,Trial,Date,TimeDif,"Condition Number","Stimuli File","Order File","Condition Description","Condition Notes",Stimuli*Cue,Stimuli*Answer,Stimuli*Shuffle,"Stimuli*Stimuli Notes",Stimuli*Value,Procedure*Item,"Procedure*Trial Type","Procedure*Max Time","Procedure*Min Time",Procedure*Text,"Procedure*Procedure Notes",Procedure*Shuffle,Response*RT,Response*Response,Response*Accuracy,Response*RTfirst,Response*RTlast,Response*strictAcc,Response*lenientAcc,Response*focus,Response*JOL,Response*Focus
w10046000_clt,pcka8185bl,"BOI Norms",1,1,2020-10-16T19:07:15-07:00,11.515957117081,17,"updated stim.csv",Version67.csv,"Version 67","List 67",,,,,,0,Instruct,-,10,"In this section, you will be presented with a series of objects. Please name as many possible uses for this object as you can think of by typing them in the box below each object.",,Instruct1,10984,,,-1,-1,,,,,1
w10046000_clt,pcka8185bl,"BOI Norms",1,2,2020-10-16T19:07:27-07:00,11.640847921371,17,"updated stim.csv",Version67.csv,"Version 67","List 67",,,,,,0,Instruct,-,10,"Please keep in mind that a single object will have more than one use. For example, a ball can be thrown or can be bounced or even stepped on. When listing multiple uses for one object, please separate each use with a comma (i.e., thrown, bounced, stepped on)",,Instruct2,10910,,,-1,-1,,,,,1
w10046000_clt,pcka8185bl,"BOI Norms",1,3,2020-10-16T19:07:31-07:00,4.3986790180206,17,"updated stim.csv",Version67.csv,"Version 67","List 67",,,,,,0,Instruct,-,-,"Before starting the experiment, you will complete a short practice sesstion. Press ENTER when you are ready to begin.",,Instruct3,3678,,,-1,-1,,,,,1
w10046000_clt,pcka8185bl,"BOI Norms",1,4,2020-10-16T19:07:50-07:00,19.38264799118,17,"updated stim.csv",Version67.csv,"Version 67","List 67",shortening,,3002,4.92,2358,3003,BOI,-,-,"Please name all of the ways you could use this object. Keep in mind that one object can have many uses. Separate your responses with a comma.",,n,18685,,,3105,9616,,,,"cooking, eating",1
w10046000_clt,pcka8185bl,"BOI Norms",1,5,2020-10-16T19:08:04-07:00,13.664263963699,17,"updated stim.csv",Version67.csv,"Version 67","List 67",grain,,3004,5.217391304,1143,3005,BOI,-,-,"Please name all of the ways you could use this object. Keep in mind that one object can have many uses. Separate your responses with a comma.",,n,12110,,,3547,10614,,,,"bread, cooking, eating",1
w10046000_clt,pcka8185bl,"BOI Norms",1,6,2020-10-16T19:08:29-07:00,25.178346157074,17,"updated stim.csv",Version67.csv,"Version 67","List 67",paperwork,,3001,5.625,1866,3002,BOI,-,-,"Please name all of the ways you could use this object. Keep in mind that one object can have many uses. Separate your responses with a comma.",,n,24539,,,10813,21624,,,,"writing, crumple, tear, ",1
w10046000_clt,pcka8185bl,"BOI Norms",1,7,2020-10-16T19:08:40-07:00,11.075476884842,17,"updated stim.csv",Version67.csv,"Version 67","List 67",saucer,,3005,5.777777778,2249,3006,BOI,-,-,"Please name all of the ways you could use this object. Keep in mind that one object can have many uses. Separate your responses with a comma.",,n,10402,,,6175,10019,,,,"flying, space, alien",1
w10046000_clt,pcka8185bl,"BOI Norms",1,8,2020-10-16T19:08:57-07:00,16.680318117142,17,"updated stim.csv",Version67.csv,"Version 67","List 67",spaghetti,,3003,6,2461,3004,BOI,-,-,"Please name all of the ways you could use this object. Keep in mind that one object can have many uses. Separate your responses with a comma.",,n,15143,,,1909,14691,,,,"cooking, eating, slurping",1
w10046000_clt,pcka8185bl,"BOI Norms",1,9,2020-10-16T19:09:00-07:00,2.4562549591064,17,"updated stim.csv",Version67.csv,"Version 67","List 67",,,,,,0,Instruct,-,-,"You have completed this section. Press ENTER to continue",,"Instruct 5",1655,,,-1,-1,,,,,1
w10046000_clt,pcka8185bl,"BOI Norms",1,10,2020-10-16T19:09:03-07:00,3.8799860477448,17,"updated stim.csv",Version67.csv,"Version 67","List 67",,,,,,0,Instruct,-,-,"You will now start the full experiment. Press ENTER when you are ready to begin.",,,3244,,,-1,-1,,,,,1
w10046000_clt,pcka8185bl,"BOI Norms",1,11,2020-10-16T19:09:22-07:00,18.14616394043,17,"updated stim.csv",Version67.csv,"Version 67","List 67",tableware,,1997,6.083333333,2620,1998,BOI,-,-,"Please name all of the ways you could use this object. Keep in mind that one object can have many uses. Separate your responses with a comma.",,y,17365,,,2048,16594,,,,"eating, clanking, annoy, squeak ",1
w10046000_clt,pcka8185bl,"BOI Norms",1,12,2020-10-16T19:09:31-07:00,9.2334768772125,17,"updated stim.csv",Version67.csv,"Version 67","List 67",milk,,2001,5.956521739,1660,2002,BOI,-,-,"Please name all of the ways you could use this object. Keep in mind that one object can have many uses. Separate your responses with a comma.",,y,8532,,,1878,7642,,,,"drink, spoil, eat",1
w10046000_clt,pcka8185bl,"BOI Norms",1,13,2020-10-16T19:09:40-07:00,9.1181390285492,17,"updated stim.csv",Version67.csv,"Version 67","List 67",street,,1992,4.708333333,2563,1993,BOI,-,-,"Please name all of the ways you could use this object. Keep in mind that one object can have many uses. Separate your responses with a comma.",,y,8330,,,1794,7241,,,,"walking, running",1
w10046000_clt,pcka8185bl,"BOI Norms",1,14,2020-10-16T19:09:47-07:00,7.4401531219482,17,"updated stim.csv",Version67.csv,"Version 67","List 67",suds,,1986,4.652173913,2578,1987,BOI,-,-,"Please name all of the ways you could use this object. Keep in mind that one object can have many uses. Separate your responses with a comma.",,y,6678,,,3189,6114,,,,"bathtub, soap",1
w10046000_clt,pcka8185bl,"BOI Norms",1,15,2020-10-16T19:10:00-07:00,12.841050863266,17,"updated stim.csv",Version67.csv,"Version 67","List 67",plexiglas,,1984,5.041666667,2006,1985,BOI,-,-,"Please name all of the ways you could use this object. Keep in mind that one object can have many uses. Separate your responses with a comma.",,y,12209,,,3415,6080,,,,"protection, ",1
w10046000_clt,pcka8185bl,"BOI Norms",1,16,2020-10-16T19:10:11-07:00,10.516400098801,17,"updated stim.csv",Version67.csv,"Version 67","List 67",crane,,1985,4.695652174,681,1986,BOI,-,-,"Please name all of the ways you could use this object. Keep in mind that one object can have many uses. Separate your responses with a comma.",,y,9809,,,1914,9281,,,,"construction, reach, lift",1
w10046000_clt,pcka8185bl,"BOI Norms",1,17,2020-10-16T19:10:33-07:00,22.337147951126,17,"updated stim.csv",Version67.csv,"Version 67","List 67",shopkeeper,,2010,4.555555556,2353,2011,BOI,-,-,"Please name all of the ways you could use this object. Keep in mind that one object can have many uses. Separate your responses with a comma.",,y,21726,,,12302,20977,,,,"eyeful, manage",1
w10046000_clt,pcka8185bl,"BOI Norms",1,18,2020-10-16T19:10:50-07:00,17.155764102936,17,"updated stim.csv",Version67.csv,"Version 67","List 67",shoulder,,1998,5.869565217,2362,1999,BOI,-,-,"Please name all of the ways you could use this object. Keep in mind that one object can have many uses. Separate your responses with a comma.",,y,14098,,,3502,12949,,,,"protection, connection, rotation, flex",1
w10046000_clt,pcka8185bl,"BOI Norms",1,19,2020-10-16T19:11:07-07:00,16.518692016602,17,"updated stim.csv",Version67.csv,"Version 67","List 67",doorstop,,1996,5.260869565,829,1997,BOI,-,-,"Please name all of the ways you could use this object. Keep in mind that one object can have many uses. Separate your responses with a comma.",,y,15834,,,3588,11612,,,,"assistance, step on, ",1
w10046000_clt,pcka8185bl,"BOI Norms",1,20,2020-10-16T19:11:26-07:00,18.924649000168,17,"updated stim.csv",Version67.csv,"Version 67","List 67",peg,,1995,4.391304348,1908,1996,BOI,-,-,"Please name all of the ways you could use this object. Keep in mind that one object can have many uses. Separate your responses with a comma.",,y,18415,,,4515,17593,,,,"hang, hold",1
w10046000_clt,pcka8185bl,"BOI Norms",1,21,2020-10-16T19:11:37-07:00,11.470225811005,17,"updated stim.csv",Version67.csv,"Version 67","List 67",chauffeur,,2004,4.84,498,2005,BOI,-,-,"Please name all of the ways you could use this object. Keep in mind that one object can have many uses. Separate your responses with a comma.",,y,10747,,,3100,10387,,,,"tourguide, helper",1
w10046000_clt,pcka8185bl,"BOI Norms",1,22,2020-10-16T19:11:50-07:00,12.878206014633,17,"updated stim.csv",Version67.csv,"Version 67","List 67",grater,,2006,4.92,1162,2007,BOI,-,-,"Please name all of the ways you could use this object. Keep in mind that one object can have many uses. Separate your responses with a comma.",,y,11139,,,4639,10870,,,,"slicer, chopper",1
w10046000_clt,pcka8185bl,"BOI Norms",1,23,2020-10-16T19:12:00-07:00,9.6024391651154,17,"updated stim.csv",Version67.csv,"Version 67","List 67",tartar,,1999,4.48,2636,2000,BOI,-,-,"Please name all of the ways you could use this object. Keep in mind that one object can have many uses. Separate your responses with a comma.",,y,9048,,,5044,8805,,,,"eating, cooking",1
w10046000_clt,pcka8185bl,"BOI Norms",1,24,2020-10-16T19:12:15-07:00,15.634158849716,17,"updated stim.csv",Version67.csv,"Version 67","List 67",leg,,1981,5.875,1486,1982,BOI,-,-,"Please name all of the ways you could use this object. Keep in mind that one object can have many uses. Separate your responses with a comma.",,y,15165,,,1825,14723,,,,"protection, extend, walk, run",1
w10046000_clt,pcka8185bl,"BOI Norms",1,25,2020-10-16T19:12:24-07:00,8.3397691249847,17,"updated stim.csv",Version67.csv,"Version 67","List 67",nightclub,,1988,4.409090909,1768,1989,BOI,-,-,"Please name all of the ways you could use this object. Keep in mind that one object can have many uses. Separate your responses with a comma.",,y,7751,,,1967,7350,,,,"dance, drink, party",1
w10046000_clt,pcka8185bl,"BOI Norms",1,26,2020-10-16T19:12:37-07:00,13.297451019287,17,"updated stim.csv",Version67.csv,"Version 67","List 67",pennant,,2002,5.153846154,1916,2003,BOI,-,-,"Please name all of the ways you could use this object. Keep in mind that one object can have many uses. Separate your responses with a comma.",,y,12471,,,10657,11652,,,,write,1
w10046000_clt,pcka8185bl,"BOI Norms",1,27,2020-10-16T19:12:49-07:00,12.475929021835,17,"updated stim.csv",Version67.csv,"Version 67","List 67",cauldron,,1982,4.8,465,1983,BOI,-,-,"Please name all of the ways you could use this object. Keep in mind that one object can have many uses. Separate your responses with a comma.",,y,11337,,,3661,10973,,,,"brew, potion, witch",1
w10046000_clt,pcka8185bl,"BOI Norms",1,28,2020-10-16T19:13:05-07:00,15.678759813309,17,"updated stim.csv",Version67.csv,"Version 67","List 67",catalogue,,2009,5.916666667,456,2010,BOI,-,-,"Please name all of the ways you could use this object. Keep in mind that one object can have many uses. Separate your responses with a comma.",,y,14997,,,2510,10014,,,,"read, look, ",1
w10046000_clt,pcka8185bl,"BOI Norms",1,29,2020-10-16T19:13:20-07:00,14.779275178909,17,"updated stim.csv",Version67.csv,"Version 67","List 67",volleyball,,2003,6.52,2873,2004,BOI,-,-,"Please name all of the ways you could use this object. Keep in mind that one object can have many uses. Separate your responses with a comma.",,y,13288,,,2708,12855,,,,"hit, thrown, sat on, stomped",1
w10046000_clt,pcka8185bl,"BOI Norms",1,30,2020-10-16T19:13:28-07:00,7.809387922287,17,"updated stim.csv",Version67.csv,"Version 67","List 67",hairdo,,1983,5.08,1211,1984,BOI,-,-,"Please name all of the ways you could use this object. Keep in mind that one object can have many uses. Separate your responses with a comma.",,y,7100,,,5480,6324,,,,style,1
w10046000_clt,pcka8185bl,"BOI Norms",1,31,2020-10-16T19:13:37-07:00,9.208132982254,17,"updated stim.csv",Version67.csv,"Version 67","List 67",spacesuit,,1989,4.814814815,2459,1990,BOI,-,-,"Please name all of the ways you could use this object. Keep in mind that one object can have many uses. Separate your responses with a comma.",,y,8678,,,1788,8382,,,,"protection, breathing",1
w10046000_clt,pcka8185bl,"BOI Norms",1,32,2020-10-16T19:13:49-07:00,11.709247112274,17,"updated stim.csv",Version67.csv,"Version 67","List 67",road,,1987,5.896551724,2176,1988,BOI,-,-,"Please name all of the ways you could use this object. Keep in mind that one object can have many uses. Separate your responses with a comma.",,y,10967,,,2011,7989,,,,"walking, driving, running, ",1
w10046000_clt,pcka8185bl,"BOI Norms",1,33,2020-10-16T19:13:57-07:00,8.775013923645,17,"updated stim.csv",Version67.csv,"Version 67","List 67",female,,1994,5.689655172,960,1995,BOI,-,-,"Please name all of the ways you could use this object. Keep in mind that one object can have many uses. Separate your responses with a comma.",,y,8065,,,7046,7467,,,,love,1
w10046000_clt,pcka8185bl,"BOI Norms",1,34,2020-10-16T19:14:07-07:00,9.8312690258026,17,"updated stim.csv",Version67.csv,"Version 67","List 67",medics,,2008,4.28,1639,2009,BOI,-,-,"Please name all of the ways you could use this object. Keep in mind that one object can have many uses. Separate your responses with a comma.",,y,9015,,,3182,8647,,,,"assistance, helpers, healers",1
w10046000_clt,pcka8185bl,"BOI Norms",1,35,2020-10-16T19:14:16-07:00,8.6346590518951,17,"updated stim.csv",Version67.csv,"Version 67","List 67",editor,,1993,4.5,889,1994,BOI,-,-,"Please name all of the ways you could use this object. Keep in mind that one object can have many uses. Separate your responses with a comma.",,y,7734,,,2511,4737,,,,writing,1
w10046000_clt,pcka8185bl,"BOI Norms",1,36,2020-10-16T19:14:46-07:00,30.615074872971,17,"updated stim.csv",Version67.csv,"Version 67","List 67",footwear,,2005,6.434782609,1040,2006,BOI,-,-,"Please name all of the ways you could use this object. Keep in mind that one object can have many uses. Separate your responses with a comma.",,y,13963,,,9107,13594,,,,"protection, support",0.457
w10046000_clt,pcka8185bl,"BOI Norms",1,37,2020-10-16T19:14:52-07:00,5.953840970993,17,"updated stim.csv",Version67.csv,"Version 67","List 67",pizza,,1990,6.541666667,1982,1991,BOI,-,-,"Please name all of the ways you could use this object. Keep in mind that one object can have many uses. Separate your responses with a comma.",,y,4920,,,2563,4647,,,,"eating, cooking",1
w10046000_clt,pcka8185bl,"BOI Norms",1,38,2020-10-16T19:15:03-07:00,10.741770029068,17,"updated stim.csv",Version67.csv,"Version 67","List 67",magnolia,,1991,5.416666667,1573,1992,BOI,-,-,"Please name all of the ways you could use this object. Keep in mind that one object can have many uses. Separate your responses with a comma.",,y,9890,,,2996,9603,,,,"smell, decoration",1
w10046000_clt,pcka8185bl,"BOI Norms",1,39,2020-10-16T19:15:14-07:00,10.692009925842,17,"updated stim.csv",Version67.csv,"Version 67","List 67",whiskey,,2000,6.08,2930,2001,BOI,-,-,"Please name all of the ways you could use this object. Keep in mind that one object can have many uses. Separate your responses with a comma.",,y,8679,,,2666,8333,,,,"drink, enjoy",1
w10046000_clt,pcka8185bl,"BOI Norms",1,40,2020-10-16T19:15:38-07:00,24.029513120651,17,"updated stim.csv",Version67.csv,"Version 67","List 67",skeleton,,2007,4.347826087,2392,2008,BOI,-,-,"Please name all of the ways you could use this object. Keep in mind that one object can have many uses. Separate your responses with a comma.",,y,18804,,,3563,9588,,,,"protection, support, ",1
w10046000_clt,pcka8185bl,"BOI Norms",1,41,2020-10-16T19:15:41-07:00,3.557275056839,17,"updated stim.csv",Version67.csv,"Version 67","List 67",,,,,,0,Instruct,,,"You will now be asked a few questions about your experience today.",,"Instruct 4",2746,,,-1,-1,,,,,1
