Username,ID,ExperimentName,Session,Trial,Date,TimeDif,"Condition Number","Stimuli File","Order File","Condition Description","Condition Notes",Stimuli*Cue,Stimuli*Answer,Stimuli*Shuffle,"Stimuli*Stimuli Notes",Stimuli*Value,Procedure*Item,"Procedure*Trial Type","Procedure*Max Time","Procedure*Min Time",Procedure*Text,"Procedure*Procedure Notes",Procedure*Shuffle,Response*RT,Response*Response,Response*Accuracy,Response*RTfirst,Response*RTlast,Response*strictAcc,Response*lenientAcc,Response*focus,Response*JOL,Response*Focus
w980000LF,ulhpxapge4,"BOI Norms",1,1,2020-09-15T08:10:48-07:00,11.241347074509,7,"updated stim.csv",Version7.csv,"Version 7","List 7",,,,,,0,Instruct,-,10,"In this section, you will be presented with a series of objects. Please name as many possible uses for this object as you can think of by typing them in the box below each object.",,Instruct1,10909,,,-1,-1,,,,,1
w980000LF,ulhpxapge4,"BOI Norms",1,2,2020-09-15T08:11:00-07:00,11.305848121643,7,"updated stim.csv",Version7.csv,"Version 7","List 7",,,,,,0,Instruct,-,10,"Please keep in mind that a single object will have more than one use. For example, a ball can be thrown or can be bounced or even stepped on. When listing multiple uses for one object, please separate each use with a comma (i.e., thrown, bounced, stepped on)",,Instruct2,10868,,,-1,-1,,,,,1
w980000LF,ulhpxapge4,"BOI Norms",1,3,2020-09-15T08:11:02-07:00,2.4212369918823,7,"updated stim.csv",Version7.csv,"Version 7","List 7",,,,,,0,Instruct,-,-,"Before starting the experiment, you will complete a short practice sesstion. Press ENTER when you are ready to begin.",,Instruct3,2037,,,-1,-1,,,,,1
w980000LF,ulhpxapge4,"BOI Norms",1,4,2020-09-15T08:11:36-07:00,34.235574960709,7,"updated stim.csv",Version7.csv,"Version 7","List 7",shortening,,3002,4.92,2358,3003,BOI,-,-,"Please name all of the ways you could use this object. Keep in mind that one object can have many uses. Separate your responses with a comma.",,n,33023,,,3877,21757,,,,"pour, shake, sprinkle, scoop",1
w980000LF,ulhpxapge4,"BOI Norms",1,5,2020-09-15T08:12:17-07:00,40.587422847748,7,"updated stim.csv",Version7.csv,"Version 7","List 7",grain,,3004,5.217391304,1143,3005,BOI,-,-,"Please name all of the ways you could use this object. Keep in mind that one object can have many uses. Separate your responses with a comma.",,n,40163,,,3508,35780,,,,"pick up, throw, drop",1
w980000LF,ulhpxapge4,"BOI Norms",1,6,2020-09-15T08:12:54-07:00,37.487560987473,7,"updated stim.csv",Version7.csv,"Version 7","List 7",spaghetti,,3003,6,2461,3004,BOI,-,-,"Please name all of the ways you could use this object. Keep in mind that one object can have many uses. Separate your responses with a comma.",,n,37090,,,2057,22446,,,,"slurp, eat, twirl, push",1
w980000LF,ulhpxapge4,"BOI Norms",1,7,2020-09-15T08:13:35-07:00,40.568973064423,7,"updated stim.csv",Version7.csv,"Version 7","List 7",paperwork,,3001,5.625,1866,3002,BOI,-,-,"Please name all of the ways you could use this object. Keep in mind that one object can have many uses. Separate your responses with a comma.",,n,40144,,,2323,39143,,,,"stack, flip, fold, pick up, set down, read, write on",1
w980000LF,ulhpxapge4,"BOI Norms",1,8,2020-09-15T08:13:59-07:00,24.217823028564,7,"updated stim.csv",Version7.csv,"Version 7","List 7",saucer,,3005,5.777777778,2249,3006,BOI,-,-,"Please name all of the ways you could use this object. Keep in mind that one object can have many uses. Separate your responses with a comma.",,n,23792,,,2846,22629,,,,"pour, grasp, raise, stir, collect, tip",1
w980000LF,ulhpxapge4,"BOI Norms",1,9,2020-09-15T08:14:01-07:00,1.9225599765778,7,"updated stim.csv",Version7.csv,"Version 7","List 7",,,,,,0,Instruct,-,-,"You have completed this section. Press ENTER to continue",,"Instruct 5",1530,,,-1,-1,,,,,1
w980000LF,ulhpxapge4,"BOI Norms",1,10,2020-09-15T08:14:03-07:00,1.9438810348511,7,"updated stim.csv",Version7.csv,"Version 7","List 7",,,,,,0,Instruct,-,-,"You will now start the full experiment. Press ENTER when you are ready to begin.",,,1525,,,-1,-1,,,,,1
w980000LF,ulhpxapge4,"BOI Norms",1,11,2020-09-15T08:14:45-07:00,42.229260921478,7,"updated stim.csv",Version7.csv,"Version 7","List 7",motorboat,,182,5.304347826,1695,183,BOI,-,-,"Please name all of the ways you could use this object. Keep in mind that one object can have many uses. Separate your responses with a comma.",,y,41805,,,5134,37778,,,,"drive, steer, propel, turn",1
w980000LF,ulhpxapge4,"BOI Norms",1,12,2020-09-15T08:15:22-07:00,37.205260038376,7,"updated stim.csv",Version7.csv,"Version 7","List 7",storeroom,,191,4.655172414,2553,192,BOI,-,-,"Please name all of the ways you could use this object. Keep in mind that one object can have many uses. Separate your responses with a comma.",,y,36820,,,8016,19541,,,,"store, hold, contain",1
w980000LF,ulhpxapge4,"BOI Norms",1,13,2020-09-15T08:15:58-07:00,35.426082134247,7,"updated stim.csv",Version7.csv,"Version 7","List 7",Guitar,,193,6.293243243,1193,194,BOI,-,-,"Please name all of the ways you could use this object. Keep in mind that one object can have many uses. Separate your responses with a comma.",,y,34974,,,1779,33701,,,,"pick, strum, hold, set down, rest, tune, play, smash",1
w980000LF,ulhpxapge4,"BOI Norms",1,14,2020-09-15T08:16:40-07:00,41.737035989761,7,"updated stim.csv",Version7.csv,"Version 7","List 7",eyelid,,196,5.52173913,936,197,BOI,-,-,"Please name all of the ways you could use this object. Keep in mind that one object can have many uses. Separate your responses with a comma.",,y,41286,,,1332,40203,,,,"close, blink, lower, raise, flutter",1
w980000LF,ulhpxapge4,"BOI Norms",1,15,2020-09-15T08:17:02-07:00,22.428781986237,7,"updated stim.csv",Version7.csv,"Version 7","List 7",kilt,,195,5.04,1418,196,BOI,-,-,"Please name all of the ways you could use this object. Keep in mind that one object can have many uses. Separate your responses with a comma.",,y,22013,,,2237,17609,,,,"wear, put on, take off, twirl",1
w980000LF,ulhpxapge4,"BOI Norms",1,16,2020-09-15T08:17:25-07:00,22.503842830658,7,"updated stim.csv",Version7.csv,"Version 7","List 7",eyebath,,199,4.368421053,931,200,BOI,-,-,"Please name all of the ways you could use this object. Keep in mind that one object can have many uses. Separate your responses with a comma.",,y,22093,,,3647,20890,,,,"flush, clean, wash",1
w980000LF,ulhpxapge4,"BOI Norms",1,17,2020-09-15T08:17:58-07:00,33.571408987045,7,"updated stim.csv",Version7.csv,"Version 7","List 7",person,,198,6.12,1930,199,BOI,-,-,"Please name all of the ways you could use this object. Keep in mind that one object can have many uses. Separate your responses with a comma.",,y,33172,,,3060,31832,,,,"greet, talk to, shake hand, hug, befriend, hit",1
w980000LF,ulhpxapge4,"BOI Norms",1,18,2020-09-15T08:18:25-07:00,26.665824174881,7,"updated stim.csv",Version7.csv,"Version 7","List 7",cheese,,187,6.391304348,506,188,BOI,-,-,"Please name all of the ways you could use this object. Keep in mind that one object can have many uses. Separate your responses with a comma.",,y,26231,,,1530,23861,,,,"eat, slice, melt, sprinkle, shred, mix",1
w980000LF,ulhpxapge4,"BOI Norms",1,19,2020-09-15T08:18:59-07:00,34.518590927124,7,"updated stim.csv",Version7.csv,"Version 7","List 7",people,,205,6.076923077,1920,206,BOI,-,-,"Please name all of the ways you could use this object. Keep in mind that one object can have many uses. Separate your responses with a comma.",,y,34114,,,4880,32922,,,,"talk to, befriend, work",1
w980000LF,ulhpxapge4,"BOI Norms",1,20,2020-09-15T08:19:30-07:00,31.071829080582,7,"updated stim.csv",Version7.csv,"Version 7","List 7",suspender,,194,5.76,2598,195,BOI,-,-,"Please name all of the ways you could use this object. Keep in mind that one object can have many uses. Separate your responses with a comma.",,y,30669,,,3482,29344,,,,"hold up, put on, take off, clip, stretch, slip off, push up, adjust, snap",1
w980000LF,ulhpxapge4,"BOI Norms",1,21,2020-09-15T08:19:57-07:00,26.343916893005,7,"updated stim.csv",Version7.csv,"Version 7","List 7",peanut,,185,6.192307692,1893,186,BOI,-,-,"Please name all of the ways you could use this object. Keep in mind that one object can have many uses. Separate your responses with a comma.",,y,25846,,,1623,21975,,,,"eat, crush, cook, throw, unshell",1
w980000LF,ulhpxapge4,"BOI Norms",1,22,2020-09-15T08:20:26-07:00,29.072735071182,7,"updated stim.csv",Version7.csv,"Version 7","List 7",salesman,,206,4.84,2222,207,BOI,-,-,"Please name all of the ways you could use this object. Keep in mind that one object can have many uses. Separate your responses with a comma.",,y,28671,,,4069,20775,,,,"listen to, ask question, buy from",1
w980000LF,ulhpxapge4,"BOI Norms",1,23,2020-09-15T08:21:14-07:00,47.868144989014,7,"updated stim.csv",Version7.csv,"Version 7","List 7",medic,,207,5.217391304,1636,208,BOI,-,-,"Please name all of the ways you could use this object. Keep in mind that one object can have many uses. Separate your responses with a comma.",,y,47436,,,13444,46097,,,,"get medical care, ask questions, ask for help, get medicine",1
w980000LF,ulhpxapge4,"BOI Norms",1,24,2020-09-15T08:21:46-07:00,32.778493881226,7,"updated stim.csv",Version7.csv,"Version 7","List 7",tent,,189,5.5,2664,190,BOI,-,-,"Please name all of the ways you could use this object. Keep in mind that one object can have many uses. Separate your responses with a comma.",,y,32348,,,2666,31067,,,,"pitch, take down, zip, lay in, sit in, unzip",1
w980000LF,ulhpxapge4,"BOI Norms",1,25,2020-09-15T08:22:16-07:00,29.087118148804,7,"updated stim.csv",Version7.csv,"Version 7","List 7",grandniece,,192,4.708333333,1150,193,BOI,-,-,"Please name all of the ways you could use this object. Keep in mind that one object can have many uses. Separate your responses with a comma.",,y,28676,,,2180,21548,,,,"talk to, play with, teach, hug, kiss, read to",1
w980000LF,ulhpxapge4,"BOI Norms",1,26,2020-09-15T08:22:54-07:00,38.219037055969,7,"updated stim.csv",Version7.csv,"Version 7","List 7",store,,204,5.739130435,2550,205,BOI,-,-,"Please name all of the ways you could use this object. Keep in mind that one object can have many uses. Separate your responses with a comma.",,y,37809,,,1521,34723,,,,"shop, walk around, push cart, buy items, return items, check out",1
w980000LF,ulhpxapge4,"BOI Norms",1,27,2020-09-15T08:23:38-07:00,44.087917804718,7,"updated stim.csv",Version7.csv,"Version 7","List 7",mucous,,184,5.04,1708,185,BOI,-,-,"Please name all of the ways you could use this object. Keep in mind that one object can have many uses. Separate your responses with a comma.",,y,43607,,,7904,29941,,,,"wipe away, clean, blow into tissue",1
w980000LF,ulhpxapge4,"BOI Norms",1,28,2020-09-15T08:24:10-07:00,32.503926038742,7,"updated stim.csv",Version7.csv,"Version 7","List 7",conductor,,203,4.75,624,204,BOI,-,-,"Please name all of the ways you could use this object. Keep in mind that one object can have many uses. Separate your responses with a comma.",,y,32096,,,3004,31014,,,,"drive train, blow horn, steer train, stop train, open train door, close train door",1
w980000LF,ulhpxapge4,"BOI Norms",1,29,2020-09-15T08:24:37-07:00,26.376698970795,7,"updated stim.csv",Version7.csv,"Version 7","List 7",grapevine,,186,4.869565217,1158,187,BOI,-,-,"Please name all of the ways you could use this object. Keep in mind that one object can have many uses. Separate your responses with a comma.",,y,25962,,,3896,22795,,,,"grow, ripen, hold, spread",1
w980000LF,ulhpxapge4,"BOI Norms",1,30,2020-09-15T08:24:59-07:00,22.227307081223,7,"updated stim.csv",Version7.csv,"Version 7","List 7",radish,,188,5.846153846,2124,189,BOI,-,-,"Please name all of the ways you could use this object. Keep in mind that one object can have many uses. Separate your responses with a comma.",,y,21815,,,1465,12440,,,,"eat, cook, chop, slice, cut",1
w980000LF,ulhpxapge4,"BOI Norms",1,31,2020-09-15T08:25:14-07:00,14.976222991943,7,"updated stim.csv",Version7.csv,"Version 7","List 7",cushion,,190,5.75,733,191,BOI,-,-,"Please name all of the ways you could use this object. Keep in mind that one object can have many uses. Separate your responses with a comma.",,y,14552,,,1364,12538,,,,"sit, place, pick up, lay on, stack",1
w980000LF,ulhpxapge4,"BOI Norms",1,32,2020-09-15T08:25:31-07:00,16.84697508812,7,"updated stim.csv",Version7.csv,"Version 7","List 7",controller,,202,5.458333333,630,203,BOI,-,-,"Please name all of the ways you could use this object. Keep in mind that one object can have many uses. Separate your responses with a comma.",,y,16455,,,1326,8117,,,,"hold, press, put down",1
w980000LF,ulhpxapge4,"BOI Norms",1,33,2020-09-15T08:25:47-07:00,16.190081834793,7,"updated stim.csv",Version7.csv,"Version 7","List 7",banquet,,201,4.538461538,145,202,BOI,-,-,"Please name all of the ways you could use this object. Keep in mind that one object can have many uses. Separate your responses with a comma.",,y,15788,,,1726,9066,,,,"eat, sit, talk, drink",1
w980000LF,ulhpxapge4,"BOI Norms",1,34,2020-09-15T08:26:07-07:00,19.685557126999,7,"updated stim.csv",Version7.csv,"Version 7","List 7",silk,,181,4.8,2381,182,BOI,-,-,"Please name all of the ways you could use this object. Keep in mind that one object can have many uses. Separate your responses with a comma.",,y,19288,,,1586,17786,,,,"touch, wear, sew, drape, wrap, decorate",1
w980000LF,ulhpxapge4,"BOI Norms",1,35,2020-09-15T08:26:32-07:00,25.318301916122,7,"updated stim.csv",Version7.csv,"Version 7","List 7",pad,,210,5.217391304,1840,211,BOI,-,-,"Please name all of the ways you could use this object. Keep in mind that one object can have many uses. Separate your responses with a comma.",,y,24917,,,1533,23794,,,,"wear, cover, touch",1
w980000LF,ulhpxapge4,"BOI Norms",1,36,2020-09-15T08:26:57-07:00,24.928846120834,7,"updated stim.csv",Version7.csv,"Version 7","List 7",funnel,,209,4.833333333,1065,210,BOI,-,-,"Please name all of the ways you could use this object. Keep in mind that one object can have many uses. Separate your responses with a comma.",,y,24509,,,2517,18817,,,,"put inside, hold, pour",1
w980000LF,ulhpxapge4,"BOI Norms",1,37,2020-09-15T08:27:16-07:00,19.346097946167,7,"updated stim.csv",Version7.csv,"Version 7","List 7",mulch,,208,4.625,1715,209,BOI,-,-,"Please name all of the ways you could use this object. Keep in mind that one object can have many uses. Separate your responses with a comma.",,y,18952,,,4614,17886,,,,"spread, plant, put on ground",1
w980000LF,ulhpxapge4,"BOI Norms",1,38,2020-09-15T08:27:37-07:00,20.585284948349,7,"updated stim.csv",Version7.csv,"Version 7","List 7",goldfish,,197,4.739130435,1133,198,BOI,-,-,"Please name all of the ways you could use this object. Keep in mind that one object can have many uses. Separate your responses with a comma.",,y,20165,,,2426,16409,,,,"name, put in tank, feed, look at",1
w980000LF,ulhpxapge4,"BOI Norms",1,39,2020-09-15T08:28:01-07:00,23.910274982452,7,"updated stim.csv",Version7.csv,"Version 7","List 7",daddy,,183,5.24,745,184,BOI,-,-,"Please name all of the ways you could use this object. Keep in mind that one object can have many uses. Separate your responses with a comma.",,y,23506,,,3110,22383,,,,"hug, talk to, text, love",1
w980000LF,ulhpxapge4,"BOI Norms",1,40,2020-09-15T08:28:35-07:00,34.665751934052,7,"updated stim.csv",Version7.csv,"Version 7","List 7",pine,,200,4.347826087,1970,201,BOI,-,-,"Please name all of the ways you could use this object. Keep in mind that one object can have many uses. Separate your responses with a comma.",,y,34239,,,5884,32285,,,,"lean against, cut down, build, hang something off of",1
w980000LF,ulhpxapge4,"BOI Norms",1,41,2020-09-15T08:28:38-07:00,2.2315030097961,7,"updated stim.csv",Version7.csv,"Version 7","List 7",,,,,,0,Instruct,,,"You will now be asked a few questions about your experience today.",,"Instruct 4",1779,,,-1,-1,,,,,1
