Username,ID,ExperimentName,Session,Trial,Date,TimeDif,"Condition Number","Stimuli File","Order File","Condition Description","Condition Notes",Stimuli*Cue,Stimuli*Answer,Stimuli*Shuffle,"Stimuli*Stimuli Notes",Stimuli*Value,Procedure*Item,"Procedure*Trial Type","Procedure*Max Time","Procedure*Min Time",Procedure*Text,"Procedure*Procedure Notes",Procedure*Shuffle,Response*RT,Response*Response,Response*Accuracy,Response*RTfirst,Response*RTlast,Response*strictAcc,Response*lenientAcc,Response*focus,Response*JOL,Response*Focus
w10079997,2tdbb06z26,"BOI Norms",1,1,2020-11-05T12:03:26-08:00,11.51935505867,25,"updated stim.csv",Version100.csv,"Version 100","List 100",,,,,,0,Instruct,-,10,"In this section, you will be presented with a series of objects. Please name as many possible uses for this object as you can think of by typing them in the box below each object.",,Instruct1,11366,,,-1,-1,,,,,1
w10079997,2tdbb06z26,"BOI Norms",1,2,2020-11-05T12:03:38-08:00,12.150758981705,25,"updated stim.csv",Version100.csv,"Version 100","List 100",,,,,,0,Instruct,-,10,"Please keep in mind that a single object will have more than one use. For example, a ball can be thrown or can be bounced or even stepped on. When listing multiple uses for one object, please separate each use with a comma (i.e., thrown, bounced, stepped on)",,Instruct2,11892,,,-1,-1,,,,,1
w10079997,2tdbb06z26,"BOI Norms",1,3,2020-11-05T12:03:45-08:00,6.5068590641022,25,"updated stim.csv",Version100.csv,"Version 100","List 100",,,,,,0,Instruct,-,-,"Before starting the experiment, you will complete a short practice sesstion. Press ENTER when you are ready to begin.",,Instruct3,6273,,,-1,-1,,,,,1
w10079997,2tdbb06z26,"BOI Norms",1,4,2020-11-05T12:04:36-08:00,50.918231010437,25,"updated stim.csv",Version100.csv,"Version 100","List 100",paperwork,,3001,5.625,1866,3002,BOI,-,-,"Please name all of the ways you could use this object. Keep in mind that one object can have many uses. Separate your responses with a comma.",,n,50687,,,2310,49469,,,,"type, file, shred, handwrite, store, throw away, print",1
w10079997,2tdbb06z26,"BOI Norms",1,5,2020-11-05T12:05:05-08:00,29.028759002686,25,"updated stim.csv",Version100.csv,"Version 100","List 100",grain,,3004,5.217391304,1143,3005,BOI,-,-,"Please name all of the ways you could use this object. Keep in mind that one object can have many uses. Separate your responses with a comma.",,n,28780,,,5910,27565,,,,"grow, bake, mix, cook, fry, sell, buy",1
w10079997,2tdbb06z26,"BOI Norms",1,6,2020-11-05T12:05:47-08:00,41.832152843475,25,"updated stim.csv",Version100.csv,"Version 100","List 100",spaghetti,,3003,6,2461,3004,BOI,-,-,"Please name all of the ways you could use this object. Keep in mind that one object can have many uses. Separate your responses with a comma.",,n,41552,,,2450,40589,,,,"eat, make, bake, cook, buy, sell, throw away, refrigerate, microwave, heat, freeze",1
w10079997,2tdbb06z26,"BOI Norms",1,7,2020-11-05T12:05:59-08:00,12.463470935822,25,"updated stim.csv",Version100.csv,"Version 100","List 100",shortening,,3002,4.92,2358,3003,BOI,-,-,"Please name all of the ways you could use this object. Keep in mind that one object can have many uses. Separate your responses with a comma.",,n,12230,,,2677,10900,,,,"mix, bake, buy, sell",1
w10079997,2tdbb06z26,"BOI Norms",1,8,2020-11-05T12:06:25-08:00,25.524309158325,25,"updated stim.csv",Version100.csv,"Version 100","List 100",saucer,,3005,5.777777778,2249,3006,BOI,-,-,"Please name all of the ways you could use this object. Keep in mind that one object can have many uses. Separate your responses with a comma.",,n,25269,,,1847,16854,,,,"clean, sell, buy, wash, dry, fill",1
w10079997,2tdbb06z26,"BOI Norms",1,9,2020-11-05T12:06:27-08:00,2.8562150001526,25,"updated stim.csv",Version100.csv,"Version 100","List 100",,,,,,0,Instruct,-,-,"You have completed this section. Press ENTER to continue",,"Instruct 5",2642,,,-1,-1,,,,,1
w10079997,2tdbb06z26,"BOI Norms",1,10,2020-11-05T12:06:30-08:00,2.9940209388733,25,"updated stim.csv",Version100.csv,"Version 100","List 100",,,,,,0,Instruct,-,-,"You will now start the full experiment. Press ENTER when you are ready to begin.",,,2779,,,-1,-1,,,,,1
w10079997,2tdbb06z26,"BOI Norms",1,11,2020-11-05T12:06:55-08:00,24.935141086578,25,"updated stim.csv",Version100.csv,"Version 100","List 100",waffle,,2983,6.173913043,2878,2984,BOI,-,-,"Please name all of the ways you could use this object. Keep in mind that one object can have many uses. Separate your responses with a comma.",,y,24711,,,1602,17793,,,,"cook, make, eat, buy, sell, store, freeze",1
w10079997,2tdbb06z26,"BOI Norms",1,12,2020-11-05T12:07:00-08:00,4.6623270511627,25,"updated stim.csv",Version100.csv,"Version 100","List 100",debris,,2971,4.75,762,2972,BOI,-,-,"Please name all of the ways you could use this object. Keep in mind that one object can have many uses. Separate your responses with a comma.",,y,4443,,,3330,3602,,,,idk,1
w10079997,2tdbb06z26,"BOI Norms",1,13,2020-11-05T12:07:49-08:00,48.908350944519,25,"updated stim.csv",Version100.csv,"Version 100","List 100",wrist,,2993,6.291666667,2982,2994,BOI,-,-,"Please name all of the ways you could use this object. Keep in mind that one object can have many uses. Separate your responses with a comma.",,y,48591,,,2827,13854,,,,"pop, bend, sprain, break, fracture",0.907
w10079997,2tdbb06z26,"BOI Norms",1,14,2020-11-05T12:09:16-08:00,87.385483980179,25,"updated stim.csv",Version100.csv,"Version 100","List 100",badminton,,2999,4.92,120,3000,BOI,-,-,"Please name all of the ways you could use this object. Keep in mind that one object can have many uses. Separate your responses with a comma.",,y,87105,,,2677,85869,,,,"play, compete, win, lose",1
w10079997,2tdbb06z26,"BOI Norms",1,15,2020-11-05T12:09:20-08:00,3.4632139205933,25,"updated stim.csv",Version100.csv,"Version 100","List 100",fieldstone,,2990,4.761904762,971,2991,BOI,-,-,"Please name all of the ways you could use this object. Keep in mind that one object can have many uses. Separate your responses with a comma.",,y,3220,,,1951,2346,,,,idk,1
w10079997,2tdbb06z26,"BOI Norms",1,16,2020-11-05T12:09:56-08:00,36.041343927383,25,"updated stim.csv",Version100.csv,"Version 100","List 100",brow,,2998,4.416666667,336,2999,BOI,-,-,"Please name all of the ways you could use this object. Keep in mind that one object can have many uses. Separate your responses with a comma.",,y,35801,,,1883,33007,,,,"arch, thread, wipe, wax, dye, tint, micro blade, wiggle",1
w10079997,2tdbb06z26,"BOI Norms",1,17,2020-11-05T12:10:01-08:00,4.8342850208282,25,"updated stim.csv",Version100.csv,"Version 100","List 100",topaz,,2992,4.642857143,2735,2993,BOI,-,-,"Please name all of the ways you could use this object. Keep in mind that one object can have many uses. Separate your responses with a comma.",,y,4615,,,4069,4328,,,,idk,1
w10079997,2tdbb06z26,"BOI Norms",1,18,2020-11-05T12:10:18-08:00,16.844731092453,25,"updated stim.csv",Version100.csv,"Version 100","List 100",glove,,3000,4.888888889,2880,3001,BOI,-,-,"Please name all of the ways you could use this object. Keep in mind that one object can have many uses. Separate your responses with a comma.",,y,16588,,,1868,12840,,,,"wear, wash, fold, clean, dry",1
w10079997,2tdbb06z26,"BOI Norms",1,19,2020-11-05T12:10:22-08:00,4.1614279747009,25,"updated stim.csv",Version100.csv,"Version 100","List 100",bowling,,2980,5,293,2981,BOI,-,-,"Please name all of the ways you could use this object. Keep in mind that one object can have many uses. Separate your responses with a comma.",,y,3942,,,-1,-1,,,,,1
w10079997,2tdbb06z26,"BOI Norms",1,20,2020-11-05T12:10:40-08:00,17.922825098038,25,"updated stim.csv",Version100.csv,"Version 100","List 100",knickers,,2977,5.5,1435,2978,BOI,-,-,"Please name all of the ways you could use this object. Keep in mind that one object can have many uses. Separate your responses with a comma.",,y,17707,,,3072,17488,,,,"wear, clean, wash, dry, fold, hang, but, sell",1
w10079997,2tdbb06z26,"BOI Norms",1,21,2020-11-05T12:10:52-08:00,11.919909954071,25,"updated stim.csv",Version100.csv,"Version 100","List 100",earplugs,,2996,6.541666667,880,2997,BOI,-,-,"Please name all of the ways you could use this object. Keep in mind that one object can have many uses. Separate your responses with a comma.",,y,11673,,,2689,11464,,,,"wear, listen, buy, sell",1
w10079997,2tdbb06z26,"BOI Norms",1,22,2020-11-05T12:10:56-08:00,4.8785529136658,25,"updated stim.csv",Version100.csv,"Version 100","List 100",hound,,2974,4.962962963,1324,2975,BOI,-,-,"Please name all of the ways you could use this object. Keep in mind that one object can have many uses. Separate your responses with a comma.",,y,4600,,,2410,4344,,,,idk,1
w10079997,2tdbb06z26,"BOI Norms",1,23,2020-11-05T12:10:58-08:00,1.4596819877625,25,"updated stim.csv",Version100.csv,"Version 100","List 100",wallboard,,2978,4.64,2887,2979,BOI,-,-,"Please name all of the ways you could use this object. Keep in mind that one object can have many uses. Separate your responses with a comma.",,y,1241,,,-1,-1,,,,,1
w10079997,2tdbb06z26,"BOI Norms",1,24,2020-11-05T12:11:00-08:00,1.9154939651489,25,"updated stim.csv",Version100.csv,"Version 100","List 100",Fern,,2976,5.005471956,964,2977,BOI,-,-,"Please name all of the ways you could use this object. Keep in mind that one object can have many uses. Separate your responses with a comma.",,y,1644,,,1091,1391,,,,idk,1
w10079997,2tdbb06z26,"BOI Norms",1,25,2020-11-05T12:11:04-08:00,3.7443871498108,25,"updated stim.csv",Version100.csv,"Version 100","List 100",respirator,,2995,4.923076923,2158,2996,BOI,-,-,"Please name all of the ways you could use this object. Keep in mind that one object can have many uses. Separate your responses with a comma.",,y,3514,,,2528,3133,,,,use,1
w10079997,2tdbb06z26,"BOI Norms",1,26,2020-11-05T12:11:06-08:00,2.5594289302826,25,"updated stim.csv",Version100.csv,"Version 100","List 100",pulley,,2973,5.208333333,2092,2974,BOI,-,-,"Please name all of the ways you could use this object. Keep in mind that one object can have many uses. Separate your responses with a comma.",,y,2290,,,1450,2038,,,,idk,1
w10079997,2tdbb06z26,"BOI Norms",1,27,2020-11-05T12:11:07-08:00,0.47752594947815,25,"updated stim.csv",Version100.csv,"Version 100","List 100",deck,,2988,5.541666667,763,2989,BOI,-,-,"Please name all of the ways you could use this object. Keep in mind that one object can have many uses. Separate your responses with a comma.",,y,237,,,-1,-1,,,,,1
w10079997,2tdbb06z26,"BOI Norms",1,28,2020-11-05T12:11:10-08:00,3.4693920612335,25,"updated stim.csv",Version100.csv,"Version 100","List 100",guardrail,,2991,4.36,1186,2992,BOI,-,-,"Please name all of the ways you could use this object. Keep in mind that one object can have many uses. Separate your responses with a comma.",,y,3220,,,2242,3032,,,,hold,1
w10079997,2tdbb06z26,"BOI Norms",1,29,2020-11-05T12:11:23-08:00,12.892911911011,25,"updated stim.csv",Version100.csv,"Version 100","List 100",dish,,2981,5.8,802,2982,BOI,-,-,"Please name all of the ways you could use this object. Keep in mind that one object can have many uses. Separate your responses with a comma.",,y,12645,,,1477,12180,,,,"clean, wash, dry, buy, sale",1
w10079997,2tdbb06z26,"BOI Norms",1,30,2020-11-05T12:11:27-08:00,3.5809981822968,25,"updated stim.csv",Version100.csv,"Version 100","List 100",dye,,2972,4.52173913,873,2973,BOI,-,-,"Please name all of the ways you could use this object. Keep in mind that one object can have many uses. Separate your responses with a comma.",,y,3353,,,2851,3113,,,,idk,1
w10079997,2tdbb06z26,"BOI Norms",1,31,2020-11-05T12:11:29-08:00,2.9340479373932,25,"updated stim.csv",Version100.csv,"Version 100","List 100",school,,2979,5.16,2269,2980,BOI,-,-,"Please name all of the ways you could use this object. Keep in mind that one object can have many uses. Separate your responses with a comma.",,y,2704,,,-1,-1,,,,,1
w10079997,2tdbb06z26,"BOI Norms",1,32,2020-11-05T12:11:34-08:00,5.035943031311,25,"updated stim.csv",Version100.csv,"Version 100","List 100",centipede,,2986,5.25,478,2987,BOI,-,-,"Please name all of the ways you could use this object. Keep in mind that one object can have many uses. Separate your responses with a comma.",,y,4811,,,3707,4326,,,,kill,1
w10079997,2tdbb06z26,"BOI Norms",1,33,2020-11-05T12:11:37-08:00,2.8660678863525,25,"updated stim.csv",Version100.csv,"Version 100","List 100",marketeer,,2989,4.5,1608,2990,BOI,-,-,"Please name all of the ways you could use this object. Keep in mind that one object can have many uses. Separate your responses with a comma.",,y,2625,,,2076,2379,,,,idk,1
w10079997,2tdbb06z26,"BOI Norms",1,34,2020-11-05T12:11:40-08:00,2.8456711769104,25,"updated stim.csv",Version100.csv,"Version 100","List 100",blowgun,,2985,4.625,246,2986,BOI,-,-,"Please name all of the ways you could use this object. Keep in mind that one object can have many uses. Separate your responses with a comma.",,y,2629,,,2112,2391,,,,idk,1
w10079997,2tdbb06z26,"BOI Norms",1,35,2020-11-05T12:11:43-08:00,2.6614120006561,25,"updated stim.csv",Version100.csv,"Version 100","List 100",greenhouse,,2975,5.260869565,1171,2976,BOI,-,-,"Please name all of the ways you could use this object. Keep in mind that one object can have many uses. Separate your responses with a comma.",,y,2437,,,1929,2202,,,,idk,1
w10079997,2tdbb06z26,"BOI Norms",1,36,2020-11-05T12:12:03-08:00,20.599721908569,25,"updated stim.csv",Version100.csv,"Version 100","List 100",tee,,2984,5.347826087,2656,2985,BOI,-,-,"Please name all of the ways you could use this object. Keep in mind that one object can have many uses. Separate your responses with a comma.",,y,20334,,,2328,18938,,,,"wash, dry, fold, clean, hang, wear",1
w10079997,2tdbb06z26,"BOI Norms",1,37,2020-11-05T12:12:32-08:00,28.728699922562,25,"updated stim.csv",Version100.csv,"Version 100","List 100",limb,,2982,5.703703704,1511,2983,BOI,-,-,"Please name all of the ways you could use this object. Keep in mind that one object can have many uses. Separate your responses with a comma.",,y,28479,,,17556,27980,,,,"break ",1
w10079997,2tdbb06z26,"BOI Norms",1,38,2020-11-05T12:12:45-08:00,12.603882074356,25,"updated stim.csv",Version100.csv,"Version 100","List 100",waist,,2997,6.458333333,1117,2998,BOI,-,-,"Please name all of the ways you could use this object. Keep in mind that one object can have many uses. Separate your responses with a comma.",,y,12378,,,6106,8284,,,,"measure, ",1
w10079997,2tdbb06z26,"BOI Norms",1,39,2020-11-05T12:12:53-08:00,8.6876819133759,25,"updated stim.csv",Version100.csv,"Version 100","List 100",breadboard,,2987,5.44,310,2988,BOI,-,-,"Please name all of the ways you could use this object. Keep in mind that one object can have many uses. Separate your responses with a comma.",,y,8421,,,6910,7703,,,,clean,1
w10079997,2tdbb06z26,"BOI Norms",1,40,2020-11-05T12:13:00-08:00,6.0545670986176,25,"updated stim.csv",Version100.csv,"Version 100","List 100",trampoline,,2994,5.88,2759,2995,BOI,-,-,"Please name all of the ways you could use this object. Keep in mind that one object can have many uses. Separate your responses with a comma.",,y,5824,,,5006,5533,,,,idk,1
w10079997,2tdbb06z26,"BOI Norms",1,41,2020-11-05T12:13:02-08:00,2.0880310535431,25,"updated stim.csv",Version100.csv,"Version 100","List 100",,,,,,0,Instruct,,,"You will now be asked a few questions about your experience today.",,"Instruct 4",1867,,,-1,-1,,,,,1
