Username,ID,ExperimentName,Session,Trial,Date,TimeDif,"Condition Number","Stimuli File","Order File","Condition Description","Condition Notes",Stimuli*Cue,Stimuli*Answer,Stimuli*Shuffle,"Stimuli*Stimuli Notes",Stimuli*Value,Procedure*Item,"Procedure*Trial Type","Procedure*Max Time","Procedure*Min Time",Procedure*Text,"Procedure*Procedure Notes",Procedure*Shuffle,Response*RT,Response*Response,Response*Accuracy,Response*RTfirst,Response*RTlast,Response*strictAcc,Response*lenientAcc,Response*focus,Response*JOL,Response*Focus
w10029010_es,kcptbi5nuk,"BOI Norms",1,1,2020-09-23T18:06:57-07:00,53.375862121582,5,"updated stim.csv",Version5.csv,"Version 5","List 5",,,,,,0,Instruct,-,10,"In this section, you will be presented with a series of objects. Please name as many possible uses for this object as you can think of by typing them in the box below each object.",,Instruct1,20851,,,-1,-1,,,,,1
w10029010_es,kcptbi5nuk,"BOI Norms",1,2,2020-09-23T18:07:10-07:00,12.97137093544,5,"updated stim.csv",Version5.csv,"Version 5","List 5",,,,,,0,Instruct,-,10,"Please keep in mind that a single object will have more than one use. For example, a ball can be thrown or can be bounced or even stepped on. When listing multiple uses for one object, please separate each use with a comma (i.e., thrown, bounced, stepped on)",,Instruct2,12266,,,-1,-1,,,,,1
w10029010_es,kcptbi5nuk,"BOI Norms",1,3,2020-09-23T18:07:16-07:00,5.9667730331421,5,"updated stim.csv",Version5.csv,"Version 5","List 5",,,,,,0,Instruct,-,-,"Before starting the experiment, you will complete a short practice sesstion. Press ENTER when you are ready to begin.",,Instruct3,5695,,,-1,-1,,,,,1
w10029010_es,kcptbi5nuk,"BOI Norms",1,4,2020-09-23T18:07:25-07:00,9.1921761035919,5,"updated stim.csv",Version5.csv,"Version 5","List 5",grain,,3004,5.217391304,1143,3005,BOI,-,-,"Please name all of the ways you could use this object. Keep in mind that one object can have many uses. Separate your responses with a comma.",,n,8062,,,4008,6396,,,,wheat,1
w10029010_es,kcptbi5nuk,"BOI Norms",1,5,2020-09-23T18:07:36-07:00,10.771013975143,5,"updated stim.csv",Version5.csv,"Version 5","List 5",shortening,,3002,4.92,2358,3003,BOI,-,-,"Please name all of the ways you could use this object. Keep in mind that one object can have many uses. Separate your responses with a comma.",,n,10291,,,5925,9102,,,,whitening,1
w10029010_es,kcptbi5nuk,"BOI Norms",1,6,2020-09-23T18:07:46-07:00,9.689906835556,5,"updated stim.csv",Version5.csv,"Version 5","List 5",saucer,,3005,5.777777778,2249,3006,BOI,-,-,"Please name all of the ways you could use this object. Keep in mind that one object can have many uses. Separate your responses with a comma.",,n,9276,,,2400,4868,,,,sauce,1
w10029010_es,kcptbi5nuk,"BOI Norms",1,7,2020-09-23T18:07:56-07:00,10.292478084564,5,"updated stim.csv",Version5.csv,"Version 5","List 5",paperwork,,3001,5.625,1866,3002,BOI,-,-,"Please name all of the ways you could use this object. Keep in mind that one object can have many uses. Separate your responses with a comma.",,n,10021,,,4081,5174,,,,packet,1
w10029010_es,kcptbi5nuk,"BOI Norms",1,8,2020-09-23T18:08:35-07:00,39.387633085251,5,"updated stim.csv",Version5.csv,"Version 5","List 5",spaghetti,,3003,6,2461,3004,BOI,-,-,"Please name all of the ways you could use this object. Keep in mind that one object can have many uses. Separate your responses with a comma.",,n,6255,,,3343,4640,,,,noodles,1
w10029010_es,kcptbi5nuk,"BOI Norms",1,9,2020-09-23T18:08:49-07:00,13.667042970657,5,"updated stim.csv",Version5.csv,"Version 5","List 5",,,,,,0,Instruct,-,-,"You have completed this section. Press ENTER to continue",,"Instruct 5",13401,,,-1,-1,,,,,1
w10029010_es,kcptbi5nuk,"BOI Norms",1,10,2020-09-23T18:08:52-07:00,3.4074280261993,5,"updated stim.csv",Version5.csv,"Version 5","List 5",,,,,,0,Instruct,-,-,"You will now start the full experiment. Press ENTER when you are ready to begin.",,,2655,,,-1,-1,,,,,1
w10029010_es,kcptbi5nuk,"BOI Norms",1,11,2020-09-23T18:09:07-07:00,14.999939918518,5,"updated stim.csv",Version5.csv,"Version 5","List 5",cedar,,143,4.583333333,470,144,BOI,-,-,"Please name all of the ways you could use this object. Keep in mind that one object can have many uses. Separate your responses with a comma.",,y,14345,,,12244,13010,,,,grove,1
w10029010_es,kcptbi5nuk,"BOI Norms",1,12,2020-09-23T18:09:47-07:00,39.642756938934,5,"updated stim.csv",Version5.csv,"Version 5","List 5",cabbage,,132,5.608695652,386,133,BOI,-,-,"Please name all of the ways you could use this object. Keep in mind that one object can have many uses. Separate your responses with a comma.",,y,7166,,,3222,5023,,,,lettuce,1
w10029010_es,kcptbi5nuk,"BOI Norms",1,13,2020-09-23T18:10:09-07:00,22.586110115051,5,"updated stim.csv",Version5.csv,"Version 5","List 5",paprika,,147,4.428571429,1867,148,BOI,-,-,"Please name all of the ways you could use this object. Keep in mind that one object can have many uses. Separate your responses with a comma.",,y,21472,,,3079,20041,,,,"pepper, seasoning",1
w10029010_es,kcptbi5nuk,"BOI Norms",1,14,2020-09-23T18:10:59-07:00,49.836427927017,5,"updated stim.csv",Version5.csv,"Version 5","List 5",prosecutor,,146,4.64,2078,147,BOI,-,-,"Please name all of the ways you could use this object. Keep in mind that one object can have many uses. Separate your responses with a comma.",,y,17261,,,5445,15097,,,,"lawyer, court",1
w10029010_es,kcptbi5nuk,"BOI Norms",1,15,2020-09-23T18:11:11-07:00,12.099051952362,5,"updated stim.csv",Version5.csv,"Version 5","List 5",powderpuff,,145,4.923076923,2055,146,BOI,-,-,"Please name all of the ways you could use this object. Keep in mind that one object can have many uses. Separate your responses with a comma.",,y,11696,,,7132,10202,,,,"TV show",1
w10029010_es,kcptbi5nuk,"BOI Norms",1,16,2020-09-23T18:11:27-07:00,15.637550115585,5,"updated stim.csv",Version5.csv,"Version 5","List 5","Picture Frame",,130,,3002,131,BOI,-,-,"Please name all of the ways you could use this object. Keep in mind that one object can have many uses. Separate your responses with a comma.",,y,15300,,,4956,13477,,,,"wall, table",1
w10029010_es,kcptbi5nuk,"BOI Norms",1,17,2020-09-23T18:11:36-07:00,9.1447410583496,5,"updated stim.csv",Version5.csv,"Version 5","List 5",sheepskin,,137,4.928571429,2330,138,BOI,-,-,"Please name all of the ways you could use this object. Keep in mind that one object can have many uses. Separate your responses with a comma.",,y,8441,,,3327,7142,,,,"lamb, sheep",1
w10029010_es,kcptbi5nuk,"BOI Norms",1,18,2020-09-23T18:11:50-07:00,14.138343811035,5,"updated stim.csv",Version5.csv,"Version 5","List 5",keyhole,,136,5.44,1413,137,BOI,-,-,"Please name all of the ways you could use this object. Keep in mind that one object can have many uses. Separate your responses with a comma.",,y,13714,,,4927,12007,,,,"door, car",1
w10029010_es,kcptbi5nuk,"BOI Norms",1,19,2020-09-23T18:12:10-07:00,19.765861034393,5,"updated stim.csv",Version5.csv,"Version 5","List 5",medication,,122,6.28,1637,123,BOI,-,-,"Please name all of the ways you could use this object. Keep in mind that one object can have many uses. Separate your responses with a comma.",,y,18521,,,13856,16925,,,,"bag, case",1
w10029010_es,kcptbi5nuk,"BOI Norms",1,20,2020-09-23T18:12:31-07:00,20.565930128098,5,"updated stim.csv",Version5.csv,"Version 5","List 5",watercress,,128,4.782608696,2910,129,BOI,-,-,"Please name all of the ways you could use this object. Keep in mind that one object can have many uses. Separate your responses with a comma.",,y,19710,,,9683,18918,,,,"bag, freezer",1
w10029010_es,kcptbi5nuk,"BOI Norms",1,21,2020-09-23T18:13:14-07:00,42.873519897461,5,"updated stim.csv",Version5.csv,"Version 5","List 5",wristlet,,144,5.428571429,2984,145,BOI,-,-,"Please name all of the ways you could use this object. Keep in mind that one object can have many uses. Separate your responses with a comma.",,y,42518,,,11228,29117,,,,"bracelet, ankle",1
w10029010_es,kcptbi5nuk,"BOI Norms",1,22,2020-09-23T18:13:30-07:00,16.909008026123,5,"updated stim.csv",Version5.csv,"Version 5","List 5",figurine,,121,5.791666667,973,122,BOI,-,-,"Please name all of the ways you could use this object. Keep in mind that one object can have many uses. Separate your responses with a comma.",,y,16625,,,9327,15051,,,,art,1
w10029010_es,kcptbi5nuk,"BOI Norms",1,23,2020-09-23T18:13:45-07:00,14.983280897141,5,"updated stim.csv",Version5.csv,"Version 5","List 5",copper,,124,4.833333333,638,125,BOI,-,-,"Please name all of the ways you could use this object. Keep in mind that one object can have many uses. Separate your responses with a comma.",,y,14048,,,10719,13498,,,,stone,1
w10029010_es,kcptbi5nuk,"BOI Norms",1,24,2020-09-23T18:14:11-07:00,25.343998193741,5,"updated stim.csv",Version5.csv,"Version 5","List 5",sandbank,,126,4.52,2234,127,BOI,-,-,"Please name all of the ways you could use this object. Keep in mind that one object can have many uses. Separate your responses with a comma.",,y,24908,,,4762,24534,,,,box,1
w10029010_es,kcptbi5nuk,"BOI Norms",1,25,2020-09-23T18:15:00-07:00,49.248076915741,5,"updated stim.csv",Version5.csv,"Version 5","List 5",hoop,,134,5.296296296,1310,135,BOI,-,-,"Please name all of the ways you could use this object. Keep in mind that one object can have many uses. Separate your responses with a comma.",,y,16393,,,3458,14692,,,,"basketball, ear",0.854
w10029010_es,kcptbi5nuk,"BOI Norms",1,26,2020-09-23T18:15:08-07:00,7.8356459140778,5,"updated stim.csv",Version5.csv,"Version 5","List 5",tranquilizers,,127,4.607142857,2761,128,BOI,-,-,"Please name all of the ways you could use this object. Keep in mind that one object can have many uses. Separate your responses with a comma.",,y,7533,,,2668,4978,,,,guns,1
w10029010_es,kcptbi5nuk,"BOI Norms",1,27,2020-09-23T18:15:21-07:00,13.352373123169,5,"updated stim.csv",Version5.csv,"Version 5","List 5",doll,,148,6.434782609,814,149,BOI,-,-,"Please name all of the ways you could use this object. Keep in mind that one object can have many uses. Separate your responses with a comma.",,y,12759,,,5152,11870,,,,barbie,1
w10029010_es,kcptbi5nuk,"BOI Norms",1,28,2020-09-23T18:15:34-07:00,12.505607843399,5,"updated stim.csv",Version5.csv,"Version 5","List 5",eyepiece,,150,5.8,937,151,BOI,-,-,"Please name all of the ways you could use this object. Keep in mind that one object can have many uses. Separate your responses with a comma.",,y,11810,,,7972,10501,,,,eyewash,1
w10029010_es,kcptbi5nuk,"BOI Norms",1,29,2020-09-23T18:15:41-07:00,7.1936151981354,5,"updated stim.csv",Version5.csv,"Version 5","List 5",waste,,123,4.318181818,2903,124,BOI,-,-,"Please name all of the ways you could use this object. Keep in mind that one object can have many uses. Separate your responses with a comma.",,y,6596,,,4326,5989,,,,trash,1
w10029010_es,kcptbi5nuk,"BOI Norms",1,30,2020-09-23T18:16:12-07:00,30.830209970474,5,"updated stim.csv",Version5.csv,"Version 5","List 5",worker,,133,5.086956522,2971,134,BOI,-,-,"Please name all of the ways you could use this object. Keep in mind that one object can have many uses. Separate your responses with a comma.",,y,30249,,,6357,26168,,,,"teacher, construction",1
w10029010_es,kcptbi5nuk,"BOI Norms",1,31,2020-09-23T18:16:44-07:00,32.2963950634,5,"updated stim.csv",Version5.csv,"Version 5","List 5",woodwork,,138,5.12,2966,139,BOI,-,-,"Please name all of the ways you could use this object. Keep in mind that one object can have many uses. Separate your responses with a comma.",,y,6124,,,3536,4212,,,,tree,1
w10029010_es,kcptbi5nuk,"BOI Norms",1,32,2020-09-23T18:17:06-07:00,21.699729919434,5,"updated stim.csv",Version5.csv,"Version 5","List 5",stableman,,141,4.375,2495,142,BOI,-,-,"Please name all of the ways you could use this object. Keep in mind that one object can have many uses. Separate your responses with a comma.",,y,21235,,,9304,19948,,,,"barn, cows, horses",1
w10029010_es,kcptbi5nuk,"BOI Norms",1,33,2020-09-23T18:17:32-07:00,26.591201066971,5,"updated stim.csv",Version5.csv,"Version 5","List 5",bazooka,,129,5.041666667,175,130,BOI,-,-,"Please name all of the ways you could use this object. Keep in mind that one object can have many uses. Separate your responses with a comma.",,y,26159,,,3538,21174,,,,beebees,1
w10029010_es,kcptbi5nuk,"BOI Norms",1,34,2020-09-23T18:17:47-07:00,15.040920972824,5,"updated stim.csv",Version5.csv,"Version 5","List 5",pedal,,125,5.04,1900,126,BOI,-,-,"Please name all of the ways you could use this object. Keep in mind that one object can have many uses. Separate your responses with a comma.",,y,14262,,,5542,12918,,,,"flowers, bees",1
w10029010_es,kcptbi5nuk,"BOI Norms",1,35,2020-09-23T18:18:06-07:00,18.426842927933,5,"updated stim.csv",Version5.csv,"Version 5","List 5",playsuit,,131,5.36,2003,132,BOI,-,-,"Please name all of the ways you could use this object. Keep in mind that one object can have many uses. Separate your responses with a comma.",,y,17864,,,14044,16731,,,,swimming,0.697
w10029010_es,kcptbi5nuk,"BOI Norms",1,36,2020-09-23T18:18:20-07:00,14.378441095352,5,"updated stim.csv",Version5.csv,"Version 5","List 5",postman,,142,4.913043478,2044,143,BOI,-,-,"Please name all of the ways you could use this object. Keep in mind that one object can have many uses. Separate your responses with a comma.",,y,13571,,,6789,7272,,,,mail,1
w10029010_es,kcptbi5nuk,"BOI Norms",1,37,2020-09-23T18:19:05-07:00,44.620131969452,5,"updated stim.csv",Version5.csv,"Version 5","List 5",antiques,,140,4.68,51,141,BOI,-,-,"Please name all of the ways you could use this object. Keep in mind that one object can have many uses. Separate your responses with a comma.",,y,43587,,,5281,42880,,,,"teacups, dish sets",1
w10029010_es,kcptbi5nuk,"BOI Norms",1,38,2020-09-23T18:19:25-07:00,20.450269937515,5,"updated stim.csv",Version5.csv,"Version 5","List 5",laryngoscope,,135,4.411764706,1467,136,BOI,-,-,"Please name all of the ways you could use this object. Keep in mind that one object can have many uses. Separate your responses with a comma.",,y,19776,,,16146,19496,,,,"long, short",1
w10029010_es,kcptbi5nuk,"BOI Norms",1,39,2020-09-23T18:19:35-07:00,9.6933400630951,5,"updated stim.csv",Version5.csv,"Version 5","List 5",pomegranate,,139,5.391304348,2026,140,BOI,-,-,"Please name all of the ways you could use this object. Keep in mind that one object can have many uses. Separate your responses with a comma.",,y,8979,,,4496,8777,,,,"red, stains",1
w10029010_es,kcptbi5nuk,"BOI Norms",1,40,2020-09-23T18:20:05-07:00,29.797843933105,5,"updated stim.csv",Version5.csv,"Version 5","List 5",crutch,,149,5.8,717,150,BOI,-,-,"Please name all of the ways you could use this object. Keep in mind that one object can have many uses. Separate your responses with a comma.",,y,29164,,,24538,28483,,,,"long, stick",1
w10029010_es,kcptbi5nuk,"BOI Norms",1,41,2020-09-23T18:20:08-07:00,2.9759840965271,5,"updated stim.csv",Version5.csv,"Version 5","List 5",,,,,,0,Instruct,,,"You will now be asked a few questions about your experience today.",,"Instruct 4",2344,,,-1,-1,,,,,1
