Username,ID,ExperimentName,Session,Trial,Date,TimeDif,"Condition Number","Stimuli File","Order File","Condition Description","Condition Notes",Stimuli*Cue,Stimuli*Answer,Stimuli*Shuffle,"Stimuli*Stimuli Notes",Stimuli*Value,Procedure*Item,"Procedure*Trial Type","Procedure*Max Time","Procedure*Min Time",Procedure*Text,"Procedure*Procedure Notes",Procedure*Shuffle,Response*RT,Response*Response,Response*Accuracy,Response*RTfirst,Response*RTlast,Response*strictAcc,Response*lenientAcc,Response*focus,Response*JOL,Response*Focus
w990145_anh,376rc4tjs8,"BOI Norms",1,1,2020-11-05T16:12:12-08:00,11.687860965729,3,"updated stim.csv",Version78.csv,"Version 78","List 78",,,,,,0,Instruct,-,10,"In this section, you will be presented with a series of objects. Please name as many possible uses for this object as you can think of by typing them in the box below each object.",,Instruct1,11544,,,-1,-1,,,,,1
w990145_anh,376rc4tjs8,"BOI Norms",1,2,2020-11-05T16:12:23-08:00,10.952037096024,3,"updated stim.csv",Version78.csv,"Version 78","List 78",,,,,,0,Instruct,-,10,"Please keep in mind that a single object will have more than one use. For example, a ball can be thrown or can be bounced or even stepped on. When listing multiple uses for one object, please separate each use with a comma (i.e., thrown, bounced, stepped on)",,Instruct2,10737,,,-1,-1,,,,,1
w990145_anh,376rc4tjs8,"BOI Norms",1,3,2020-11-05T16:12:26-08:00,3.5490410327911,3,"updated stim.csv",Version78.csv,"Version 78","List 78",,,,,,0,Instruct,-,-,"Before starting the experiment, you will complete a short practice sesstion. Press ENTER when you are ready to begin.",,Instruct3,3349,,,-1,-1,,,,,1
w990145_anh,376rc4tjs8,"BOI Norms",1,4,2020-11-05T16:12:39-08:00,12.574229955673,3,"updated stim.csv",Version78.csv,"Version 78","List 78",spaghetti,,3003,6,2461,3004,BOI,-,-,"Please name all of the ways you could use this object. Keep in mind that one object can have many uses. Separate your responses with a comma.",,n,12350,,,1666,9760,,,,"eat, cook, stir, boil, bake, fry",1
w990145_anh,376rc4tjs8,"BOI Norms",1,5,2020-11-05T16:12:56-08:00,16.729090929031,3,"updated stim.csv",Version78.csv,"Version 78","List 78",saucer,,3005,5.777777778,2249,3006,BOI,-,-,"Please name all of the ways you could use this object. Keep in mind that one object can have many uses. Separate your responses with a comma.",,n,16515,,,3728,15472,,,,"serve, throw, warm up",1
w990145_anh,376rc4tjs8,"BOI Norms",1,6,2020-11-05T16:13:02-08:00,5.9443831443787,3,"updated stim.csv",Version78.csv,"Version 78","List 78",shortening,,3002,4.92,2358,3003,BOI,-,-,"Please name all of the ways you could use this object. Keep in mind that one object can have many uses. Separate your responses with a comma.",,n,5672,,,2445,3686,,,,bake,1
w990145_anh,376rc4tjs8,"BOI Norms",1,7,2020-11-05T16:13:31-08:00,29.716714859009,3,"updated stim.csv",Version78.csv,"Version 78","List 78",grain,,3004,5.217391304,1143,3005,BOI,-,-,"Please name all of the ways you could use this object. Keep in mind that one object can have many uses. Separate your responses with a comma.",,n,29511,,,5185,26806,,,,"harvest, cook, bake, eat, build, create, make",1
w990145_anh,376rc4tjs8,"BOI Norms",1,8,2020-11-05T16:14:19-08:00,47.866296052933,3,"updated stim.csv",Version78.csv,"Version 78","List 78",paperwork,,3001,5.625,1866,3002,BOI,-,-,"Please name all of the ways you could use this object. Keep in mind that one object can have many uses. Separate your responses with a comma.",,n,47626,,,1839,46530,,,,"file, write, create, draft, submit, discard, throw away, recycle, sign, deliver, stamp, approve, deny, rewrite",1
w990145_anh,376rc4tjs8,"BOI Norms",1,9,2020-11-05T16:14:21-08:00,1.7438571453094,3,"updated stim.csv",Version78.csv,"Version 78","List 78",,,,,,0,Instruct,-,-,"You have completed this section. Press ENTER to continue",,"Instruct 5",1470,,,-1,-1,,,,,1
w990145_anh,376rc4tjs8,"BOI Norms",1,10,2020-11-05T16:14:23-08:00,2.030179977417,3,"updated stim.csv",Version78.csv,"Version 78","List 78",,,,,,0,Instruct,-,-,"You will now start the full experiment. Press ENTER when you are ready to begin.",,,1824,,,-1,-1,,,,,1
w990145_anh,376rc4tjs8,"BOI Norms",1,11,2020-11-05T16:15:40-08:00,76.870824813843,3,"updated stim.csv",Version78.csv,"Version 78","List 78",bully,,2324,4.857142857,356,2325,BOI,-,-,"Please name all of the ways you could use this object. Keep in mind that one object can have many uses. Separate your responses with a comma.",,y,39699,,,1973,34694,,,,"hit, kick, punish, belittle, spit, tattle, cry, laugh, hurt, injure",1
w990145_anh,376rc4tjs8,"BOI Norms",1,12,2020-11-05T16:16:06-08:00,26.379437208176,3,"updated stim.csv",Version78.csv,"Version 78","List 78",limeade,,2331,4.75,1513,2332,BOI,-,-,"Please name all of the ways you could use this object. Keep in mind that one object can have many uses. Separate your responses with a comma.",,y,26128,,,2907,25355,,,,"drink, stir, sell, serve, make, pour, chill, freeze, mix",1
w990145_anh,376rc4tjs8,"BOI Norms",1,13,2020-11-05T16:16:26-08:00,20.244589805603,3,"updated stim.csv",Version78.csv,"Version 78","List 78",garter,,2327,4.904761905,1083,2328,BOI,-,-,"Please name all of the ways you could use this object. Keep in mind that one object can have many uses. Separate your responses with a comma.",,y,20035,,,1580,14897,,,,"wear, throw, hold, remember",1
w990145_anh,376rc4tjs8,"BOI Norms",1,14,2020-11-05T16:17:15-08:00,48.791650056839,3,"updated stim.csv",Version78.csv,"Version 78","List 78",turnstile,,2323,4.818181818,2803,2324,BOI,-,-,"Please name all of the ways you could use this object. Keep in mind that one object can have many uses. Separate your responses with a comma.",,y,48541,,,19007,39930,,,,"move, admit, allow, accept, turn, spin, lock, block",1
w990145_anh,376rc4tjs8,"BOI Norms",1,15,2020-11-05T16:18:25-08:00,69.950726985931,3,"updated stim.csv",Version78.csv,"Version 78","List 78",friend,,2313,5,1057,2314,BOI,-,-,"Please name all of the ways you could use this object. Keep in mind that one object can have many uses. Separate your responses with a comma.",,y,69649,,,3398,55920,,,,"love, laugh, cry, hug, smile, shop, drive, sleepover, bake, fight, remember, help, encourage",1
w990145_anh,376rc4tjs8,"BOI Norms",1,16,2020-11-05T16:18:41-08:00,16.141049146652,3,"updated stim.csv",Version78.csv,"Version 78","List 78",tavern,,2337,4.36,2638,2338,BOI,-,-,"Please name all of the ways you could use this object. Keep in mind that one object can have many uses. Separate your responses with a comma.",,y,15894,,,2500,14849,,,,"drink, explore, sleep, get lost,",1
w990145_anh,376rc4tjs8,"BOI Norms",1,17,2020-11-05T16:19:24-08:00,42.492817878723,3,"updated stim.csv",Version78.csv,"Version 78","List 78",goddaughter,,2340,5.04,1126,2341,BOI,-,-,"Please name all of the ways you could use this object. Keep in mind that one object can have many uses. Separate your responses with a comma.",,y,42247,,,1649,37273,,,,"love, help, encourage, laugh, cry, annoy",1
w990145_anh,376rc4tjs8,"BOI Norms",1,18,2020-11-05T16:19:52-08:00,28.133430957794,3,"updated stim.csv",Version78.csv,"Version 78","List 78",windsock,,2330,4.391304348,2946,2331,BOI,-,-,"Please name all of the ways you could use this object. Keep in mind that one object can have many uses. Separate your responses with a comma.",,y,27923,,,2865,27024,,,,"collect information, test, report, blow, hang, connect",1
w990145_anh,376rc4tjs8,"BOI Norms",1,19,2020-11-05T16:21:36-08:00,104.3059720993,3,"updated stim.csv",Version78.csv,"Version 78","List 78",gymnast,,2320,5,1205,2321,BOI,-,-,"Please name all of the ways you could use this object. Keep in mind that one object can have many uses. Separate your responses with a comma.",,y,104017,,,1778,97990,,,,"tumble, flip, cartwheel, floor routine, pummel horse, rings, balance beam, acrobatics, split, stretch, aerial, handsprings, roundoff, compete, win, lose, fall, cheat, get hurt",1
w990145_anh,376rc4tjs8,"BOI Norms",1,20,2020-11-05T16:22:27-08:00,50.95135307312,3,"updated stim.csv",Version78.csv,"Version 78","List 78",dresser,,2332,5.04,844,2333,BOI,-,-,"Please name all of the ways you could use this object. Keep in mind that one object can have many uses. Separate your responses with a comma.",,y,50666,,,1594,32206,,,,"hold clothes, open, close, slide, lock, unlock, fall, damage, cost",1
w990145_anh,376rc4tjs8,"BOI Norms",1,21,2020-11-05T16:23:03-08:00,36.052803993225,3,"updated stim.csv",Version78.csv,"Version 78","List 78",mirror,,2328,6.086956522,1667,2329,BOI,-,-,"Please name all of the ways you could use this object. Keep in mind that one object can have many uses. Separate your responses with a comma.",,y,35834,,,1989,35046,,,,"gaze, look, see, visualize, hang, stand, illuminate, shatter, clean, wipe, sell",1
w990145_anh,376rc4tjs8,"BOI Norms",1,22,2020-11-05T16:23:07-08:00,3.6514728069305,3,"updated stim.csv",Version78.csv,"Version 78","List 78",bookbinder,,2312,4.75,271,2313,BOI,-,-,"Please name all of the ways you could use this object. Keep in mind that one object can have many uses. Separate your responses with a comma.",,y,3401,,,-1,-1,,,,,1
w990145_anh,376rc4tjs8,"BOI Norms",1,23,2020-11-05T16:23:22-08:00,14.948566198349,3,"updated stim.csv",Version78.csv,"Version 78","List 78",mousse,,2334,5.260869565,1703,2335,BOI,-,-,"Please name all of the ways you could use this object. Keep in mind that one object can have many uses. Separate your responses with a comma.",,y,14729,,,1641,13931,,,,"style, eat, enjoy, make, buy",1
w990145_anh,376rc4tjs8,"BOI Norms",1,24,2020-11-05T16:24:08-08:00,45.787039995193,3,"updated stim.csv",Version78.csv,"Version 78","List 78",butcher,,2336,4.739130435,373,2337,BOI,-,-,"Please name all of the ways you could use this object. Keep in mind that one object can have many uses. Separate your responses with a comma.",,y,45539,,,4656,43289,,,,"cut, slice, pulverize, tenderize, hang, sell, wrap meat, freeze meat",1
w990145_anh,376rc4tjs8,"BOI Norms",1,25,2020-11-05T16:24:26-08:00,18.463797807693,3,"updated stim.csv",Version78.csv,"Version 78","List 78",drawstring,,2314,5.28,842,2315,BOI,-,-,"Please name all of the ways you could use this object. Keep in mind that one object can have many uses. Separate your responses with a comma.",,y,18116,,,1817,17206,,,,"close, open, hold, wear, tie, pull",1
w990145_anh,376rc4tjs8,"BOI Norms",1,26,2020-11-05T16:24:51-08:00,25.445043087006,3,"updated stim.csv",Version78.csv,"Version 78","List 78",kiss,,2311,4.571428571,1422,2312,BOI,-,-,"Please name all of the ways you could use this object. Keep in mind that one object can have many uses. Separate your responses with a comma.",,y,25037,,,1230,22365,,,,"give, receive, take, promise, steal",1
w990145_anh,376rc4tjs8,"BOI Norms",1,27,2020-11-05T16:25:12-08:00,21.009464979172,3,"updated stim.csv",Version78.csv,"Version 78","List 78",sugarcane,,2335,5.043478261,2581,2336,BOI,-,-,"Please name all of the ways you could use this object. Keep in mind that one object can have many uses. Separate your responses with a comma.",,y,20800,,,2130,18654,,,,"eat, harvest, grow, sell, refine",1
w990145_anh,376rc4tjs8,"BOI Norms",1,28,2020-11-05T16:25:41-08:00,28.755149126053,3,"updated stim.csv",Version78.csv,"Version 78","List 78",pretzel,,2321,6.04,2061,2322,BOI,-,-,"Please name all of the ways you could use this object. Keep in mind that one object can have many uses. Separate your responses with a comma.",,y,28505,,,2540,27208,,,,"eat, sell, buy, consume, make, share",1
w990145_anh,376rc4tjs8,"BOI Norms",1,29,2020-11-05T16:26:36-08:00,54.898746967316,3,"updated stim.csv",Version78.csv,"Version 78","List 78",ribbon,,2333,6.375,2165,2334,BOI,-,-,"Please name all of the ways you could use this object. Keep in mind that one object can have many uses. Separate your responses with a comma.",,y,54648,,,1922,48736,,,,"cut, wrap, tie, twist, loop, tape, measure, wear, style, sell, buy, decorate",1
w990145_anh,376rc4tjs8,"BOI Norms",1,30,2020-11-05T16:27:25-08:00,48.792443037033,3,"updated stim.csv",Version78.csv,"Version 78","List 78",cop,,2319,4.458333333,635,2320,BOI,-,-,"Please name all of the ways you could use this object. Keep in mind that one object can have many uses. Separate your responses with a comma.",,y,48503,,,3062,46246,,,,"protect, patrol, train, arrest, book, handcuff, drive, help, hurt, kill, save",1
w990145_anh,376rc4tjs8,"BOI Norms",1,31,2020-11-05T16:27:58-08:00,33.00227189064,3,"updated stim.csv",Version78.csv,"Version 78","List 78",sphincter,,2322,4.88,2469,2323,BOI,-,-,"Please name all of the ways you could use this object. Keep in mind that one object can have many uses. Separate your responses with a comma.",,y,32787,,,19951,30828,,,,"protect, close, open",1
w990145_anh,376rc4tjs8,"BOI Norms",1,32,2020-11-05T16:28:17-08:00,19.386324882507,3,"updated stim.csv",Version78.csv,"Version 78","List 78",plantain,,2316,5.409090909,1990,2317,BOI,-,-,"Please name all of the ways you could use this object. Keep in mind that one object can have many uses. Separate your responses with a comma.",,y,19132,,,1586,18254,,,,"eat, cook, fry, bake, grow, harvest, sell, deliver, order",1
w990145_anh,376rc4tjs8,"BOI Norms",1,33,2020-11-05T16:28:23-08:00,6.0921471118927,3,"updated stim.csv",Version78.csv,"Version 78","List 78",roadster,,2329,4.96,2177,2330,BOI,-,-,"Please name all of the ways you could use this object. Keep in mind that one object can have many uses. Separate your responses with a comma.",,y,5884,,,2320,4031,,,,"drive, ride",1
w990145_anh,376rc4tjs8,"BOI Norms",1,34,2020-11-05T16:28:39-08:00,15.762754917145,3,"updated stim.csv",Version78.csv,"Version 78","List 78",bonnet,,2317,6.043478261,269,2318,BOI,-,-,"Please name all of the ways you could use this object. Keep in mind that one object can have many uses. Separate your responses with a comma.",,y,15559,,,1196,9777,,,,"wear, tie, untie, remove",1
w990145_anh,376rc4tjs8,"BOI Norms",1,35,2020-11-05T16:28:59-08:00,19.849049091339,3,"updated stim.csv",Version78.csv,"Version 78","List 78",colleague,,2325,5.724137931,602,2326,BOI,-,-,"Please name all of the ways you could use this object. Keep in mind that one object can have many uses. Separate your responses with a comma.",,y,19640,,,1593,11231,,,,"help, work, talk",1
w990145_anh,376rc4tjs8,"BOI Norms",1,36,2020-11-05T16:29:15-08:00,16.099538087845,3,"updated stim.csv",Version78.csv,"Version 78","List 78",cigarette,,2326,6.272727273,543,2327,BOI,-,-,"Please name all of the ways you could use this object. Keep in mind that one object can have many uses. Separate your responses with a comma.",,y,15844,,,1270,5989,,,,"smoke, discard",1
w990145_anh,376rc4tjs8,"BOI Norms",1,37,2020-11-05T16:29:39-08:00,23.573734998703,3,"updated stim.csv",Version78.csv,"Version 78","List 78",urn,,2338,4.791666667,2829,2339,BOI,-,-,"Please name all of the ways you could use this object. Keep in mind that one object can have many uses. Separate your responses with a comma.",,y,23313,,,3597,20635,,,,"keep, hold, contain, close, open, protect, decorate",1
w990145_anh,376rc4tjs8,"BOI Norms",1,38,2020-11-05T16:30:09-08:00,30.485682964325,3,"updated stim.csv",Version78.csv,"Version 78","List 78",silverware,,2315,6.24,2383,2316,BOI,-,-,"Please name all of the ways you could use this object. Keep in mind that one object can have many uses. Separate your responses with a comma.",,y,30259,,,1139,23044,,,,"eat, scoop, cut, stab, scrape, mash",1
w990145_anh,376rc4tjs8,"BOI Norms",1,39,2020-11-05T16:30:21-08:00,12.274828910828,3,"updated stim.csv",Version78.csv,"Version 78","List 78",turkey,,2339,4.833333333,2801,2340,BOI,-,-,"Please name all of the ways you could use this object. Keep in mind that one object can have many uses. Separate your responses with a comma.",,y,12006,,,2397,8116,,,,"eat, hunt, keep",1
w990145_anh,376rc4tjs8,"BOI Norms",1,40,2020-11-05T16:31:03-08:00,41.186810970306,3,"updated stim.csv",Version78.csv,"Version 78","List 78",rug,,2318,6.173913043,2204,2319,BOI,-,-,"Please name all of the ways you could use this object. Keep in mind that one object can have many uses. Separate your responses with a comma.",,y,40956,,,1753,40038,,,,"walk on, sleep on, clean, dry, decorate, cover, buy, sell, give, receive, ruin",1
w990145_anh,376rc4tjs8,"BOI Norms",1,41,2020-11-05T16:31:04-08:00,1.6720671653748,3,"updated stim.csv",Version78.csv,"Version 78","List 78",,,,,,0,Instruct,,,"You will now be asked a few questions about your experience today.",,"Instruct 4",1469,,,-1,-1,,,,,1
