Username,ID,ExperimentName,Session,Trial,Date,TimeDif,"Condition Number","Stimuli File","Order File","Condition Description","Condition Notes",Stimuli*Cue,Stimuli*Answer,Stimuli*Shuffle,"Stimuli*Stimuli Notes",Stimuli*Value,Procedure*Item,"Procedure*Trial Type","Procedure*Max Time","Procedure*Min Time",Procedure*Text,"Procedure*Procedure Notes",Procedure*Shuffle,Response*RT,Response*Response,Response*Accuracy,Response*RTfirst,Response*RTlast,Response*strictAcc,Response*lenientAcc,Response*focus,Response*JOL,Response*Focus
w10063921_zjc,sz6iic54kr,"BOI Norms",1,1,2020-11-20T22:55:25-08:00,12.185661077499,7,"updated stim.csv",Version57.csv,"Version 57","List 57",,,,,,0,Instruct,-,10,"In this section, you will be presented with a series of objects. Please name as many possible uses for this object as you can think of by typing them in the box below each object.",,Instruct1,11965,,,-1,-1,,,,,1
w10063921_zjc,sz6iic54kr,"BOI Norms",1,2,2020-11-20T22:55:36-08:00,10.723784923553,7,"updated stim.csv",Version57.csv,"Version 57","List 57",,,,,,0,Instruct,-,10,"Please keep in mind that a single object will have more than one use. For example, a ball can be thrown or can be bounced or even stepped on. When listing multiple uses for one object, please separate each use with a comma (i.e., thrown, bounced, stepped on)",,Instruct2,10451,,,-1,-1,,,,,1
w10063921_zjc,sz6iic54kr,"BOI Norms",1,3,2020-11-20T22:55:41-08:00,4.6101641654968,7,"updated stim.csv",Version57.csv,"Version 57","List 57",,,,,,0,Instruct,-,-,"Before starting the experiment, you will complete a short practice sesstion. Press ENTER when you are ready to begin.",,Instruct3,4343,,,-1,-1,,,,,1
w10063921_zjc,sz6iic54kr,"BOI Norms",1,4,2020-11-20T22:56:06-08:00,25.400259971619,7,"updated stim.csv",Version57.csv,"Version 57","List 57",grain,,3004,5.217391304,1143,3005,BOI,-,-,"Please name all of the ways you could use this object. Keep in mind that one object can have many uses. Separate your responses with a comma.",,n,25065,,,3474,17922,,,,"cook, eat, chew, grow",1
w10063921_zjc,sz6iic54kr,"BOI Norms",1,5,2020-11-20T22:56:31-08:00,24.897969007492,7,"updated stim.csv",Version57.csv,"Version 57","List 57",saucer,,3005,5.777777778,2249,3006,BOI,-,-,"Please name all of the ways you could use this object. Keep in mind that one object can have many uses. Separate your responses with a comma.",,n,24375,,,4293,20537,,,,"hold, break, throw",1
w10063921_zjc,sz6iic54kr,"BOI Norms",1,6,2020-11-20T22:56:55-08:00,24.431355953217,7,"updated stim.csv",Version57.csv,"Version 57","List 57",shortening,,3002,4.92,2358,3003,BOI,-,-,"Please name all of the ways you could use this object. Keep in mind that one object can have many uses. Separate your responses with a comma.",,n,23649,,,10263,21761,,,,adjective,1
w10063921_zjc,sz6iic54kr,"BOI Norms",1,7,2020-11-20T22:57:21-08:00,25.609233856201,7,"updated stim.csv",Version57.csv,"Version 57","List 57",paperwork,,3001,5.625,1866,3002,BOI,-,-,"Please name all of the ways you could use this object. Keep in mind that one object can have many uses. Separate your responses with a comma.",,n,25335,,,11658,24124,,,,"school, work, file, copy, email",1
w10063921_zjc,sz6iic54kr,"BOI Norms",1,8,2020-11-20T22:57:47-08:00,26.363800048828,7,"updated stim.csv",Version57.csv,"Version 57","List 57",spaghetti,,3003,6,2461,3004,BOI,-,-,"Please name all of the ways you could use this object. Keep in mind that one object can have many uses. Separate your responses with a comma.",,n,26085,,,1599,25373,,,,"cook, eat, slurp, twist, chew, boil",1
w10063921_zjc,sz6iic54kr,"BOI Norms",1,9,2020-11-20T22:57:49-08:00,1.3547060489655,7,"updated stim.csv",Version57.csv,"Version 57","List 57",,,,,,0,Instruct,-,-,"You have completed this section. Press ENTER to continue",,"Instruct 5",1133,,,-1,-1,,,,,1
w10063921_zjc,sz6iic54kr,"BOI Norms",1,10,2020-11-20T22:57:51-08:00,1.8050999641418,7,"updated stim.csv",Version57.csv,"Version 57","List 57",,,,,,0,Instruct,-,-,"You will now start the full experiment. Press ENTER when you are ready to begin.",,,1579,,,-1,-1,,,,,1
w10063921_zjc,sz6iic54kr,"BOI Norms",1,11,2020-11-20T22:58:00-08:00,9.9617109298706,7,"updated stim.csv",Version57.csv,"Version 57","List 57",throne,,1707,5.217391304,2686,1708,BOI,-,-,"Please name all of the ways you could use this object. Keep in mind that one object can have many uses. Separate your responses with a comma.",,y,9684,,,2055,8151,,,,"sit, move, ",1
w10063921_zjc,sz6iic54kr,"BOI Norms",1,12,2020-11-20T22:58:15-08:00,14.306423187256,7,"updated stim.csv",Version57.csv,"Version 57","List 57",frosting,,1709,5,1059,1710,BOI,-,-,"Please name all of the ways you could use this object. Keep in mind that one object can have many uses. Separate your responses with a comma.",,y,14038,,,2756,13887,,,,"eat, cook, bake, place",1
w10063921_zjc,sz6iic54kr,"BOI Norms",1,13,2020-11-20T22:58:23-08:00,8.4236688613892,7,"updated stim.csv",Version57.csv,"Version 57","List 57",cornflower,,1692,4.739130435,648,1693,BOI,-,-,"Please name all of the ways you could use this object. Keep in mind that one object can have many uses. Separate your responses with a comma.",,y,8126,,,1826,6781,,,,"eat, cook, ",1
w10063921_zjc,sz6iic54kr,"BOI Norms",1,14,2020-11-20T22:58:29-08:00,5.4381680488586,7,"updated stim.csv",Version57.csv,"Version 57","List 57",corsage,,1689,5.782608696,652,1690,BOI,-,-,"Please name all of the ways you could use this object. Keep in mind that one object can have many uses. Separate your responses with a comma.",,y,5228,,,1718,2468,,,,wear,1
w10063921_zjc,sz6iic54kr,"BOI Norms",1,15,2020-11-20T22:58:42-08:00,13.623907089233,7,"updated stim.csv",Version57.csv,"Version 57","List 57",orchid,,1696,4.68,1817,1697,BOI,-,-,"Please name all of the ways you could use this object. Keep in mind that one object can have many uses. Separate your responses with a comma.",,y,13376,,,2387,12861,,,,"pick, grow, smell, wear",1
w10063921_zjc,sz6iic54kr,"BOI Norms",1,16,2020-11-20T22:59:02-08:00,19.263267993927,7,"updated stim.csv",Version57.csv,"Version 57","List 57",gooseberry,,1705,5.041666667,1139,1706,BOI,-,-,"Please name all of the ways you could use this object. Keep in mind that one object can have many uses. Separate your responses with a comma.",,y,18984,,,1897,18492,,,,"eat, bake, cook, smell, grow, buy, sell",1
w10063921_zjc,sz6iic54kr,"BOI Norms",1,17,2020-11-20T22:59:17-08:00,14.988664865494,7,"updated stim.csv",Version57.csv,"Version 57","List 57",cosmetics,,1703,5.75,656,1704,BOI,-,-,"Please name all of the ways you could use this object. Keep in mind that one object can have many uses. Separate your responses with a comma.",,y,14714,,,1779,13946,,,,"wear, sell, buy, spill,",1
w10063921_zjc,sz6iic54kr,"BOI Norms",1,18,2020-11-20T22:59:21-08:00,4.33340716362,7,"updated stim.csv",Version57.csv,"Version 57","List 57",potpourri,,1702,5.333333333,2049,1703,BOI,-,-,"Please name all of the ways you could use this object. Keep in mind that one object can have many uses. Separate your responses with a comma.",,y,4072,,,3381,3884,,,,cook,1
w10063921_zjc,sz6iic54kr,"BOI Norms",1,19,2020-11-20T22:59:25-08:00,4.4319899082184,7,"updated stim.csv",Version57.csv,"Version 57","List 57",knapsack,,1699,5.84,1432,1700,BOI,-,-,"Please name all of the ways you could use this object. Keep in mind that one object can have many uses. Separate your responses with a comma.",,y,4201,,,3297,3976,,,,sleep,1
w10063921_zjc,sz6iic54kr,"BOI Norms",1,20,2020-11-20T22:59:41-08:00,15.799791097641,7,"updated stim.csv",Version57.csv,"Version 57","List 57",panties,,1683,5.791666667,1859,1684,BOI,-,-,"Please name all of the ways you could use this object. Keep in mind that one object can have many uses. Separate your responses with a comma.",,y,15537,,,1307,15208,,,,"wear, wash, dry, clean, buy, sell",1
w10063921_zjc,sz6iic54kr,"BOI Norms",1,21,2020-11-20T22:59:54-08:00,12.602114915848,7,"updated stim.csv",Version57.csv,"Version 57","List 57",vanilla,,1693,4.518518519,2837,1694,BOI,-,-,"Please name all of the ways you could use this object. Keep in mind that one object can have many uses. Separate your responses with a comma.",,y,12340,,,1448,11781,,,,"eat, smell, bake, buy",1
w10063921_zjc,sz6iic54kr,"BOI Norms",1,22,2020-11-20T23:00:01-08:00,7.6641268730164,7,"updated stim.csv",Version57.csv,"Version 57","List 57",banknote,,1685,4.52173913,144,1686,BOI,-,-,"Please name all of the ways you could use this object. Keep in mind that one object can have many uses. Separate your responses with a comma.",,y,7394,,,5864,7023,,,,collect,1
w10063921_zjc,sz6iic54kr,"BOI Norms",1,23,2020-11-20T23:00:28-08:00,26.720427036285,7,"updated stim.csv",Version57.csv,"Version 57","List 57",cannabis,,1684,5.666666667,415,1685,BOI,-,-,"Please name all of the ways you could use this object. Keep in mind that one object can have many uses. Separate your responses with a comma.",,y,26459,,,2534,26201,,,,"smoke, vapor, eat, smell, taste, grow, buy, sell",1
w10063921_zjc,sz6iic54kr,"BOI Norms",1,24,2020-11-20T23:00:42-08:00,13.489392995834,7,"updated stim.csv",Version57.csv,"Version 57","List 57",marbles,,1704,5.75,1603,1705,BOI,-,-,"Please name all of the ways you could use this object. Keep in mind that one object can have many uses. Separate your responses with a comma.",,y,13242,,,2345,12481,,,,"hear, shake, play, roll, throw",1
w10063921_zjc,sz6iic54kr,"BOI Norms",1,25,2020-11-20T23:00:59-08:00,17.656089067459,7,"updated stim.csv",Version57.csv,"Version 57","List 57",mascot,,1706,4.32,1613,1707,BOI,-,-,"Please name all of the ways you could use this object. Keep in mind that one object can have many uses. Separate your responses with a comma.",,y,17416,,,5443,14326,,,,"school, team, wear, animal, ",1
w10063921_zjc,sz6iic54kr,"BOI Norms",1,26,2020-11-20T23:01:23-08:00,24.280183076859,7,"updated stim.csv",Version57.csv,"Version 57","List 57",mustache,,1690,5.620689655,1726,1691,BOI,-,-,"Please name all of the ways you could use this object. Keep in mind that one object can have many uses. Separate your responses with a comma.",,y,24005,,,2935,23408,,,,"wear, cut, trim, shave, comb, brush",1
w10063921_zjc,sz6iic54kr,"BOI Norms",1,27,2020-11-20T23:01:36-08:00,12.024293899536,7,"updated stim.csv",Version57.csv,"Version 57","List 57",blowtorch,,1686,5.541666667,248,1687,BOI,-,-,"Please name all of the ways you could use this object. Keep in mind that one object can have many uses. Separate your responses with a comma.",,y,11768,,,4964,10480,,,,"burn, scorch, ",1
w10063921_zjc,sz6iic54kr,"BOI Norms",1,28,2020-11-20T23:01:51-08:00,15.071443080902,7,"updated stim.csv",Version57.csv,"Version 57","List 57",newsreader,,1710,4.826086957,1763,1711,BOI,-,-,"Please name all of the ways you could use this object. Keep in mind that one object can have many uses. Separate your responses with a comma.",,y,14816,,,1881,13018,,,,"read, tell, view, ",1
w10063921_zjc,sz6iic54kr,"BOI Norms",1,29,2020-11-20T23:01:59-08:00,8.4671950340271,7,"updated stim.csv",Version57.csv,"Version 57","List 57",projector,,1701,5.086956522,2072,1702,BOI,-,-,"Please name all of the ways you could use this object. Keep in mind that one object can have many uses. Separate your responses with a comma.",,y,8252,,,2340,6741,,,,"view, break, ",1
w10063921_zjc,sz6iic54kr,"BOI Norms",1,30,2020-11-20T23:02:10-08:00,10.544019937515,7,"updated stim.csv",Version57.csv,"Version 57","List 57",lubricant,,1681,5.76,1554,1682,BOI,-,-,"Please name all of the ways you could use this object. Keep in mind that one object can have many uses. Separate your responses with a comma.",,y,10234,,,4358,8389,,,,"put on, use, ",1
w10063921_zjc,sz6iic54kr,"BOI Norms",1,31,2020-11-20T23:02:19-08:00,9.1730859279633,7,"updated stim.csv",Version57.csv,"Version 57","List 57",collarbone,,1708,5.48,601,1709,BOI,-,-,"Please name all of the ways you could use this object. Keep in mind that one object can have many uses. Separate your responses with a comma.",,y,8932,,,2589,6344,,,,break,1
w10063921_zjc,sz6iic54kr,"BOI Norms",1,32,2020-11-20T23:02:33-08:00,14.009209156036,7,"updated stim.csv",Version57.csv,"Version 57","List 57",knob,,1694,5.888888889,1437,1695,BOI,-,-,"Please name all of the ways you could use this object. Keep in mind that one object can have many uses. Separate your responses with a comma.",,y,13733,,,1606,13044,,,,"twist, push, pull",1
w10063921_zjc,sz6iic54kr,"BOI Norms",1,33,2020-11-20T23:02:42-08:00,9.5851428508759,7,"updated stim.csv",Version57.csv,"Version 57","List 57",fishpond,,1695,4.791666667,992,1696,BOI,-,-,"Please name all of the ways you could use this object. Keep in mind that one object can have many uses. Separate your responses with a comma.",,y,9298,,,2282,9034,,,,"fish, swim, sit",1
w10063921_zjc,sz6iic54kr,"BOI Norms",1,34,2020-11-20T23:02:55-08:00,12.349386930466,7,"updated stim.csv",Version57.csv,"Version 57","List 57",bowl,,1688,6.16,292,1689,BOI,-,-,"Please name all of the ways you could use this object. Keep in mind that one object can have many uses. Separate your responses with a comma.",,y,12079,,,4675,11847,,,,"hold, cook, bake, ",1
w10063921_zjc,sz6iic54kr,"BOI Norms",1,35,2020-11-20T23:03:06-08:00,11.06186914444,7,"updated stim.csv",Version57.csv,"Version 57","List 57",speedboat,,1698,5.434782609,2468,1699,BOI,-,-,"Please name all of the ways you could use this object. Keep in mind that one object can have many uses. Separate your responses with a comma.",,y,10735,,,2355,6453,,,,"water, fun, ",1
w10063921_zjc,sz6iic54kr,"BOI Norms",1,36,2020-11-20T23:03:20-08:00,14.721359968185,7,"updated stim.csv",Version57.csv,"Version 57","List 57",basketball,,1687,6.25,163,1688,BOI,-,-,"Please name all of the ways you could use this object. Keep in mind that one object can have many uses. Separate your responses with a comma.",,y,14474,,,1670,7976,,,,"bounce, throw, catch, ",1
w10063921_zjc,sz6iic54kr,"BOI Norms",1,37,2020-11-20T23:03:44-08:00,23.128503084183,7,"updated stim.csv",Version57.csv,"Version 57","List 57",plate,,1682,5.590909091,1996,1683,BOI,-,-,"Please name all of the ways you could use this object. Keep in mind that one object can have many uses. Separate your responses with a comma.",,y,22842,,,1718,22562,,,,"hold, food, cook, bake, break, throw, drop",1
w10063921_zjc,sz6iic54kr,"BOI Norms",1,38,2020-11-20T23:03:55-08:00,11.146354913712,7,"updated stim.csv",Version57.csv,"Version 57","List 57",almond,,1691,5.714285714,29,1692,BOI,-,-,"Please name all of the ways you could use this object. Keep in mind that one object can have many uses. Separate your responses with a comma.",,y,10878,,,1466,9934,,,,"eat, chew, cook, bake, buy,",1
w10063921_zjc,sz6iic54kr,"BOI Norms",1,39,2020-11-20T23:04:12-08:00,17.150410890579,7,"updated stim.csv",Version57.csv,"Version 57","List 57",clamshell,,1700,4.347826087,547,1701,BOI,-,-,"Please name all of the ways you could use this object. Keep in mind that one object can have many uses. Separate your responses with a comma.",,y,16864,,,4549,15706,,,,"search, pick, beach, ",1
w10063921_zjc,sz6iic54kr,"BOI Norms",1,40,2020-11-20T23:04:16-08:00,4.0377140045166,7,"updated stim.csv",Version57.csv,"Version 57","List 57",Platform,,1697,4.579514825,1997,1698,BOI,-,-,"Please name all of the ways you could use this object. Keep in mind that one object can have many uses. Separate your responses with a comma.",,y,3812,,,2540,3662,,,,stand,1
w10063921_zjc,sz6iic54kr,"BOI Norms",1,41,2020-11-20T23:04:18-08:00,1.8705840110779,7,"updated stim.csv",Version57.csv,"Version 57","List 57",,,,,,0,Instruct,,,"You will now be asked a few questions about your experience today.",,"Instruct 4",1659,,,-1,-1,,,,,1
