Username,ID,ExperimentName,Session,Trial,Date,TimeDif,"Condition Number","Stimuli File","Order File","Condition Description","Condition Notes",Stimuli*Cue,Stimuli*Answer,Stimuli*Shuffle,"Stimuli*Stimuli Notes",Stimuli*Value,Procedure*Item,"Procedure*Trial Type","Procedure*Max Time","Procedure*Min Time",Procedure*Text,"Procedure*Procedure Notes",Procedure*Shuffle,Response*RT,Response*Response,Response*Accuracy,Response*RTfirst,Response*RTlast,Response*strictAcc,Response*lenientAcc,Response*focus,Response*JOL,Response*Focus
samantha.g.sullivan@uconn.edu,b2lqooe6fi,"Affordance Norms_UCONN",1,1,2022-11-14T17:36:04+00:00,11.747367143631,25,"updated stim.csv",Version75.csv,"Version 75","List 75",,,,,,0,Instruct,-,10,"In this section, you will be presented with a series of objects. Please name as many possible uses for this object as you can think of by typing them in the box below each object.",,Instruct1,11516,,,-1,-1,,,,,1
samantha.g.sullivan@uconn.edu,b2lqooe6fi,"Affordance Norms_UCONN",1,2,2022-11-14T17:36:16+00:00,11.449949026108,25,"updated stim.csv",Version75.csv,"Version 75","List 75",,,,,,0,Instruct,-,10,"Please keep in mind that a single object will have more than one use. For example, a ball can be thrown or can be bounced or even stepped on. When listing multiple uses for one object, please separate each use with a comma (i.e., thrown, bounced, stepped on)",,Instruct2,11109,,,-1,-1,,,,,1
samantha.g.sullivan@uconn.edu,b2lqooe6fi,"Affordance Norms_UCONN",1,3,2022-11-14T17:36:18+00:00,1.6924419403076,25,"updated stim.csv",Version75.csv,"Version 75","List 75",,,,,,0,Instruct,-,-,"Before starting the experiment, you will complete a short practice sesstion. Press ENTER when you are ready to begin.",,Instruct3,1494,,,-1,-1,,,,,1
samantha.g.sullivan@uconn.edu,b2lqooe6fi,"Affordance Norms_UCONN",1,4,2022-11-14T17:36:35+00:00,17.397551059723,25,"updated stim.csv",Version75.csv,"Version 75","List 75",shortening,,3002,4.92,2358,3003,BOI,-,-,"Please name all of the ways you could use this object. Keep in mind that one object can have many uses. Separate your responses with a comma.",,n,17052,,,9604,16134,,,,"Cooking baking ",1
samantha.g.sullivan@uconn.edu,b2lqooe6fi,"Affordance Norms_UCONN",1,5,2022-11-14T17:36:52+00:00,16.984345912933,25,"updated stim.csv",Version75.csv,"Version 75","List 75",grain,,3004,5.217391304,1143,3005,BOI,-,-,"Please name all of the ways you could use this object. Keep in mind that one object can have many uses. Separate your responses with a comma.",,n,16616,,,-1,-1,,,,,1
samantha.g.sullivan@uconn.edu,b2lqooe6fi,"Affordance Norms_UCONN",1,6,2022-11-14T17:37:04+00:00,11.987859010696,25,"updated stim.csv",Version75.csv,"Version 75","List 75",spaghetti,,3003,6,2461,3004,BOI,-,-,"Please name all of the ways you could use this object. Keep in mind that one object can have many uses. Separate your responses with a comma.",,n,11637,,,2523,10620,,,,"Food, cooking, hungry",1
samantha.g.sullivan@uconn.edu,b2lqooe6fi,"Affordance Norms_UCONN",1,7,2022-11-14T17:37:07+00:00,3.0009219646454,25,"updated stim.csv",Version75.csv,"Version 75","List 75",saucer,,3005,5.777777778,2249,3006,BOI,-,-,"Please name all of the ways you could use this object. Keep in mind that one object can have many uses. Separate your responses with a comma.",,n,2811,,,-1,-1,,,,,1
samantha.g.sullivan@uconn.edu,b2lqooe6fi,"Affordance Norms_UCONN",1,8,2022-11-14T17:37:15+00:00,7.7412979602814,25,"updated stim.csv",Version75.csv,"Version 75","List 75",paperwork,,3001,5.625,1866,3002,BOI,-,-,"Please name all of the ways you could use this object. Keep in mind that one object can have many uses. Separate your responses with a comma.",,n,7339,,,2374,6037,,,,"School, work",1
samantha.g.sullivan@uconn.edu,b2lqooe6fi,"Affordance Norms_UCONN",1,9,2022-11-14T17:37:23+00:00,8.4050080776215,25,"updated stim.csv",Version75.csv,"Version 75","List 75",,,,,,0,Instruct,-,-,"You have completed this section. Press ENTER to continue",,"Instruct 5",8095,,,-1,-1,,,,,1
samantha.g.sullivan@uconn.edu,b2lqooe6fi,"Affordance Norms_UCONN",1,10,2022-11-14T17:37:27+00:00,3.8053319454193,25,"updated stim.csv",Version75.csv,"Version 75","List 75",,,,,,0,Instruct,-,-,"You will now start the full experiment. Press ENTER when you are ready to begin.",,,3604,,,-1,-1,,,,,1
samantha.g.sullivan@uconn.edu,b2lqooe6fi,"Affordance Norms_UCONN",1,11,2022-11-14T17:37:40+00:00,13.26086306572,25,"updated stim.csv",Version75.csv,"Version 75","List 75",anchor,,2232,5.739130435,39,2233,BOI,-,-,"Please name all of the ways you could use this object. Keep in mind that one object can have many uses. Separate your responses with a comma.",,y,12918,,,3685,11999,,,,"Boat, fishing",1
samantha.g.sullivan@uconn.edu,b2lqooe6fi,"Affordance Norms_UCONN",1,12,2022-11-14T17:38:04+00:00,24.317188024521,25,"updated stim.csv",Version75.csv,"Version 75","List 75",whisk,,2247,6,2927,2248,BOI,-,-,"Please name all of the ways you could use this object. Keep in mind that one object can have many uses. Separate your responses with a comma.",,y,24000,,,18350,21812,,,,"Cooking, baking ",1
samantha.g.sullivan@uconn.edu,b2lqooe6fi,"Affordance Norms_UCONN",1,13,2022-11-14T17:38:18+00:00,13.758037090302,25,"updated stim.csv",Version75.csv,"Version 75","List 75",ingredients,,2227,4.958333333,1355,2228,BOI,-,-,"Please name all of the ways you could use this object. Keep in mind that one object can have many uses. Separate your responses with a comma.",,y,13388,,,2638,11386,,,,"Baking, follow a recipe ",1
samantha.g.sullivan@uconn.edu,b2lqooe6fi,"Affordance Norms_UCONN",1,14,2022-11-14T17:38:30+00:00,11.361984968185,25,"updated stim.csv",Version75.csv,"Version 75","List 75",veterinarian,,2231,5.074074074,2854,2232,BOI,-,-,"Please name all of the ways you could use this object. Keep in mind that one object can have many uses. Separate your responses with a comma.",,y,10794,,,3561,9713,,,,"Help animals ",1
samantha.g.sullivan@uconn.edu,b2lqooe6fi,"Affordance Norms_UCONN",1,15,2022-11-14T17:38:51+00:00,21.777691841125,25,"updated stim.csv",Version75.csv,"Version 75","List 75",model,,2235,5.086956522,1674,2236,BOI,-,-,"Please name all of the ways you could use this object. Keep in mind that one object can have many uses. Separate your responses with a comma.",,y,21426,,,19427,20409,,,,Fashion,1
samantha.g.sullivan@uconn.edu,b2lqooe6fi,"Affordance Norms_UCONN",1,16,2022-11-14T17:39:06+00:00,14.879484176636,25,"updated stim.csv",Version75.csv,"Version 75","List 75",shotgun,,2234,5.826086957,2361,2235,BOI,-,-,"Please name all of the ways you could use this object. Keep in mind that one object can have many uses. Separate your responses with a comma.",,y,14529,,,10213,13685,,,,"Going for a ride ",0.89
samantha.g.sullivan@uconn.edu,b2lqooe6fi,"Affordance Norms_UCONN",1,17,2022-11-14T17:39:16+00:00,9.5137588977814,25,"updated stim.csv",Version75.csv,"Version 75","List 75",shinbone,,2222,4.826086957,2340,2223,BOI,-,-,"Please name all of the ways you could use this object. Keep in mind that one object can have many uses. Separate your responses with a comma.",,y,9129,,,4857,8212,,,,Stretching,1
samantha.g.sullivan@uconn.edu,b2lqooe6fi,"Affordance Norms_UCONN",1,18,2022-11-14T17:39:23+00:00,7.744323015213,25,"updated stim.csv",Version75.csv,"Version 75","List 75",cookhouse,,2237,4.423076923,632,2238,BOI,-,-,"Please name all of the ways you could use this object. Keep in mind that one object can have many uses. Separate your responses with a comma.",,y,7410,,,-1,-1,,,,,1
samantha.g.sullivan@uconn.edu,b2lqooe6fi,"Affordance Norms_UCONN",1,19,2022-11-14T17:39:35+00:00,11.120100021362,25,"updated stim.csv",Version75.csv,"Version 75","List 75",wig,,2242,5.913043478,2935,2243,BOI,-,-,"Please name all of the ways you could use this object. Keep in mind that one object can have many uses. Separate your responses with a comma.",,y,10735,,,2536,9817,,,,"Show, dress up",1
samantha.g.sullivan@uconn.edu,b2lqooe6fi,"Affordance Norms_UCONN",1,20,2022-11-14T17:39:42+00:00,7.1805219650269,25,"updated stim.csv",Version75.csv,"Version 75","List 75",rattle,,2248,4.409090909,2140,2249,BOI,-,-,"Please name all of the ways you could use this object. Keep in mind that one object can have many uses. Separate your responses with a comma.",,y,6719,,,-1,-1,,,,,1
samantha.g.sullivan@uconn.edu,b2lqooe6fi,"Affordance Norms_UCONN",1,21,2022-11-14T17:39:48+00:00,6.2413198947906,25,"updated stim.csv",Version75.csv,"Version 75","List 75",vehicle,,2239,6.173913043,2843,2240,BOI,-,-,"Please name all of the ways you could use this object. Keep in mind that one object can have many uses. Separate your responses with a comma.",,y,5829,,,3762,4724,,,,"A drive ",1
samantha.g.sullivan@uconn.edu,b2lqooe6fi,"Affordance Norms_UCONN",1,22,2022-11-14T17:39:53+00:00,5.010222196579,25,"updated stim.csv",Version75.csv,"Version 75","List 75",motorbike,,2223,6.347826087,1694,2224,BOI,-,-,"Please name all of the ways you could use this object. Keep in mind that one object can have many uses. Separate your responses with a comma.",,y,4585,,,2717,3812,,,,"Drive ",1
samantha.g.sullivan@uconn.edu,b2lqooe6fi,"Affordance Norms_UCONN",1,23,2022-11-14T17:39:55+00:00,1.9083669185638,25,"updated stim.csv",Version75.csv,"Version 75","List 75",waxwork,,2228,4.3,2913,2229,BOI,-,-,"Please name all of the ways you could use this object. Keep in mind that one object can have many uses. Separate your responses with a comma.",,y,1685,,,-1,-1,,,,,1
samantha.g.sullivan@uconn.edu,b2lqooe6fi,"Affordance Norms_UCONN",1,24,2022-11-14T17:39:57+00:00,1.5480780601501,25,"updated stim.csv",Version75.csv,"Version 75","List 75",washboard,,2250,5.208333333,2896,2251,BOI,-,-,"Please name all of the ways you could use this object. Keep in mind that one object can have many uses. Separate your responses with a comma.",,y,1358,,,-1,-1,,,,,1
samantha.g.sullivan@uconn.edu,b2lqooe6fi,"Affordance Norms_UCONN",1,25,2022-11-14T17:40:03+00:00,6.04456782341,25,"updated stim.csv",Version75.csv,"Version 75","List 75",substance,,2240,4.47826087,2576,2241,BOI,-,-,"Please name all of the ways you could use this object. Keep in mind that one object can have many uses. Separate your responses with a comma.",,y,5680,,,4281,4814,,,,"Lab ",1
samantha.g.sullivan@uconn.edu,b2lqooe6fi,"Affordance Norms_UCONN",1,26,2022-11-14T17:40:07+00:00,4.5980861186981,25,"updated stim.csv",Version75.csv,"Version 75","List 75",pottery,,2241,5.458333333,2050,2242,BOI,-,-,"Please name all of the ways you could use this object. Keep in mind that one object can have many uses. Separate your responses with a comma.",,y,4186,,,2220,3300,,,,"Painting ",1
samantha.g.sullivan@uconn.edu,b2lqooe6fi,"Affordance Norms_UCONN",1,27,2022-11-14T17:40:10+00:00,2.7059600353241,25,"updated stim.csv",Version75.csv,"Version 75","List 75",moth,,2225,4.84,1690,2226,BOI,-,-,"Please name all of the ways you could use this object. Keep in mind that one object can have many uses. Separate your responses with a comma.",,y,2495,,,-1,-1,,,,,1
samantha.g.sullivan@uconn.edu,b2lqooe6fi,"Affordance Norms_UCONN",1,28,2022-11-14T17:40:12+00:00,1.6983959674835,25,"updated stim.csv",Version75.csv,"Version 75","List 75",denim,,2238,5.416666667,773,2239,BOI,-,-,"Please name all of the ways you could use this object. Keep in mind that one object can have many uses. Separate your responses with a comma.",,y,1485,,,-1,-1,,,,,1
samantha.g.sullivan@uconn.edu,b2lqooe6fi,"Affordance Norms_UCONN",1,29,2022-11-14T17:40:27+00:00,15.673390865326,25,"updated stim.csv",Version75.csv,"Version 75","List 75",lice,,2229,5,1500,2230,BOI,-,-,"Please name all of the ways you could use this object. Keep in mind that one object can have many uses. Separate your responses with a comma.",,y,15298,,,-1,-1,,,,,1
samantha.g.sullivan@uconn.edu,b2lqooe6fi,"Affordance Norms_UCONN",1,30,2022-11-14T17:40:37+00:00,10.056890010834,25,"updated stim.csv",Version75.csv,"Version 75","List 75",laundry,,2221,6.208333333,1472,2222,BOI,-,-,"Please name all of the ways you could use this object. Keep in mind that one object can have many uses. Separate your responses with a comma.",,y,9679,,,5493,7926,,,,"Clean clothes ",1
samantha.g.sullivan@uconn.edu,b2lqooe6fi,"Affordance Norms_UCONN",1,31,2022-11-14T17:40:42+00:00,4.8616151809692,25,"updated stim.csv",Version75.csv,"Version 75","List 75",fudge,,2224,5.68,1063,2225,BOI,-,-,"Please name all of the ways you could use this object. Keep in mind that one object can have many uses. Separate your responses with a comma.",,y,4455,,,2689,3518,,,,"Eating ",1
samantha.g.sullivan@uconn.edu,b2lqooe6fi,"Affordance Norms_UCONN",1,32,2022-11-14T17:40:44+00:00,2.1034259796143,25,"updated stim.csv",Version75.csv,"Version 75","List 75",primate,,2236,4.375,2063,2237,BOI,-,-,"Please name all of the ways you could use this object. Keep in mind that one object can have many uses. Separate your responses with a comma.",,y,1887,,,-1,-1,,,,,1
samantha.g.sullivan@uconn.edu,b2lqooe6fi,"Affordance Norms_UCONN",1,33,2022-11-14T17:40:52+00:00,8.0251889228821,25,"updated stim.csv",Version75.csv,"Version 75","List 75",cheddar,,2246,5.291666667,502,2247,BOI,-,-,"Please name all of the ways you could use this object. Keep in mind that one object can have many uses. Separate your responses with a comma.",,y,7668,,,2150,6680,,,,"Eating, flavor ",1
samantha.g.sullivan@uconn.edu,b2lqooe6fi,"Affordance Norms_UCONN",1,34,2022-11-14T17:41:03+00:00,10.615301132202,25,"updated stim.csv",Version75.csv,"Version 75","List 75",mousetrap,,2226,4.916666667,1702,2227,BOI,-,-,"Please name all of the ways you could use this object. Keep in mind that one object can have many uses. Separate your responses with a comma.",,y,10255,,,7905,9224,,,,"Kill mice ",1
samantha.g.sullivan@uconn.edu,b2lqooe6fi,"Affordance Norms_UCONN",1,35,2022-11-14T17:41:05+00:00,1.8748648166656,25,"updated stim.csv",Version75.csv,"Version 75","List 75",doornail,,2244,5.4,827,2245,BOI,-,-,"Please name all of the ways you could use this object. Keep in mind that one object can have many uses. Separate your responses with a comma.",,y,1645,,,-1,-1,,,,,1
samantha.g.sullivan@uconn.edu,b2lqooe6fi,"Affordance Norms_UCONN",1,36,2022-11-14T17:41:20+00:00,15.410892963409,25,"updated stim.csv",Version75.csv,"Version 75","List 75",kindle,,2243,4.4,1420,2244,BOI,-,-,"Please name all of the ways you could use this object. Keep in mind that one object can have many uses. Separate your responses with a comma.",,y,15091,,,-1,-1,,,,,1
samantha.g.sullivan@uconn.edu,b2lqooe6fi,"Affordance Norms_UCONN",1,37,2022-11-14T17:41:22+00:00,2.0906991958618,25,"updated stim.csv",Version75.csv,"Version 75","List 75",metalworker,,2230,4.8,1651,2231,BOI,-,-,"Please name all of the ways you could use this object. Keep in mind that one object can have many uses. Separate your responses with a comma.",,y,1878,,,-1,-1,,,,,1
samantha.g.sullivan@uconn.edu,b2lqooe6fi,"Affordance Norms_UCONN",1,38,2022-11-14T17:41:24+00:00,1.645171880722,25,"updated stim.csv",Version75.csv,"Version 75","List 75",quiche,,2233,5.727272727,2114,2234,BOI,-,-,"Please name all of the ways you could use this object. Keep in mind that one object can have many uses. Separate your responses with a comma.",,y,1450,,,-1,-1,,,,,1
samantha.g.sullivan@uconn.edu,b2lqooe6fi,"Affordance Norms_UCONN",1,39,2022-11-14T17:41:26+00:00,2.1653029918671,25,"updated stim.csv",Version75.csv,"Version 75","List 75",housefly,,2245,4.541666667,1330,2246,BOI,-,-,"Please name all of the ways you could use this object. Keep in mind that one object can have many uses. Separate your responses with a comma.",,y,1946,,,-1,-1,,,,,1
samantha.g.sullivan@uconn.edu,b2lqooe6fi,"Affordance Norms_UCONN",1,40,2022-11-14T17:41:35+00:00,9.1678941249847,25,"updated stim.csv",Version75.csv,"Version 75","List 75",lavatory,,2249,5.620689655,1473,2250,BOI,-,-,"Please name all of the ways you could use this object. Keep in mind that one object can have many uses. Separate your responses with a comma.",,y,8782,,,2634,7683,,,,"Pee, poop",1
samantha.g.sullivan@uconn.edu,b2lqooe6fi,"Affordance Norms_UCONN",1,41,2022-11-14T17:41:40+00:00,4.4200839996338,25,"updated stim.csv",Version75.csv,"Version 75","List 75",,,,,,0,Instruct,,,"You will now be asked a few questions about your experience today.",,"Instruct 4",4029,,,-1,-1,,,,,1
