Username,ID,ExperimentName,Session,Trial,Date,TimeDif,"Condition Number","Stimuli File","Order File","Condition Description","Condition Notes",Stimuli*Cue,Stimuli*Answer,Stimuli*Shuffle,"Stimuli*Stimuli Notes",Stimuli*Value,Procedure*Item,"Procedure*Trial Type","Procedure*Max Time","Procedure*Min Time",Procedure*Text,"Procedure*Procedure Notes",Procedure*Shuffle,Response*RT,Response*Response,Response*Accuracy,Response*RTfirst,Response*RTlast,Response*strictAcc,Response*lenientAcc,Response*focus,Response*JOL,Response*Focus
dylan.barkasy@uconn.edu,gvav30d53b,"Affordance Norms_UCONN",1,1,2022-11-14T16:50:35+00:00,30.437316894531,9,"updated stim.csv",Version59.csv,"Version 59","List 59",,,,,,0,Instruct,-,10,"In this section, you will be presented with a series of objects. Please name as many possible uses for this object as you can think of by typing them in the box below each object.",,Instruct1,30131,,,-1,-1,,,,,0.461
dylan.barkasy@uconn.edu,gvav30d53b,"Affordance Norms_UCONN",1,2,2022-11-14T16:50:48+00:00,12.747307062149,9,"updated stim.csv",Version59.csv,"Version 59","List 59",,,,,,0,Instruct,-,10,"Please keep in mind that a single object will have more than one use. For example, a ball can be thrown or can be bounced or even stepped on. When listing multiple uses for one object, please separate each use with a comma (i.e., thrown, bounced, stepped on)",,Instruct2,12533,,,-1,-1,,,,,1
dylan.barkasy@uconn.edu,gvav30d53b,"Affordance Norms_UCONN",1,3,2022-11-14T16:50:50+00:00,1.9443860054016,9,"updated stim.csv",Version59.csv,"Version 59","List 59",,,,,,0,Instruct,-,-,"Before starting the experiment, you will complete a short practice sesstion. Press ENTER when you are ready to begin.",,Instruct3,1745,,,-1,-1,,,,,1
dylan.barkasy@uconn.edu,gvav30d53b,"Affordance Norms_UCONN",1,4,2022-11-14T16:50:57+00:00,6.8026299476624,9,"updated stim.csv",Version59.csv,"Version 59","List 59",grain,,3004,5.217391304,1143,3005,BOI,-,-,"Please name all of the ways you could use this object. Keep in mind that one object can have many uses. Separate your responses with a comma.",,n,6614,,,3380,4940,,,,cooking,1
dylan.barkasy@uconn.edu,gvav30d53b,"Affordance Norms_UCONN",1,5,2022-11-14T16:51:06+00:00,8.8325049877167,9,"updated stim.csv",Version59.csv,"Version 59","List 59",saucer,,3005,5.777777778,2249,3006,BOI,-,-,"Please name all of the ways you could use this object. Keep in mind that one object can have many uses. Separate your responses with a comma.",,n,8639,,,3774,7412,,,,"aliens, tea",1
dylan.barkasy@uconn.edu,gvav30d53b,"Affordance Norms_UCONN",1,6,2022-11-14T16:51:13+00:00,7.6278700828552,9,"updated stim.csv",Version59.csv,"Version 59","List 59",shortening,,3002,4.92,2358,3003,BOI,-,-,"Please name all of the ways you could use this object. Keep in mind that one object can have many uses. Separate your responses with a comma.",,n,7437,,,6367,7326,,,,baking,1
dylan.barkasy@uconn.edu,gvav30d53b,"Affordance Norms_UCONN",1,7,2022-11-14T16:51:18+00:00,5.1071479320526,9,"updated stim.csv",Version59.csv,"Version 59","List 59",paperwork,,3001,5.625,1866,3002,BOI,-,-,"Please name all of the ways you could use this object. Keep in mind that one object can have many uses. Separate your responses with a comma.",,n,4885,,,2798,4776,,,,"office, school",1
dylan.barkasy@uconn.edu,gvav30d53b,"Affordance Norms_UCONN",1,8,2022-11-14T16:51:23+00:00,5.130558013916,9,"updated stim.csv",Version59.csv,"Version 59","List 59",spaghetti,,3003,6,2461,3004,BOI,-,-,"Please name all of the ways you could use this object. Keep in mind that one object can have many uses. Separate your responses with a comma.",,n,4767,,,3909,4649,,,,cooking,1
dylan.barkasy@uconn.edu,gvav30d53b,"Affordance Norms_UCONN",1,9,2022-11-14T16:51:24+00:00,1.0145008563995,9,"updated stim.csv",Version59.csv,"Version 59","List 59",,,,,,0,Instruct,-,-,"You have completed this section. Press ENTER to continue",,"Instruct 5",829,,,-1,-1,,,,,1
dylan.barkasy@uconn.edu,gvav30d53b,"Affordance Norms_UCONN",1,10,2022-11-14T16:51:25+00:00,0.66028022766113,9,"updated stim.csv",Version59.csv,"Version 59","List 59",,,,,,0,Instruct,-,-,"You will now start the full experiment. Press ENTER when you are ready to begin.",,,482,,,-1,-1,,,,,1
dylan.barkasy@uconn.edu,gvav30d53b,"Affordance Norms_UCONN",1,11,2022-11-14T16:51:32+00:00,7.0666038990021,9,"updated stim.csv",Version59.csv,"Version 59","List 59",softball,,1761,5.75,2444,1762,BOI,-,-,"Please name all of the ways you could use this object. Keep in mind that one object can have many uses. Separate your responses with a comma.",,y,6896,,,3197,6828,,,,"softball, throwing",1
dylan.barkasy@uconn.edu,gvav30d53b,"Affordance Norms_UCONN",1,12,2022-11-14T16:51:37+00:00,5.2041161060333,9,"updated stim.csv",Version59.csv,"Version 59","List 59",axes,,1764,4.833333333,107,1765,BOI,-,-,"Please name all of the ways you could use this object. Keep in mind that one object can have many uses. Separate your responses with a comma.",,y,5007,,,1387,4904,,,,"throwing, chopping",1
dylan.barkasy@uconn.edu,gvav30d53b,"Affordance Norms_UCONN",1,13,2022-11-14T16:51:42+00:00,5.1732838153839,9,"updated stim.csv",Version59.csv,"Version 59","List 59",bullet,,1741,5.772727273,353,1742,BOI,-,-,"Please name all of the ways you could use this object. Keep in mind that one object can have many uses. Separate your responses with a comma.",,y,4973,,,1338,4699,,,,"shooting, protecting",1
dylan.barkasy@uconn.edu,gvav30d53b,"Affordance Norms_UCONN",1,14,2022-11-14T16:51:48+00:00,5.2999510765076,9,"updated stim.csv",Version59.csv,"Version 59","List 59",electrocardiogram,,1752,4.347826087,898,1753,BOI,-,-,"Please name all of the ways you could use this object. Keep in mind that one object can have many uses. Separate your responses with a comma.",,y,5124,,,1939,4358,,,,"heartbeat, ",1
dylan.barkasy@uconn.edu,gvav30d53b,"Affordance Norms_UCONN",1,15,2022-11-14T16:51:55+00:00,6.9304509162903,9,"updated stim.csv",Version59.csv,"Version 59","List 59",outhouse,,1755,4.64,1829,1756,BOI,-,-,"Please name all of the ways you could use this object. Keep in mind that one object can have many uses. Separate your responses with a comma.",,y,6742,,,1713,5868,,,,"peeing, pooping,",1
dylan.barkasy@uconn.edu,gvav30d53b,"Affordance Norms_UCONN",1,16,2022-11-14T16:52:02+00:00,7.0284061431885,9,"updated stim.csv",Version59.csv,"Version 59","List 59",holder,,1767,4.28,1296,1768,BOI,-,-,"Please name all of the ways you could use this object. Keep in mind that one object can have many uses. Separate your responses with a comma.",,y,6834,,,-1,-1,,,,,1
dylan.barkasy@uconn.edu,gvav30d53b,"Affordance Norms_UCONN",1,17,2022-11-14T16:52:05+00:00,3.3660650253296,9,"updated stim.csv",Version59.csv,"Version 59","List 59",stagecoach,,1769,4.538461538,2498,1770,BOI,-,-,"Please name all of the ways you could use this object. Keep in mind that one object can have many uses. Separate your responses with a comma.",,y,3183,,,2009,2877,,,,"riding, ",1
dylan.barkasy@uconn.edu,gvav30d53b,"Affordance Norms_UCONN",1,18,2022-11-14T16:52:10+00:00,4.9197158813477,9,"updated stim.csv",Version59.csv,"Version 59","List 59",honeysuckle,,1759,5.375,1305,1760,BOI,-,-,"Please name all of the ways you could use this object. Keep in mind that one object can have many uses. Separate your responses with a comma.",,y,4724,,,2678,4595,,,,sweetening,1
dylan.barkasy@uconn.edu,gvav30d53b,"Affordance Norms_UCONN",1,19,2022-11-14T16:52:15+00:00,4.836394071579,9,"updated stim.csv",Version59.csv,"Version 59","List 59",stirrer,,1745,4.615384615,2537,1746,BOI,-,-,"Please name all of the ways you could use this object. Keep in mind that one object can have many uses. Separate your responses with a comma.",,y,4644,,,1438,4502,,,,"stirring, eating",1
dylan.barkasy@uconn.edu,gvav30d53b,"Affordance Norms_UCONN",1,20,2022-11-14T16:52:22+00:00,6.9329528808594,9,"updated stim.csv",Version59.csv,"Version 59","List 59",eye,,1747,5.72,929,1748,BOI,-,-,"Please name all of the ways you could use this object. Keep in mind that one object can have many uses. Separate your responses with a comma.",,y,6741,,,1279,6624,,,,"seeing, lookinbg",1
dylan.barkasy@uconn.edu,gvav30d53b,"Affordance Norms_UCONN",1,21,2022-11-14T16:52:25+00:00,2.9662301540375,9,"updated stim.csv",Version59.csv,"Version 59","List 59",whip,,1754,5,2925,1755,BOI,-,-,"Please name all of the ways you could use this object. Keep in mind that one object can have many uses. Separate your responses with a comma.",,y,2779,,,1629,2678,,,,whipping,1
dylan.barkasy@uconn.edu,gvav30d53b,"Affordance Norms_UCONN",1,22,2022-11-14T16:52:31+00:00,5.7722249031067,9,"updated stim.csv",Version59.csv,"Version 59","List 59",knitting,,1751,4.304347826,1436,1752,BOI,-,-,"Please name all of the ways you could use this object. Keep in mind that one object can have many uses. Separate your responses with a comma.",,y,5578,,,1830,5414,,,,"knitting, clothing",1
dylan.barkasy@uconn.edu,gvav30d53b,"Affordance Norms_UCONN",1,23,2022-11-14T16:52:38+00:00,7.0812330245972,9,"updated stim.csv",Version59.csv,"Version 59","List 59",belongings,,1753,5.173913043,201,1754,BOI,-,-,"Please name all of the ways you could use this object. Keep in mind that one object can have many uses. Separate your responses with a comma.",,y,6890,,,-1,-1,,,,,1
dylan.barkasy@uconn.edu,gvav30d53b,"Affordance Norms_UCONN",1,24,2022-11-14T16:52:48+00:00,10.553458929062,9,"updated stim.csv",Version59.csv,"Version 59","List 59",tile,,1762,4.76,2697,1763,BOI,-,-,"Please name all of the ways you could use this object. Keep in mind that one object can have many uses. Separate your responses with a comma.",,y,10337,,,3700,10244,,,,"flooring, decor",1
dylan.barkasy@uconn.edu,gvav30d53b,"Affordance Norms_UCONN",1,25,2022-11-14T16:52:54+00:00,6.1817610263824,9,"updated stim.csv",Version59.csv,"Version 59","List 59",trolley,,1743,5.416666667,2780,1744,BOI,-,-,"Please name all of the ways you could use this object. Keep in mind that one object can have many uses. Separate your responses with a comma.",,y,5933,,,1497,3195,,,,"travelling, ",1
dylan.barkasy@uconn.edu,gvav30d53b,"Affordance Norms_UCONN",1,26,2022-11-14T16:53:01+00:00,6.6112790107727,9,"updated stim.csv",Version59.csv,"Version 59","List 59",soccer,,1766,4.64,2438,1767,BOI,-,-,"Please name all of the ways you could use this object. Keep in mind that one object can have many uses. Separate your responses with a comma.",,y,6416,,,3136,4212,,,,"kicking, ",1
dylan.barkasy@uconn.edu,gvav30d53b,"Affordance Norms_UCONN",1,27,2022-11-14T16:53:03+00:00,2.1954939365387,9,"updated stim.csv",Version59.csv,"Version 59","List 59",midwife,,1757,5,1659,1758,BOI,-,-,"Please name all of the ways you could use this object. Keep in mind that one object can have many uses. Separate your responses with a comma.",,y,2001,,,-1,-1,,,,,1
dylan.barkasy@uconn.edu,gvav30d53b,"Affordance Norms_UCONN",1,28,2022-11-14T16:53:24+00:00,21.214390039444,9,"updated stim.csv",Version59.csv,"Version 59","List 59",statuette,,1750,4.739130435,2514,1751,BOI,-,-,"Please name all of the ways you could use this object. Keep in mind that one object can have many uses. Separate your responses with a comma.",,y,20934,,,13718,15454,,,,"looking at, ",1
dylan.barkasy@uconn.edu,gvav30d53b,"Affordance Norms_UCONN",1,29,2022-11-14T16:53:34+00:00,9.9827110767365,9,"updated stim.csv",Version59.csv,"Version 59","List 59",diploma,,1746,5.96,798,1747,BOI,-,-,"Please name all of the ways you could use this object. Keep in mind that one object can have many uses. Separate your responses with a comma.",,y,9787,,,2757,9700,,,,"job search, display",1
dylan.barkasy@uconn.edu,gvav30d53b,"Affordance Norms_UCONN",1,30,2022-11-14T16:53:43+00:00,8.9465088844299,9,"updated stim.csv",Version59.csv,"Version 59","List 59",musician,,1744,4.47826087,1724,1745,BOI,-,-,"Please name all of the ways you could use this object. Keep in mind that one object can have many uses. Separate your responses with a comma.",,y,8764,,,2405,8651,,,,"make music, entertainment",1
dylan.barkasy@uconn.edu,gvav30d53b,"Affordance Norms_UCONN",1,31,2022-11-14T16:53:45+00:00,1.8562111854553,9,"updated stim.csv",Version59.csv,"Version 59","List 59",triceps,,1758,5.52,2774,1759,BOI,-,-,"Please name all of the ways you could use this object. Keep in mind that one object can have many uses. Separate your responses with a comma.",,y,1666,,,-1,-1,,,,,1
dylan.barkasy@uconn.edu,gvav30d53b,"Affordance Norms_UCONN",1,32,2022-11-14T16:53:55+00:00,10.273423910141,9,"updated stim.csv",Version59.csv,"Version 59","List 59",attire,,1765,5.086956522,95,1766,BOI,-,-,"Please name all of the ways you could use this object. Keep in mind that one object can have many uses. Separate your responses with a comma.",,y,10076,,,7311,8942,,,,"dressing, ",1
dylan.barkasy@uconn.edu,gvav30d53b,"Affordance Norms_UCONN",1,33,2022-11-14T16:54:20+00:00,24.304688930511,9,"updated stim.csv",Version59.csv,"Version 59","List 59",tenant,,1756,4.8,2662,1757,BOI,-,-,"Please name all of the ways you could use this object. Keep in mind that one object can have many uses. Separate your responses with a comma.",,y,24004,,,19816,23924,,,,"collecting money",1
dylan.barkasy@uconn.edu,gvav30d53b,"Affordance Norms_UCONN",1,34,2022-11-14T16:54:27+00:00,7.3323471546173,9,"updated stim.csv",Version59.csv,"Version 59","List 59",beret,,1742,5.695652174,204,1743,BOI,-,-,"Please name all of the ways you could use this object. Keep in mind that one object can have many uses. Separate your responses with a comma.",,y,7060,,,1853,6858,,,,"wearing, fashion",1
dylan.barkasy@uconn.edu,gvav30d53b,"Affordance Norms_UCONN",1,35,2022-11-14T16:54:32+00:00,4.9423999786377,9,"updated stim.csv",Version59.csv,"Version 59","List 59",slush,,1763,4.541666667,2419,1764,BOI,-,-,"Please name all of the ways you could use this object. Keep in mind that one object can have many uses. Separate your responses with a comma.",,y,4739,,,1642,4591,,,,"eating, throwing",1
dylan.barkasy@uconn.edu,gvav30d53b,"Affordance Norms_UCONN",1,36,2022-11-14T16:54:39+00:00,7.4369218349457,9,"updated stim.csv",Version59.csv,"Version 59","List 59",runner,,1768,4.608695652,2207,1769,BOI,-,-,"Please name all of the ways you could use this object. Keep in mind that one object can have many uses. Separate your responses with a comma.",,y,7245,,,5233,6977,,,,"running, ",1
dylan.barkasy@uconn.edu,gvav30d53b,"Affordance Norms_UCONN",1,37,2022-11-14T16:54:44+00:00,4.4017450809479,9,"updated stim.csv",Version59.csv,"Version 59","List 59",shoehorn,,1770,5.75,2350,1771,BOI,-,-,"Please name all of the ways you could use this object. Keep in mind that one object can have many uses. Separate your responses with a comma.",,y,4231,,,1960,4089,,,,"put shoe one",1
dylan.barkasy@uconn.edu,gvav30d53b,"Affordance Norms_UCONN",1,38,2022-11-14T16:54:52+00:00,7.8553829193115,9,"updated stim.csv",Version59.csv,"Version 59","List 59",baggage,,1749,5.965517241,122,1750,BOI,-,-,"Please name all of the ways you could use this object. Keep in mind that one object can have many uses. Separate your responses with a comma.",,y,7648,,,1743,7477,,,,"hold clothes, hold your stuff",1
dylan.barkasy@uconn.edu,gvav30d53b,"Affordance Norms_UCONN",1,39,2022-11-14T16:55:00+00:00,8.5726721286774,9,"updated stim.csv",Version59.csv,"Version 59","List 59",surgeon,,1748,5,2595,1749,BOI,-,-,"Please name all of the ways you could use this object. Keep in mind that one object can have many uses. Separate your responses with a comma.",,y,8373,,,3718,8189,,,,"healing people, cutting open",1
dylan.barkasy@uconn.edu,gvav30d53b,"Affordance Norms_UCONN",1,40,2022-11-14T16:55:19+00:00,18.899927854538,9,"updated stim.csv",Version59.csv,"Version 59","List 59",beautician,,1760,4.608695652,183,1761,BOI,-,-,"Please name all of the ways you could use this object. Keep in mind that one object can have many uses. Separate your responses with a comma.",,y,18701,,,1872,4837,,,,"make beautiful",1
dylan.barkasy@uconn.edu,gvav30d53b,"Affordance Norms_UCONN",1,41,2022-11-14T16:55:23+00:00,3.66659116745,9,"updated stim.csv",Version59.csv,"Version 59","List 59",,,,,,0,Instruct,,,"You will now be asked a few questions about your experience today.",,"Instruct 4",3474,,,-1,-1,,,,,1
