Username,ID,ExperimentName,Session,Trial,Date,TimeDif,"Condition Number","Stimuli File","Order File","Condition Description","Condition Notes",Stimuli*Cue,Stimuli*Answer,Stimuli*Shuffle,"Stimuli*Stimuli Notes",Stimuli*Value,Stimuli*Rand,Procedure*Item,"Procedure*Trial Type","Procedure*Max Time","Procedure*Min Time",Procedure*Text,"Procedure*Procedure Notes",Procedure*Shuffle,Response*RT,Response*Response,Response*Accuracy,Response*RTfirst,Response*RTlast,Response*strictAcc,Response*lenientAcc,Response*focus,Response*JOL,Response*Focus
643c069c30e6ba111922f086,khahv6lyu7,"Affordance Norms_Prolific",1,1,2023-07-21T15:21:46+00:00,16.456259012222,17,"updated stim.csv",Version17.csv,"Version 17","List 17",,,,,,,0,Instruct,-,10,"In this section, you will be presented with a series of objects. Please name as many possible uses for this object as you can think of by typing them in the box below each object.",,Instruct1,16089,,,-1,-1,,,,,1
643c069c30e6ba111922f086,khahv6lyu7,"Affordance Norms_Prolific",1,2,2023-07-21T15:21:59+00:00,12.145177125931,17,"updated stim.csv",Version17.csv,"Version 17","List 17",,,,,,,0,Instruct,-,10,"Please keep in mind that a single object will have more than one use. For example, a ball can be thrown or can be bounced or even stepped on. When listing multiple uses for one object, please separate each use with a comma (i.e., thrown, bounced, stepped on)",,Instruct2,11742,,,-1,-1,,,,,1
643c069c30e6ba111922f086,khahv6lyu7,"Affordance Norms_Prolific",1,3,2023-07-21T15:22:04+00:00,5.7900059223175,17,"updated stim.csv",Version17.csv,"Version 17","List 17",,,,,,,0,Instruct,-,-,"Before starting the experiment, you will complete a short practice sesstion. Press ENTER when you are ready to begin.",,Instruct3,5393,,,-1,-1,,,,,1
643c069c30e6ba111922f086,khahv6lyu7,"Affordance Norms_Prolific",1,4,2023-07-21T15:22:34+00:00,30.072366952896,17,"updated stim.csv",Version17.csv,"Version 17","List 17",paperwork,,632,4.28,439,0.557499565,633,BOI,-,-,"Please name all of the ways you could use this object. Keep in mind that one object can have many uses. Separate your responses with a comma.",,n,29509,,,-1,-1,,,,"Letters, art, drawing",1
643c069c30e6ba111922f086,khahv6lyu7,"Affordance Norms_Prolific",1,5,2023-07-21T15:23:13+00:00,38.81539106369,17,"updated stim.csv",Version17.csv,"Version 17","List 17",grain,,635,4.708333333,1700,0.685106443,636,BOI,-,-,"Please name all of the ways you could use this object. Keep in mind that one object can have many uses. Separate your responses with a comma.",,n,38256,,,-1,-1,,,,"Cooking, eating, ",1
643c069c30e6ba111922f086,khahv6lyu7,"Affordance Norms_Prolific",1,6,2023-07-21T15:23:51+00:00,37.667294979095,17,"updated stim.csv",Version17.csv,"Version 17","List 17",shortening,,633,4.961538462,2303,0.081957919,634,BOI,-,-,"Please name all of the ways you could use this object. Keep in mind that one object can have many uses. Separate your responses with a comma.",,n,37055,,,-1,-1,,,,"Reducing, make smaller, hiding",1
643c069c30e6ba111922f086,khahv6lyu7,"Affordance Norms_Prolific",1,7,2023-07-21T15:24:15+00:00,24.023520946503,17,"updated stim.csv",Version17.csv,"Version 17","List 17",spaghetti,,634,4.608695652,2807,0.295026168,635,BOI,-,-,"Please name all of the ways you could use this object. Keep in mind that one object can have many uses. Separate your responses with a comma.",,n,23520,,,-1,-1,,,,"Bolognaise, carbonara, making pictures",1
643c069c30e6ba111922f086,khahv6lyu7,"Affordance Norms_Prolific",1,8,2023-07-21T15:24:35+00:00,20.550609111786,17,"updated stim.csv",Version17.csv,"Version 17","List 17",glove,,631,5.217391304,2788,0.288599309,632,BOI,-,-,"Please name all of the ways you could use this object. Keep in mind that one object can have many uses. Separate your responses with a comma.",,n,20060,,,-1,-1,,,,"Oven, warming, hands, cover",1
643c069c30e6ba111922f086,khahv6lyu7,"Affordance Norms_Prolific",1,9,2023-07-21T15:24:38+00:00,2.5680730342865,17,"updated stim.csv",Version17.csv,"Version 17","List 17",,,,,,,0,Instruct,-,-,"You have completed this section. Press ENTER to continue",,"Instruct 5",2077,,,-1,-1,,,,,1
643c069c30e6ba111922f086,khahv6lyu7,"Affordance Norms_Prolific",1,10,2023-07-21T15:24:41+00:00,2.6225490570068,17,"updated stim.csv",Version17.csv,"Version 17","List 17",,,,,,,0,Instruct,-,-,"You will now start the full experiment. Press ENTER when you are ready to begin.",,,2231,,,-1,-1,,,,,1
643c069c30e6ba111922f086,khahv6lyu7,"Affordance Norms_Prolific",1,11,2023-07-21T15:25:15+00:00,34.450155973434,17,"updated stim.csv",Version17.csv,"Version 17","List 17",present,,510,4.55,2900,0.585234567,511,BOI,-,-,"Please name all of the ways you could use this object. Keep in mind that one object can have many uses. Separate your responses with a comma.",,y,34007,,,-1,-1,,,,"Gift, surprise, ",1
643c069c30e6ba111922f086,khahv6lyu7,"Affordance Norms_Prolific",1,12,2023-07-21T15:25:45+00:00,29.509445905685,17,"updated stim.csv",Version17.csv,"Version 17","List 17",splint,,487,5.041666667,1092,0.483566212,488,BOI,-,-,"Please name all of the ways you could use this object. Keep in mind that one object can have many uses. Separate your responses with a comma.",,y,28936,,,-1,-1,,,,"Hold broken bones, to hold up, to start a fire",1
643c069c30e6ba111922f086,khahv6lyu7,"Affordance Norms_Prolific",1,13,2023-07-21T15:26:04+00:00,19.429971933365,17,"updated stim.csv",Version17.csv,"Version 17","List 17",merchandise,,508,6.518518519,824,0.694713047,509,BOI,-,-,"Please name all of the ways you could use this object. Keep in mind that one object can have many uses. Separate your responses with a comma.",,y,18895,,,-1,-1,,,,"Sell, buy, food, clothes",1
643c069c30e6ba111922f086,khahv6lyu7,"Affordance Norms_Prolific",1,14,2023-07-21T15:26:14+00:00,9.9331650733948,17,"updated stim.csv",Version17.csv,"Version 17","List 17",salamander,,483,5,278,0.987732434,484,BOI,-,-,"Please name all of the ways you could use this object. Keep in mind that one object can have many uses. Separate your responses with a comma.",,y,9368,,,-1,-1,,,,"Animal, cookibg",1
643c069c30e6ba111922f086,khahv6lyu7,"Affordance Norms_Prolific",1,15,2023-07-21T15:26:45+00:00,31.26513504982,17,"updated stim.csv",Version17.csv,"Version 17","List 17",housewife,,505,5.375,18,0.348121216,506,BOI,-,-,"Please name all of the ways you could use this object. Keep in mind that one object can have many uses. Separate your responses with a comma.",,y,30808,,,-1,-1,,,,"Cooking, cleaning, sharing, shouting",1
643c069c30e6ba111922f086,khahv6lyu7,"Affordance Norms_Prolific",1,16,2023-07-21T15:27:03+00:00,17.930963039398,17,"updated stim.csv",Version17.csv,"Version 17","List 17",kale,,507,4.84,2410,0.204229314,508,BOI,-,-,"Please name all of the ways you could use this object. Keep in mind that one object can have many uses. Separate your responses with a comma.",,y,17339,,,-1,-1,,,,"Eating, binning, poisoning",1
643c069c30e6ba111922f086,khahv6lyu7,"Affordance Norms_Prolific",1,17,2023-07-21T15:27:17+00:00,14.081833839417,17,"updated stim.csv",Version17.csv,"Version 17","List 17",scallop,,484,6.217391304,2904,0.952578602,485,BOI,-,-,"Please name all of the ways you could use this object. Keep in mind that one object can have many uses. Separate your responses with a comma.",,y,13519,,,-1,-1,,,,"Eat, batter, catch",1
643c069c30e6ba111922f086,khahv6lyu7,"Affordance Norms_Prolific",1,18,2023-07-21T15:27:34+00:00,17.105463981628,17,"updated stim.csv",Version17.csv,"Version 17","List 17",nightgown,,509,5.125,2470,0.414376322,510,BOI,-,-,"Please name all of the ways you could use this object. Keep in mind that one object can have many uses. Separate your responses with a comma.",,y,16624,,,-1,-1,,,,"Wear, wash, disguise",1
643c069c30e6ba111922f086,khahv6lyu7,"Affordance Norms_Prolific",1,19,2023-07-21T15:28:24+00:00,49.823403120041,17,"updated stim.csv",Version17.csv,"Version 17","List 17",electrician,,502,4.956521739,1053,0.823962679,503,BOI,-,-,"Please name all of the ways you could use this object. Keep in mind that one object can have many uses. Separate your responses with a comma.",,y,49290,,,-1,-1,,,,"Repair, play with, fix things, inspect things",1
643c069c30e6ba111922f086,khahv6lyu7,"Affordance Norms_Prolific",1,20,2023-07-21T15:28:58+00:00,34.329273939133,17,"updated stim.csv",Version17.csv,"Version 17","List 17",window,,492,6.4,1428,0.954803536,493,BOI,-,-,"Please name all of the ways you could use this object. Keep in mind that one object can have many uses. Separate your responses with a comma.",,y,33531,,,-1,-1,,,,"To look through, hide, put curtains at, but blinds at",1
643c069c30e6ba111922f086,khahv6lyu7,"Affordance Norms_Prolific",1,21,2023-07-21T15:29:27+00:00,28.071506977081,17,"updated stim.csv",Version17.csv,"Version 17","List 17",attendant,,494,5.458333333,959,0.291234004,495,BOI,-,-,"Please name all of the ways you could use this object. Keep in mind that one object can have many uses. Separate your responses with a comma.",,y,27234,,,-1,-1,,,,"Flight attendant, toilet attendant, work at cinemas",1
643c069c30e6ba111922f086,khahv6lyu7,"Affordance Norms_Prolific",1,22,2023-07-21T15:29:48+00:00,21.848569154739,17,"updated stim.csv",Version17.csv,"Version 17","List 17",brush,,496,5.68,1414,0.836964408,497,BOI,-,-,"Please name all of the ways you could use this object. Keep in mind that one object can have many uses. Separate your responses with a comma.",,y,21255,,,-1,-1,,,,"Hair, paint, clothes, clean teath",1
643c069c30e6ba111922f086,khahv6lyu7,"Affordance Norms_Prolific",1,23,2023-07-21T15:30:12+00:00,23.424217939377,17,"updated stim.csv",Version17.csv,"Version 17","List 17",tong,,488,4.703703704,1106,0.844195125,489,BOI,-,-,"Please name all of the ways you could use this object. Keep in mind that one object can have many uses. Separate your responses with a comma.",,y,22866,,,-1,-1,,,,"Pick food up, poke fires, hit with",1
643c069c30e6ba111922f086,khahv6lyu7,"Affordance Norms_Prolific",1,24,2023-07-21T15:30:42+00:00,30.413516998291,17,"updated stim.csv",Version17.csv,"Version 17","List 17",slaw,,486,6.083333333,1269,0.257158523,487,BOI,-,-,"Please name all of the ways you could use this object. Keep in mind that one object can have many uses. Separate your responses with a comma.",,y,29894,,,-1,-1,,,,"Put on sandwiches, put on salads, put on potatoes, put on burgers",1
643c069c30e6ba111922f086,khahv6lyu7,"Affordance Norms_Prolific",1,25,2023-07-21T15:31:27+00:00,44.535363912582,17,"updated stim.csv",Version17.csv,"Version 17","List 17",dividers,,501,6,598,0.920044528,502,BOI,-,-,"Please name all of the ways you could use this object. Keep in mind that one object can have many uses. Separate your responses with a comma.",,y,44009,,,-1,-1,,,,"To separate documents, to separate rooms, to separate workstations",1
643c069c30e6ba111922f086,khahv6lyu7,"Affordance Norms_Prolific",1,26,2023-07-21T15:31:42+00:00,15.601238965988,17,"updated stim.csv",Version17.csv,"Version 17","List 17",vocalist,,489,4.913043478,393,0.357783512,490,BOI,-,-,"Please name all of the ways you could use this object. Keep in mind that one object can have many uses. Separate your responses with a comma.",,y,15082,,,-1,-1,,,,"Singer, teach singing",1
643c069c30e6ba111922f086,khahv6lyu7,"Affordance Norms_Prolific",1,27,2023-07-21T15:31:59+00:00,17.107618093491,17,"updated stim.csv",Version17.csv,"Version 17","List 17",waxwork,,491,5.64,2206,0.418822922,492,BOI,-,-,"Please name all of the ways you could use this object. Keep in mind that one object can have many uses. Separate your responses with a comma.",,y,16574,,,-1,-1,,,,"Imitate people, candle",1
643c069c30e6ba111922f086,khahv6lyu7,"Affordance Norms_Prolific",1,28,2023-07-21T15:32:43+00:00,43.963371992111,17,"updated stim.csv",Version17.csv,"Version 17","List 17",athlete,,493,6.333333333,1370,0.521573786,494,BOI,-,-,"Please name all of the ways you could use this object. Keep in mind that one object can have many uses. Separate your responses with a comma.",,y,43050,,,-1,-1,,,,"Jogging, to sleep with, olympics, swimming, model clothes",1
643c069c30e6ba111922f086,khahv6lyu7,"Affordance Norms_Prolific",1,29,2023-07-21T15:33:02+00:00,18.786423921585,17,"updated stim.csv",Version17.csv,"Version 17","List 17",bicycle,,495,4.64,339,0.446014369,496,BOI,-,-,"Please name all of the ways you could use this object. Keep in mind that one object can have many uses. Separate your responses with a comma.",,y,18078,,,-1,-1,,,,"Ride, sell, exercise, wear lycra",1
643c069c30e6ba111922f086,khahv6lyu7,"Affordance Norms_Prolific",1,30,2023-07-21T15:33:23+00:00,21.238589048386,17,"updated stim.csv",Version17.csv,"Version 17","List 17",housefly,,504,5.083333333,1662,0.960305963,505,BOI,-,-,"Please name all of the ways you could use this object. Keep in mind that one object can have many uses. Separate your responses with a comma.",,y,20649,,,-1,-1,,,,"Eaten by spiders, swot",1
643c069c30e6ba111922f086,khahv6lyu7,"Affordance Norms_Prolific",1,31,2023-07-21T15:34:05+00:00,41.466099023819,17,"updated stim.csv",Version17.csv,"Version 17","List 17",shelving,,485,5.739130435,848,0.55221895,486,BOI,-,-,"Please name all of the ways you could use this object. Keep in mind that one object can have many uses. Separate your responses with a comma.",,y,40879,,,-1,-1,,,,"Put books on, put dishes on, garage storage, store documents, to display ornaments",1
643c069c30e6ba111922f086,khahv6lyu7,"Affordance Norms_Prolific",1,32,2023-07-21T15:34:30+00:00,24.938127994537,17,"updated stim.csv",Version17.csv,"Version 17","List 17",carrot,,498,4.291666667,1484,0.291119552,499,BOI,-,-,"Please name all of the ways you could use this object. Keep in mind that one object can have many uses. Separate your responses with a comma.",,y,24356,,,-1,-1,,,,"Eat, boil, roast, mash, snowmans nose",1
643c069c30e6ba111922f086,khahv6lyu7,"Affordance Norms_Prolific",1,33,2023-07-21T15:35:14+00:00,43.706310033798,17,"updated stim.csv",Version17.csv,"Version 17","List 17",watchband,,490,4.434782609,1643,0.578632093,491,BOI,-,-,"Please name all of the ways you could use this object. Keep in mind that one object can have many uses. Separate your responses with a comma.",,y,43146,,,-1,-1,,,,"Tell the time, to keep track",1
643c069c30e6ba111922f086,khahv6lyu7,"Affordance Norms_Prolific",1,34,2023-07-21T15:36:14+00:00,60.816313028336,17,"updated stim.csv",Version17.csv,"Version 17","List 17",contraceptive,,499,5.782608696,1231,0.767395268,500,BOI,-,-,"Please name all of the ways you could use this object. Keep in mind that one object can have many uses. Separate your responses with a comma.",,y,60023,,,-1,-1,,,,"Stops pregnancies, ",1
643c069c30e6ba111922f086,khahv6lyu7,"Affordance Norms_Prolific",1,35,2023-07-21T15:37:03+00:00,48.436949014664,17,"updated stim.csv",Version17.csv,"Version 17","List 17",pinball,,482,5,1181,0.795382639,483,BOI,-,-,"Please name all of the ways you could use this object. Keep in mind that one object can have many uses. Separate your responses with a comma.",,y,47977,,,-1,-1,,,,"Play, competitions",1
643c069c30e6ba111922f086,khahv6lyu7,"Affordance Norms_Prolific",1,36,2023-07-21T15:37:43+00:00,39.877030849457,17,"updated stim.csv",Version17.csv,"Version 17","List 17",cucumber,,500,4.375,1793,0.66125809,501,BOI,-,-,"Please name all of the ways you could use this object. Keep in mind that one object can have many uses. Separate your responses with a comma.",,y,39021,,,-1,-1,,,,"Salad, slice",1
643c069c30e6ba111922f086,khahv6lyu7,"Affordance Norms_Prolific",1,37,2023-07-21T15:38:44+00:00,61.651019096375,17,"updated stim.csv",Version17.csv,"Version 17","List 17",pin,,481,5.875,1876,0.805264649,482,BOI,-,-,"Please name all of the ways you could use this object. Keep in mind that one object can have many uses. Separate your responses with a comma.",,y,60791,,,-1,-1,,,,"Hold in place, holds pictures up, injure, hold down",1
643c069c30e6ba111922f086,khahv6lyu7,"Affordance Norms_Prolific",1,38,2023-07-21T15:39:03+00:00,18.743340969086,17,"updated stim.csv",Version17.csv,"Version 17","List 17",cacti,,497,4.52,494,0.136839401,498,BOI,-,-,"Please name all of the ways you could use this object. Keep in mind that one object can have many uses. Separate your responses with a comma.",,y,18230,,,-1,-1,,,,"Display, grow",1
643c069c30e6ba111922f086,khahv6lyu7,"Affordance Norms_Prolific",1,39,2023-07-21T15:39:27+00:00,23.819410085678,17,"updated stim.csv",Version17.csv,"Version 17","List 17",javelin,,506,5.15,978,0.460991121,507,BOI,-,-,"Please name all of the ways you could use this object. Keep in mind that one object can have many uses. Separate your responses with a comma.",,y,23199,,,-1,-1,,,,"Throw, sports, weapon",1
643c069c30e6ba111922f086,khahv6lyu7,"Affordance Norms_Prolific",1,40,2023-07-21T15:39:49+00:00,22.141497850418,17,"updated stim.csv",Version17.csv,"Version 17","List 17",guardrail,,503,4.56,2894,0.169280994,504,BOI,-,-,"Please name all of the ways you could use this object. Keep in mind that one object can have many uses. Separate your responses with a comma.",,y,21533,,,-1,-1,,,,"On stairs, to secure, keep safe",1
643c069c30e6ba111922f086,khahv6lyu7,"Affordance Norms_Prolific",1,41,2023-07-21T15:39:52+00:00,2.8098809719086,17,"updated stim.csv",Version17.csv,"Version 17","List 17",,,,,,,0,Instruct,,,"You will now be asked a few questions about your experience today.",,"Instruct 4",2330,,,-1,-1,,,,,1
