Username,ID,ExperimentName,Session,Trial,Date,TimeDif,"Condition Number","Stimuli File","Order File","Condition Description","Condition Notes",Stimuli*Cue,Stimuli*Answer,Stimuli*Shuffle,"Stimuli*Stimuli Notes",Stimuli*Value,Procedure*Item,"Procedure*Trial Type","Procedure*Max Time","Procedure*Min Time",Procedure*Text,"Procedure*Procedure Notes",Procedure*Shuffle,Response*RT,Response*Response,Response*Accuracy,Response*RTfirst,Response*RTlast,Response*strictAcc,Response*lenientAcc,Response*focus,Response*JOL,Response*Focus
w11012101_arf,jpjwevm2dc,"BOI Norms",1,1,2021-11-30T00:53:25+00:00,17.062834024429,10,"updated stim.csv",Version85.csv,"Version 85","List 85",,,,,,0,Instruct,-,10,"In this section, you will be presented with a series of objects. Please name as many possible uses for this object as you can think of by typing them in the box below each object.",,Instruct1,16503,,,-1,-1,,,,,1
w11012101_arf,jpjwevm2dc,"BOI Norms",1,2,2021-11-30T00:53:38+00:00,12.766954183578,10,"updated stim.csv",Version85.csv,"Version 85","List 85",,,,,,0,Instruct,-,10,"Please keep in mind that a single object will have more than one use. For example, a ball can be thrown or can be bounced or even stepped on. When listing multiple uses for one object, please separate each use with a comma (i.e., thrown, bounced, stepped on)",,Instruct2,12222,,,-1,-1,,,,,1
w11012101_arf,jpjwevm2dc,"BOI Norms",1,3,2021-11-30T00:54:53+00:00,74.613229990005,10,"updated stim.csv",Version85.csv,"Version 85","List 85",,,,,,0,Instruct,-,-,"Before starting the experiment, you will complete a short practice sesstion. Press ENTER when you are ready to begin.",,Instruct3,73851,,,-1,-1,,,,,1
w11012101_arf,jpjwevm2dc,"BOI Norms",1,4,2021-11-30T00:56:33+00:00,100.01556301117,10,"updated stim.csv",Version85.csv,"Version 85","List 85",Cheeseburger,,Practice,,3001,3006,BOI,-,-,"Please name all of the ways you could use this object. Keep in mind that one object can have many uses. Separate your responses with a comma.",,n,98824,,,5043,92862,,,,"eating, sharing",1
w11012101_arf,jpjwevm2dc,"BOI Norms",1,5,2021-11-30T00:57:15+00:00,42.177253961563,10,"updated stim.csv",Version85.csv,"Version 85","List 85","Picture Frame",,Practice,,3002,3003,BOI,-,-,"Please name all of the ways you could use this object. Keep in mind that one object can have many uses. Separate your responses with a comma.",,n,41094,,,6044,37303,,,,"to hold a picture, to hang a picture on a wall, to display a picture",1
w11012101_arf,jpjwevm2dc,"BOI Norms",1,6,2021-11-30T01:03:46+00:00,390.90480995178,10,"updated stim.csv",Version85.csv,"Version 85","List 85",Taco,,Practice,,3005,3004,BOI,-,-,"Please name all of the ways you could use this object. Keep in mind that one object can have many uses. Separate your responses with a comma.",,n,389429,,,239785,258562,,,,"make it, eat it, sell it, refrigerate it",1
w11012101_arf,jpjwevm2dc,"BOI Norms",1,7,2021-11-30T01:07:05+00:00,199.01369810104,10,"updated stim.csv",Version85.csv,"Version 85","List 85",Donut,,Practice,,3003,3005,BOI,-,-,"Please name all of the ways you could use this object. Keep in mind that one object can have many uses. Separate your responses with a comma.",,n,197441,,,31175,57003,,,,"make it, eat it, sell it, dip it in coffee, ",1
w11012101_arf,jpjwevm2dc,"BOI Norms",1,8,2021-11-30T01:18:47+00:00,701.63417983055,10,"updated stim.csv",Version85.csv,"Version 85","List 85",Swan,,Practice,,3004,3002,BOI,-,-,"Please name all of the ways you could use this object. Keep in mind that one object can have many uses. Separate your responses with a comma.",,n,700262,,,100041,698921,,,,"make it your pet, feed it, watch it, pet it, eat it",1
w11012101_arf,jpjwevm2dc,"BOI Norms",1,9,2021-11-30T01:18:50+00:00,3.7551701068878,10,"updated stim.csv",Version85.csv,"Version 85","List 85",,,,,,0,Instruct,-,-,"You have completed this section. Press ENTER to continue",,"Instruct 5",2572,,,-1,-1,,,,,1
w11012101_arf,jpjwevm2dc,"BOI Norms",1,10,2021-11-30T01:27:28+00:00,518.06992793083,10,"updated stim.csv",Version85.csv,"Version 85","List 85",,,,,,0,Instruct,-,-,"You will now start the full experiment. Press ENTER when you are ready to begin.",,,516976,,,-1,-1,,,,,1
w11012101_arf,jpjwevm2dc,"BOI Norms",1,11,2021-11-30T01:40:39+00:00,790.7911760807,10,"updated stim.csv",Version85.csv,"Version 85","List 85",jasmine,,ON,4.32,1374,2538,BOI,-,-,"Please name all of the ways you could use this object. Keep in mind that one object can have many uses. Separate your responses with a comma.",,y,789137,,,743078,786175,,,,"as a name, a friend",1
w11012101_arf,jpjwevm2dc,"BOI Norms",1,12,2021-11-30T01:42:31+00:00,111.73388195038,10,"updated stim.csv",Version85.csv,"Version 85","List 85",substance,,ON,4.47826087,2576,2551,BOI,-,-,"Please name all of the ways you could use this object. Keep in mind that one object can have many uses. Separate your responses with a comma.",,y,110562,,,98064,108432,,,,"cook it, eat it, drink it, smell it",1
w11012101_arf,jpjwevm2dc,"BOI Norms",1,13,2021-11-30T01:47:58+00:00,326.69229507446,10,"updated stim.csv",Version85.csv,"Version 85","List 85",fisherman,,ON,4.851851852,991,2525,BOI,-,-,"Please name all of the ways you could use this object. Keep in mind that one object can have many uses. Separate your responses with a comma.",,y,325439,,,282258,304952,,,,"catching fish, selling fish, fish education ",1
w11012101_arf,jpjwevm2dc,"BOI Norms",1,14,2021-11-30T01:49:16+00:00,77.941721916199,10,"updated stim.csv",Version85.csv,"Version 85","List 85",respirator,,ON,4.923076923,2158,2535,BOI,-,-,"Please name all of the ways you could use this object. Keep in mind that one object can have many uses. Separate your responses with a comma.",,y,76932,,,46510,75071,,,,"protection, prevention of inhaling toxins",1
w11012101_arf,jpjwevm2dc,"BOI Norms",1,15,2021-11-30T01:50:18+00:00,62.07052397728,10,"updated stim.csv",Version85.csv,"Version 85","List 85",motorbike,,ON,6.347826087,1694,2541,BOI,-,-,"Please name all of the ways you could use this object. Keep in mind that one object can have many uses. Separate your responses with a comma.",,y,61338,,,1773,40817,,,,"riding, bike shows",1
w11012101_arf,jpjwevm2dc,"BOI Norms",1,16,2021-11-30T01:51:49+00:00,91.150260925293,10,"updated stim.csv",Version85.csv,"Version 85","List 85",dachshund,,ON,5.125,743,2548,BOI,-,-,"Please name all of the ways you could use this object. Keep in mind that one object can have many uses. Separate your responses with a comma.",,y,90151,,,59020,85378,,,,"as a pet, as something to pet, to eat your food, dog model",1
w11012101_arf,jpjwevm2dc,"BOI Norms",1,17,2021-11-30T01:53:11+00:00,82.384474992752,10,"updated stim.csv",Version85.csv,"Version 85","List 85",daughter,,ON,5.192307692,760,2550,BOI,-,-,"Please name all of the ways you could use this object. Keep in mind that one object can have many uses. Separate your responses with a comma.",,y,81011,,,3893,79228,,,,"to do chores, to wear cute clothes, to make someone a mother or father",1
w11012101_arf,jpjwevm2dc,"BOI Norms",1,18,2021-11-30T01:53:54+00:00,42.628279209137,10,"updated stim.csv",Version85.csv,"Version 85","List 85",neurologist,,ON,4.384615385,1753,2539,BOI,-,-,"Please name all of the ways you could use this object. Keep in mind that one object can have many uses. Separate your responses with a comma.",,y,40731,,,5506,39392,,,,"to get info on brain, to provide help with brain/ nerve issues",1
w11012101_arf,jpjwevm2dc,"BOI Norms",1,19,2021-11-30T01:54:55+00:00,60.961023807526,10,"updated stim.csv",Version85.csv,"Version 85","List 85",handshake,,ON,5.636363636,1243,2523,BOI,-,-,"Please name all of the ways you could use this object. Keep in mind that one object can have many uses. Separate your responses with a comma.",,y,60375,,,3684,59302,,,,"greeting others, a way to say hello, a way to say goodbye",1
w11012101_arf,jpjwevm2dc,"BOI Norms",1,20,2021-11-30T01:57:52+00:00,177.16804814339,10,"updated stim.csv",Version85.csv,"Version 85","List 85",leash,,ON,5.708333333,1479,2545,BOI,-,-,"Please name all of the ways you could use this object. Keep in mind that one object can have many uses. Separate your responses with a comma.",,y,176364,,,2687,174963,,,,"to keep animal from running off, to keep animal like children from running off, to tie an animal to another object",1
w11012101_arf,jpjwevm2dc,"BOI Norms",1,21,2021-11-30T01:58:55+00:00,63.022107839584,10,"updated stim.csv",Version85.csv,"Version 85","List 85",vermouth,,ON,4.318181818,2851,2549,BOI,-,-,"Please name all of the ways you could use this object. Keep in mind that one object can have many uses. Separate your responses with a comma.",,y,61977,,,46478,58696,,,,"to drink, to get intoxicated, to share",0.961
w11012101_arf,jpjwevm2dc,"BOI Norms",1,22,2021-11-30T01:59:33+00:00,38.222655057907,10,"updated stim.csv",Version85.csv,"Version 85","List 85",porch,,ON,4.44,2036,2542,BOI,-,-,"Please name all of the ways you could use this object. Keep in mind that one object can have many uses. Separate your responses with a comma.",,y,37452,,,2013,35933,,,,"to sit on, to people watch, as a place to enjoy the weather",1
w11012101_arf,jpjwevm2dc,"BOI Norms",1,23,2021-11-30T02:00:58+00:00,85.268470048904,10,"updated stim.csv",Version85.csv,"Version 85","List 85",diaphragm,,ON,4.269230769,788,2546,BOI,-,-,"Please name all of the ways you could use this object. Keep in mind that one object can have many uses. Separate your responses with a comma.",,y,83720,,,55671,81785,,,,"to prevent pregnancy, to stay safe, to gain weight",1
w11012101_arf,jpjwevm2dc,"BOI Norms",1,24,2021-11-30T02:01:43+00:00,44.315174102783,10,"updated stim.csv",Version85.csv,"Version 85","List 85",taillight,,ON,5,2625,2547,BOI,-,-,"Please name all of the ways you could use this object. Keep in mind that one object can have many uses. Separate your responses with a comma.",,y,42897,,,5804,41975,,,,"so cars can be seen in dark, to prevent wrecks when dark",1
w11012101_arf,jpjwevm2dc,"BOI Norms",1,25,2021-11-30T02:02:00+00:00,17.689832925797,10,"updated stim.csv",Version85.csv,"Version 85","List 85",flower,,ON,5.916666667,1015,2524,BOI,-,-,"Please name all of the ways you could use this object. Keep in mind that one object can have many uses. Separate your responses with a comma.",,y,16537,,,3861,14263,,,,"to smell, to look at, as decoration, as a gift",1
w11012101_arf,jpjwevm2dc,"BOI Norms",1,26,2021-11-30T02:03:03+00:00,62.834328889847,10,"updated stim.csv",Version85.csv,"Version 85","List 85",maple,,ON,4.32,1601,2528,BOI,-,-,"Please name all of the ways you could use this object. Keep in mind that one object can have many uses. Separate your responses with a comma.",,y,62249,,,2398,60466,,,,"to make syrup, to make wooden items, as flooring in bowling alleys",1
w11012101_arf,jpjwevm2dc,"BOI Norms",1,27,2021-11-30T02:07:07+00:00,243.84781217575,10,"updated stim.csv",Version85.csv,"Version 85","List 85",perspiration,,ON,4.826086957,1931,2531,BOI,-,-,"Please name all of the ways you could use this object. Keep in mind that one object can have many uses. Separate your responses with a comma.",,y,242915,,,192198,240392,,,,"for cooling the body when hot, sweating",1
w11012101_arf,jpjwevm2dc,"BOI Norms",1,28,2021-11-30T02:08:03+00:00,56.385563850403,10,"updated stim.csv",Version85.csv,"Version 85","List 85",cab,,ON,5.6,385,2529,BOI,-,-,"Please name all of the ways you could use this object. Keep in mind that one object can have many uses. Separate your responses with a comma.",,y,55156,,,6799,54080,,,,"as transportation, to give someone a job that can drive",1
w11012101_arf,jpjwevm2dc,"BOI Norms",1,29,2021-11-30T02:09:38+00:00,94.806169986725,10,"updated stim.csv",Version85.csv,"Version 85","List 85",mucus,,ON,4.88,1709,2527,BOI,-,-,"Please name all of the ways you could use this object. Keep in mind that one object can have many uses. Separate your responses with a comma.",,y,93419,,,30847,92847,,,,"as a sign of infection, to fight off infections, to trap irritants",1
w11012101_arf,jpjwevm2dc,"BOI Norms",1,30,2021-11-30T02:10:35+00:00,56.819096088409,10,"updated stim.csv",Version85.csv,"Version 85","List 85",blower,,ON,4.48,245,2530,BOI,-,-,"Please name all of the ways you could use this object. Keep in mind that one object can have many uses. Separate your responses with a comma.",,y,55883,,,2402,54501,,,,"to move leaves, to get rid of grass left after mowing",1
w11012101_arf,jpjwevm2dc,"BOI Norms",1,31,2021-11-30T02:11:50+00:00,74.386784076691,10,"updated stim.csv",Version85.csv,"Version 85","List 85",linoleum,,ON,4.62962963,1519,2536,BOI,-,-,"Please name all of the ways you could use this object. Keep in mind that one object can have many uses. Separate your responses with a comma.",,y,73272,,,34741,71442,,,,"a floor covering, to make floor look nicer",0.784
w11012101_arf,jpjwevm2dc,"BOI Norms",1,32,2021-11-30T02:12:13+00:00,23.408314943314,10,"updated stim.csv",Version85.csv,"Version 85","List 85",ax,,ON,6.08,105,2522,BOI,-,-,"Please name all of the ways you could use this object. Keep in mind that one object can have many uses. Separate your responses with a comma.",,y,22520,,,2531,17504,,,,"to cut firewood, to cut down a tree",1
w11012101_arf,jpjwevm2dc,"BOI Norms",1,33,2021-11-30T02:18:31+00:00,378.05245900154,10,"updated stim.csv",Version85.csv,"Version 85","List 85",driftwood,,ON,5.416666667,847,2532,BOI,-,-,"Please name all of the ways you could use this object. Keep in mind that one object can have many uses. Separate your responses with a comma.",,y,376893,,,339551,374514,,,,"to make furniture, to make lamps, as decoration",1
w11012101_arf,jpjwevm2dc,"BOI Norms",1,34,2021-11-30T02:20:08+00:00,97.314480066299,10,"updated stim.csv",Version85.csv,"Version 85","List 85",captain,,ON,4.913043478,427,2534,BOI,-,-,"Please name all of the ways you could use this object. Keep in mind that one object can have many uses. Separate your responses with a comma.",,y,95920,,,70785,90325,,,,"as a leader, as head of a boat/ship",1
w11012101_arf,jpjwevm2dc,"BOI Norms",1,35,2021-11-30T02:20:46+00:00,37.740618944168,10,"updated stim.csv",Version85.csv,"Version 85","List 85",flounder,,ON,4.52173913,1013,2540,BOI,-,-,"Please name all of the ways you could use this object. Keep in mind that one object can have many uses. Separate your responses with a comma.",,y,36748,,,4921,34668,,,,"eat it, catch it, make it a pet",1
w11012101_arf,jpjwevm2dc,"BOI Norms",1,36,2021-11-30T02:21:14+00:00,28.268471002579,10,"updated stim.csv",Version85.csv,"Version 85","List 85",fiancee,,ON,5.652173913,969,2526,BOI,-,-,"Please name all of the ways you could use this object. Keep in mind that one object can have many uses. Separate your responses with a comma.",,y,27620,,,10119,26266,,,,"to love, to marry, to wear your ring",1
w11012101_arf,jpjwevm2dc,"BOI Norms",1,37,2021-11-30T02:26:52+00:00,338.03281092644,10,"updated stim.csv",Version85.csv,"Version 85","List 85",spout,,ON,5,2485,2533,BOI,-,-,"Please name all of the ways you could use this object. Keep in mind that one object can have many uses. Separate your responses with a comma.",,y,337048,,,306203,335035,,,,"to move liquids, to pour out tea",1
w11012101_arf,jpjwevm2dc,"BOI Norms",1,38,2021-11-30T02:30:17+00:00,205.03013205528,10,"updated stim.csv",Version85.csv,"Version 85","List 85",worm,,ON,4.681818182,2975,2543,BOI,-,-,"Please name all of the ways you could use this object. Keep in mind that one object can have many uses. Separate your responses with a comma.",,y,203731,,,182901,201935,,,,"to fertilize dirt, to help plants grow",1
w11012101_arf,jpjwevm2dc,"BOI Norms",1,39,2021-11-30T02:31:48+00:00,90.824435949326,10,"updated stim.csv",Version85.csv,"Version 85","List 85",streetcar,,ON,4.791666667,2564,2544,BOI,-,-,"Please name all of the ways you could use this object. Keep in mind that one object can have many uses. Separate your responses with a comma.",,y,89475,,,81799,85144,,,,"to drive, to race",1
w11012101_arf,jpjwevm2dc,"BOI Norms",1,40,2021-11-30T02:32:06+00:00,18.309020996094,10,"updated stim.csv",Version85.csv,"Version 85","List 85",comforter,,ON,6.16,607,2537,BOI,-,-,"Please name all of the ways you could use this object. Keep in mind that one object can have many uses. Separate your responses with a comma.",,y,17204,,,1788,16094,,,,"to stay warm, for bed decoration ",1
w11012101_arf,jpjwevm2dc,"BOI Norms",1,41,2021-11-30T02:32:11+00:00,4.9799408912659,10,"updated stim.csv",Version85.csv,"Version 85","List 85",,,,,,0,Instruct,,,"You will now be asked a few questions about your experience today.",,"Instruct 4",4199,,,-1,-1,,,,,1
