Username,ID,ExperimentName,Session,Trial,Date,TimeDif,"Condition Number","Stimuli File","Order File","Condition Description","Condition Notes",Stimuli*Cue,Stimuli*Answer,Stimuli*Shuffle,"Stimuli*Stimuli Notes",Stimuli*Value,Procedure*Item,"Procedure*Trial Type","Procedure*Max Time","Procedure*Min Time",Procedure*Text,"Procedure*Procedure Notes",Procedure*Shuffle,Response*RT,Response*Response,Response*Accuracy,Response*RTfirst,Response*RTlast,Response*strictAcc,Response*lenientAcc,Response*focus,Response*JOL,Response*Focus
w10125837_drb,822sy230xi,"BOI Norms",1,1,2022-02-22T20:34:46+00:00,11.787083148956,3,"updated stim.csv",Version53.csv,"Version 53","List 53",,,,,,0,Instruct,-,10,"In this section, you will be presented with a series of objects. Please name as many possible uses for this object as you can think of by typing them in the box below each object.",,Instruct1,11590,,,-1,-1,,,,,1
w10125837_drb,822sy230xi,"BOI Norms",1,2,2022-02-22T20:35:00+00:00,14.652191877365,3,"updated stim.csv",Version53.csv,"Version 53","List 53",,,,,,0,Instruct,-,10,"Please keep in mind that a single object will have more than one use. For example, a ball can be thrown or can be bounced or even stepped on. When listing multiple uses for one object, please separate each use with a comma (i.e., thrown, bounced, stepped on)",,Instruct2,14121,,,-1,-1,,,,,1
w10125837_drb,822sy230xi,"BOI Norms",1,3,2022-02-22T20:35:06+00:00,5.5741930007935,3,"updated stim.csv",Version53.csv,"Version 53","List 53",,,,,,0,Instruct,-,-,"Before starting the experiment, you will complete a short practice sesstion. Press ENTER when you are ready to begin.",,Instruct3,5237,,,-1,-1,,,,,1
w10125837_drb,822sy230xi,"BOI Norms",1,4,2022-02-22T20:35:25+00:00,19.132302045822,3,"updated stim.csv",Version53.csv,"Version 53","List 53",Swan,,Practice,,3004,3005,BOI,-,-,"Please name all of the ways you could use this object. Keep in mind that one object can have many uses. Separate your responses with a comma.",,n,18812,,,10094,16700,,,,"photography, food",1
w10125837_drb,822sy230xi,"BOI Norms",1,5,2022-02-22T20:35:48+00:00,23.014332056046,3,"updated stim.csv",Version53.csv,"Version 53","List 53","Picture Frame",,Practice,,3002,3006,BOI,-,-,"Please name all of the ways you could use this object. Keep in mind that one object can have many uses. Separate your responses with a comma.",,n,22630,,,7224,18588,,,,"holding picture, framing certificate",1
w10125837_drb,822sy230xi,"BOI Norms",1,6,2022-02-22T20:36:08+00:00,19.641005992889,3,"updated stim.csv",Version53.csv,"Version 53","List 53",Cheeseburger,,Practice,,3001,3004,BOI,-,-,"Please name all of the ways you could use this object. Keep in mind that one object can have many uses. Separate your responses with a comma.",,n,19251,,,1929,18928,,,,"food, feeding the dog, cooking",1
w10125837_drb,822sy230xi,"BOI Norms",1,7,2022-02-22T20:36:27+00:00,19.707113981247,3,"updated stim.csv",Version53.csv,"Version 53","List 53",Taco,,Practice,,3005,3002,BOI,-,-,"Please name all of the ways you could use this object. Keep in mind that one object can have many uses. Separate your responses with a comma.",,n,19343,,,1727,9282,,,,"eating, cooking",1
w10125837_drb,822sy230xi,"BOI Norms",1,8,2022-02-22T20:36:35+00:00,7.8825070858002,3,"updated stim.csv",Version53.csv,"Version 53","List 53",Donut,,Practice,,3003,3003,BOI,-,-,"Please name all of the ways you could use this object. Keep in mind that one object can have many uses. Separate your responses with a comma.",,n,7513,,,1600,7217,,,,"eating, cooking",1
w10125837_drb,822sy230xi,"BOI Norms",1,9,2022-02-22T20:36:38+00:00,2.7459449768066,3,"updated stim.csv",Version53.csv,"Version 53","List 53",,,,,,0,Instruct,-,-,"You have completed this section. Press ENTER to continue",,"Instruct 5",2454,,,-1,-1,,,,,1
w10125837_drb,822sy230xi,"BOI Norms",1,10,2022-02-22T20:36:41+00:00,2.837553024292,3,"updated stim.csv",Version53.csv,"Version 53","List 53",,,,,,0,Instruct,-,-,"You will now start the full experiment. Press ENTER when you are ready to begin.",,,2492,,,-1,-1,,,,,1
w10125837_drb,822sy230xi,"BOI Norms",1,11,2022-02-22T20:37:03+00:00,22.252696037292,3,"updated stim.csv",Version53.csv,"Version 53","List 53",statuette,,ON,4.739130435,2514,1572,BOI,-,-,"Please name all of the ways you could use this object. Keep in mind that one object can have many uses. Separate your responses with a comma.",,y,21801,,,6567,20536,,,,"art work, weapon, decoration",1
w10125837_drb,822sy230xi,"BOI Norms",1,12,2022-02-22T20:37:24+00:00,20.508949995041,3,"updated stim.csv",Version53.csv,"Version 53","List 53",pincushion,,ON,5.260869565,1969,1578,BOI,-,-,"Please name all of the ways you could use this object. Keep in mind that one object can have many uses. Separate your responses with a comma.",,y,20117,,,3205,19768,,,,"holding pins, sewing",1
w10125837_drb,822sy230xi,"BOI Norms",1,13,2022-02-22T20:37:42+00:00,18.732342004776,3,"updated stim.csv",Version53.csv,"Version 53","List 53",flashlight,,ON,5.869565217,1002,1570,BOI,-,-,"Please name all of the ways you could use this object. Keep in mind that one object can have many uses. Separate your responses with a comma.",,y,18387,,,3793,14492,,,,"as a light in the dark, weapon, microphone",1
w10125837_drb,822sy230xi,"BOI Norms",1,14,2022-02-22T20:38:23+00:00,40.495234966278,3,"updated stim.csv",Version53.csv,"Version 53","List 53",kiss,,ON,4.571428571,1422,1565,BOI,-,-,"Please name all of the ways you could use this object. Keep in mind that one object can have many uses. Separate your responses with a comma.",,y,40103,,,5622,39719,,,,"heal a wound, incite passion, show affection, say hello, say goodbye",1
w10125837_drb,822sy230xi,"BOI Norms",1,15,2022-02-22T20:38:40+00:00,17.433480024338,3,"updated stim.csv",Version53.csv,"Version 53","List 53",senorita,,ON,4.391304348,2311,1567,BOI,-,-,"Please name all of the ways you could use this object. Keep in mind that one object can have many uses. Separate your responses with a comma.",,y,17112,,,4019,6004,,,,"as a friend",1
w10125837_drb,822sy230xi,"BOI Norms",1,16,2022-02-22T20:39:01+00:00,20.748428821564,3,"updated stim.csv",Version53.csv,"Version 53","List 53",lice,,ON,5,1500,1574,BOI,-,-,"Please name all of the ways you could use this object. Keep in mind that one object can have many uses. Separate your responses with a comma.",,y,20020,,,9402,19597,,,,"I wouldn't want to use lice, apply to enemies hair",1
w10125837_drb,822sy230xi,"BOI Norms",1,17,2022-02-22T20:39:19+00:00,18.30352306366,3,"updated stim.csv",Version53.csv,"Version 53","List 53",sandwich,,ON,6.333333333,2238,1582,BOI,-,-,"Please name all of the ways you could use this object. Keep in mind that one object can have many uses. Separate your responses with a comma.",,y,17946,,,6322,7421,,,,"as food",1
w10125837_drb,822sy230xi,"BOI Norms",1,18,2022-02-22T20:39:33+00:00,13.643932104111,3,"updated stim.csv",Version53.csv,"Version 53","List 53",orphan,,ON,5.259259259,1824,1587,BOI,-,-,"Please name all of the ways you could use this object. Keep in mind that one object can have many uses. Separate your responses with a comma.",,y,13130,,,6637,8838,,,,"as a charity",1
w10125837_drb,822sy230xi,"BOI Norms",1,19,2022-02-22T20:39:55+00:00,22.274756908417,3,"updated stim.csv",Version53.csv,"Version 53","List 53",pizza,,ON,6.541666667,1982,1590,BOI,-,-,"Please name all of the ways you could use this object. Keep in mind that one object can have many uses. Separate your responses with a comma.",,y,21890,,,2009,21634,,,,"food, cooking, as leftovers",1
w10125837_drb,822sy230xi,"BOI Norms",1,20,2022-02-22T20:40:14+00:00,19.329395055771,3,"updated stim.csv",Version53.csv,"Version 53","List 53",vanilla,,ON,4.518518519,2837,1588,BOI,-,-,"Please name all of the ways you could use this object. Keep in mind that one object can have many uses. Separate your responses with a comma.",,y,18833,,,2059,18603,,,,"in baking, as a bug deterrent, as a scent",1
w10125837_drb,822sy230xi,"BOI Norms",1,21,2022-02-22T20:40:46+00:00,31.15042090416,3,"updated stim.csv",Version53.csv,"Version 53","List 53",motor,,ON,4.92,1693,1575,BOI,-,-,"Please name all of the ways you could use this object. Keep in mind that one object can have many uses. Separate your responses with a comma.",,y,30833,,,2403,18866,,,,"in a car, as part of an appliance",1
w10125837_drb,822sy230xi,"BOI Norms",1,22,2022-02-22T20:42:17+00:00,91.807646989822,3,"updated stim.csv",Version53.csv,"Version 53","List 53",boa,,ON,4.333333333,252,1576,BOI,-,-,"Please name all of the ways you could use this object. Keep in mind that one object can have many uses. Separate your responses with a comma.",,y,91290,,,80833,87589,,,,"as a wrap, as a snake, as food",1
w10125837_drb,822sy230xi,"BOI Norms",1,23,2022-02-22T20:42:26+00:00,8.3697741031647,3,"updated stim.csv",Version53.csv,"Version 53","List 53",marketeer,,ON,4.5,1608,1589,BOI,-,-,"Please name all of the ways you could use this object. Keep in mind that one object can have many uses. Separate your responses with a comma.",,y,7873,,,4714,7323,,,,"I don't know what that is",1
w10125837_drb,822sy230xi,"BOI Norms",1,24,2022-02-22T20:42:44+00:00,18.256598949432,3,"updated stim.csv",Version53.csv,"Version 53","List 53",fairground,,ON,4.608695652,943,1569,BOI,-,-,"Please name all of the ways you could use this object. Keep in mind that one object can have many uses. Separate your responses with a comma.",,y,17956,,,2971,15923,,,,"for fairs, livestock shows, car shows, sporting events",1
w10125837_drb,822sy230xi,"BOI Norms",1,25,2022-02-22T20:42:59+00:00,14.824600934982,3,"updated stim.csv",Version53.csv,"Version 53","List 53",grenade,,ON,5.2,1173,1580,BOI,-,-,"Please name all of the ways you could use this object. Keep in mind that one object can have many uses. Separate your responses with a comma.",,y,14486,,,2421,9655,,,,"to blow stuff up, to scare someone",1
w10125837_drb,822sy230xi,"BOI Norms",1,26,2022-02-22T20:43:20+00:00,21.126158952713,3,"updated stim.csv",Version53.csv,"Version 53","List 53",slingshot,,ON,5.4,2414,1583,BOI,-,-,"Please name all of the ways you could use this object. Keep in mind that one object can have many uses. Separate your responses with a comma.",,y,20781,,,3142,20227,,,,"to kill small birds/animals, to defend yourself, competition, for fun",1
w10125837_drb,822sy230xi,"BOI Norms",1,27,2022-02-22T20:43:37+00:00,16.931707143784,3,"updated stim.csv",Version53.csv,"Version 53","List 53",tray,,ON,5.166666667,2768,1566,BOI,-,-,"Please name all of the ways you could use this object. Keep in mind that one object can have many uses. Separate your responses with a comma.",,y,16593,,,4253,16119,,,,"for serving things, for carrying things, for holding things",1
w10125837_drb,822sy230xi,"BOI Norms",1,28,2022-02-22T20:43:55+00:00,18.072720050812,3,"updated stim.csv",Version53.csv,"Version 53","List 53",horsewhip,,ON,4.652173913,1317,1568,BOI,-,-,"Please name all of the ways you could use this object. Keep in mind that one object can have many uses. Separate your responses with a comma.",,y,17724,,,2425,17350,,,,"whip a horse, as a weapon on a person, as a rope",1
w10125837_drb,822sy230xi,"BOI Norms",1,29,2022-02-22T20:44:23+00:00,28.302349805832,3,"updated stim.csv",Version53.csv,"Version 53","List 53",peanut,,ON,6.192307692,1893,1579,BOI,-,-,"Please name all of the ways you could use this object. Keep in mind that one object can have many uses. Separate your responses with a comma.",,y,27972,,,2935,27210,,,,"for food, for birdseed, to bake with, peanut butter, cookies, trailmix",1
w10125837_drb,822sy230xi,"BOI Norms",1,30,2022-02-22T20:44:38+00:00,14.430691003799,3,"updated stim.csv",Version53.csv,"Version 53","List 53",tee,,ON,5.347826087,2656,1586,BOI,-,-,"Please name all of the ways you could use this object. Keep in mind that one object can have many uses. Separate your responses with a comma.",,y,13958,,,2237,8838,,,,"golf, baseball",1
w10125837_drb,822sy230xi,"BOI Norms",1,31,2022-02-22T20:44:51+00:00,13.105964183807,3,"updated stim.csv",Version53.csv,"Version 53","List 53",barrel,,ON,5.304347826,153,1585,BOI,-,-,"Please name all of the ways you could use this object. Keep in mind that one object can have many uses. Separate your responses with a comma.",,y,12782,,,2105,12023,,,,"hold liquid, hide in, to start a fire",1
w10125837_drb,822sy230xi,"BOI Norms",1,32,2022-02-22T20:44:56+00:00,4.8836269378662,3,"updated stim.csv",Version53.csv,"Version 53","List 53",housemaid,,ON,4.84,1332,1563,BOI,-,-,"Please name all of the ways you could use this object. Keep in mind that one object can have many uses. Separate your responses with a comma.",,y,4583,,,3604,4314,,,,"to clean",1
w10125837_drb,822sy230xi,"BOI Norms",1,33,2022-02-22T20:45:04+00:00,7.9852869510651,3,"updated stim.csv",Version53.csv,"Version 53","List 53",timepiece,,ON,5.375,2700,1564,BOI,-,-,"Please name all of the ways you could use this object. Keep in mind that one object can have many uses. Separate your responses with a comma.",,y,7575,,,1871,2993,,,,"tell time",1
w10125837_drb,822sy230xi,"BOI Norms",1,34,2022-02-22T20:45:34+00:00,30.692223072052,3,"updated stim.csv",Version53.csv,"Version 53","List 53",tractor,,ON,5.590909091,2753,1584,BOI,-,-,"Please name all of the ways you could use this object. Keep in mind that one object can have many uses. Separate your responses with a comma.",,y,30367,,,4169,29021,,,,"plow, till land, mow, bushhog, pull things",1
w10125837_drb,822sy230xi,"BOI Norms",1,35,2022-02-22T20:45:48+00:00,13.729537010193,3,"updated stim.csv",Version53.csv,"Version 53","List 53",saucer,,ON,5.777777778,2249,1591,BOI,-,-,"Please name all of the ways you could use this object. Keep in mind that one object can have many uses. Separate your responses with a comma.",,y,13368,,,2951,12913,,,,"hold a cup, serve food, fly in",1
w10125837_drb,822sy230xi,"BOI Norms",1,36,2022-02-22T20:45:59+00:00,11.144996881485,3,"updated stim.csv",Version53.csv,"Version 53","List 53",author,,ON,4.4,99,1573,BOI,-,-,"Please name all of the ways you could use this object. Keep in mind that one object can have many uses. Separate your responses with a comma.",,y,10628,,,3508,10250,,,,"write a book, pen a letter",1
w10125837_drb,822sy230xi,"BOI Norms",1,37,2022-02-22T20:46:44+00:00,45.17396402359,3,"updated stim.csv",Version53.csv,"Version 53","List 53",walrus,,ON,4.875,2891,1571,BOI,-,-,"Please name all of the ways you could use this object. Keep in mind that one object can have many uses. Separate your responses with a comma.",,y,44859,,,1712,44211,,,,"food, blubber for fuel, tusks for jewelry ",1
w10125837_drb,822sy230xi,"BOI Norms",1,38,2022-02-22T20:47:05+00:00,21.033395051956,3,"updated stim.csv",Version53.csv,"Version 53","List 53",rain,,ON,4.958333333,2129,1562,BOI,-,-,"Please name all of the ways you could use this object. Keep in mind that one object can have many uses. Separate your responses with a comma.",,y,20681,,,2745,19091,,,,"to shower, to drink, to water plants, replenish lakes/rivers",1
w10125837_drb,822sy230xi,"BOI Norms",1,39,2022-02-22T20:47:17+00:00,11.760401010513,3,"updated stim.csv",Version53.csv,"Version 53","List 53",placenta,,ON,4.28,1984,1577,BOI,-,-,"Please name all of the ways you could use this object. Keep in mind that one object can have many uses. Separate your responses with a comma.",,y,11385,,,1777,11120,,,,"hold a baby, to eat, medical research",1
w10125837_drb,822sy230xi,"BOI Norms",1,40,2022-02-22T20:47:32+00:00,15.157989025116,3,"updated stim.csv",Version53.csv,"Version 53","List 53",electrician,,ON,4.625,897,1581,BOI,-,-,"Please name all of the ways you could use this object. Keep in mind that one object can have many uses. Separate your responses with a comma.",,y,14707,,,2401,8522,,,,"wire a house, fix electricity",1
w10125837_drb,822sy230xi,"BOI Norms",1,41,2022-02-22T20:47:36+00:00,3.2957189083099,3,"updated stim.csv",Version53.csv,"Version 53","List 53",,,,,,0,Instruct,,,"You will now be asked a few questions about your experience today.",,"Instruct 4",2966,,,-1,-1,,,,,1
