Username,ID,ExperimentName,Session,Trial,Date,TimeDif,"Condition Number","Stimuli File","Order File","Condition Description","Condition Notes",Stimuli*Cue,Stimuli*Answer,Stimuli*Shuffle,"Stimuli*Stimuli Notes",Stimuli*Value,Procedure*Item,"Procedure*Trial Type","Procedure*Max Time","Procedure*Min Time",Procedure*Text,"Procedure*Procedure Notes",Procedure*Shuffle,Response*RT,Response*Response,Response*Accuracy,Response*RTfirst,Response*RTlast,Response*strictAcc,Response*lenientAcc,Response*focus,Response*JOL,Response*Focus
lyndsey.wisbiski@hope.edu,grz6lmii8y,Affordances_Hope,1,1,2022-09-21T00:23:51+00:00,13.695410966873,22,"updated stim.csv",Version47.csv,"Version 47","List 47",,,,,,0,Instruct,-,10,"In this section, you will be presented with a series of objects. Please name as many possible uses for this object as you can think of by typing them in the box below each object.",,Instruct1,13400,,,-1,-1,,,,,1
lyndsey.wisbiski@hope.edu,grz6lmii8y,Affordances_Hope,1,2,2022-09-21T00:24:02+00:00,11.26935505867,22,"updated stim.csv",Version47.csv,"Version 47","List 47",,,,,,0,Instruct,-,10,"Please keep in mind that a single object will have more than one use. For example, a ball can be thrown or can be bounced or even stepped on. When listing multiple uses for one object, please separate each use with a comma (i.e., thrown, bounced, stepped on)",,Instruct2,11067,,,-1,-1,,,,,1
lyndsey.wisbiski@hope.edu,grz6lmii8y,Affordances_Hope,1,3,2022-09-21T00:24:07+00:00,4.9674818515778,22,"updated stim.csv",Version47.csv,"Version 47","List 47",,,,,,0,Instruct,-,-,"Before starting the experiment, you will complete a short practice sesstion. Press ENTER when you are ready to begin.",,Instruct3,4755,,,-1,-1,,,,,1
lyndsey.wisbiski@hope.edu,grz6lmii8y,Affordances_Hope,1,4,2022-09-21T00:24:56+00:00,48.83700299263,22,"updated stim.csv",Version47.csv,"Version 47","List 47",spaghetti,,3003,6,2461,3004,BOI,-,-,"Please name all of the ways you could use this object. Keep in mind that one object can have many uses. Separate your responses with a comma.",,n,48471,,,7408,37149,,,,"eat, cook, share, break, prepare, buy, order",1
lyndsey.wisbiski@hope.edu,grz6lmii8y,Affordances_Hope,1,5,2022-09-21T00:25:20+00:00,24.420749187469,22,"updated stim.csv",Version47.csv,"Version 47","List 47",grain,,3004,5.217391304,1143,3005,BOI,-,-,"Please name all of the ways you could use this object. Keep in mind that one object can have many uses. Separate your responses with a comma.",,n,24065,,,7764,16391,,,,"process, bake, eat",1
lyndsey.wisbiski@hope.edu,grz6lmii8y,Affordances_Hope,1,6,2022-09-21T00:26:13+00:00,52.318199872971,22,"updated stim.csv",Version47.csv,"Version 47","List 47",saucer,,3005,5.777777778,2249,3006,BOI,-,-,"Please name all of the ways you could use this object. Keep in mind that one object can have many uses. Separate your responses with a comma.",,n,51946,,,4042,49910,,,,"toss, use, serve, create",1
lyndsey.wisbiski@hope.edu,grz6lmii8y,Affordances_Hope,1,7,2022-09-21T00:26:53+00:00,40.769855976105,22,"updated stim.csv",Version47.csv,"Version 47","List 47",paperwork,,3001,5.625,1866,3002,BOI,-,-,"Please name all of the ways you could use this object. Keep in mind that one object can have many uses. Separate your responses with a comma.",,n,39862,,,2176,34765,,,,"do, make, write, produce, correct, file, question",1
lyndsey.wisbiski@hope.edu,grz6lmii8y,Affordances_Hope,1,8,2022-09-21T00:27:28+00:00,34.932408094406,22,"updated stim.csv",Version47.csv,"Version 47","List 47",shortening,,3002,4.92,2358,3003,BOI,-,-,"Please name all of the ways you could use this object. Keep in mind that one object can have many uses. Separate your responses with a comma.",,n,34565,,,9287,28772,,,,"vegetable, food, cooking, baking, prep",1
lyndsey.wisbiski@hope.edu,grz6lmii8y,Affordances_Hope,1,9,2022-09-21T00:27:31+00:00,3.1304678916931,22,"updated stim.csv",Version47.csv,"Version 47","List 47",,,,,,0,Instruct,-,-,"You have completed this section. Press ENTER to continue",,"Instruct 5",2779,,,-1,-1,,,,,1
lyndsey.wisbiski@hope.edu,grz6lmii8y,Affordances_Hope,1,10,2022-09-21T00:27:35+00:00,3.8540740013123,22,"updated stim.csv",Version47.csv,"Version 47","List 47",,,,,,0,Instruct,-,-,"You will now start the full experiment. Press ENTER when you are ready to begin.",,,3501,,,-1,-1,,,,,1
lyndsey.wisbiski@hope.edu,grz6lmii8y,Affordances_Hope,1,11,2022-09-21T00:28:14+00:00,39.115962028503,22,"updated stim.csv",Version47.csv,"Version 47","List 47",axle,,1398,4.904761905,108,1399,BOI,-,-,"Please name all of the ways you could use this object. Keep in mind that one object can have many uses. Separate your responses with a comma.",,y,38744,,,20048,37672,,,,"break, wheels, repair, produce, place",1
lyndsey.wisbiski@hope.edu,grz6lmii8y,Affordances_Hope,1,12,2022-09-21T00:28:36+00:00,21.852733135223,22,"updated stim.csv",Version47.csv,"Version 47","List 47",newt,,1396,4.391304348,1765,1397,BOI,-,-,"Please name all of the ways you could use this object. Keep in mind that one object can have many uses. Separate your responses with a comma.",,y,21492,,,2438,19913,,,,"animal, lizard, name",1
lyndsey.wisbiski@hope.edu,grz6lmii8y,Affordances_Hope,1,13,2022-09-21T00:29:37+00:00,60.367238044739,22,"updated stim.csv",Version47.csv,"Version 47","List 47",secretary,,1405,5.2,2305,1406,BOI,-,-,"Please name all of the ways you could use this object. Keep in mind that one object can have many uses. Separate your responses with a comma.",,y,60002,,,4820,51843,,,,"paperwork, person, office, official, power",1
lyndsey.wisbiski@hope.edu,grz6lmii8y,Affordances_Hope,1,14,2022-09-21T00:30:27+00:00,50.679313898087,22,"updated stim.csv",Version47.csv,"Version 47","List 47",radiologist,,1399,4.913043478,2123,1400,BOI,-,-,"Please name all of the ways you could use this object. Keep in mind that one object can have many uses. Separate your responses with a comma.",,y,50314,,,3673,25521,,,,"x-rays, doctor, study, bones, tissues, lead",1
lyndsey.wisbiski@hope.edu,grz6lmii8y,Affordances_Hope,1,15,2022-09-21T00:31:00+00:00,32.627368927002,22,"updated stim.csv",Version47.csv,"Version 47","List 47",hamster,,1390,5.583333333,1226,1391,BOI,-,-,"Please name all of the ways you could use this object. Keep in mind that one object can have many uses. Separate your responses with a comma.",,y,32276,,,2365,30691,,,,"pet, animal, cage, food, rodent",1
lyndsey.wisbiski@hope.edu,grz6lmii8y,Affordances_Hope,1,16,2022-09-21T00:31:29+00:00,28.709953069687,22,"updated stim.csv",Version47.csv,"Version 47","List 47",comb,,1387,5.923076923,606,1388,BOI,-,-,"Please name all of the ways you could use this object. Keep in mind that one object can have many uses. Separate your responses with a comma.",,y,27794,,,3481,16192,,,,"hair, brush, teeth",1
lyndsey.wisbiski@hope.edu,grz6lmii8y,Affordances_Hope,1,17,2022-09-21T00:32:23+00:00,54.656095981598,22,"updated stim.csv",Version47.csv,"Version 47","List 47",gate,,1388,5.956521739,1085,1389,BOI,-,-,"Please name all of the ways you could use this object. Keep in mind that one object can have many uses. Separate your responses with a comma.",,y,54282,,,1333,37158,,,,"open, fence, beginnings",1
lyndsey.wisbiski@hope.edu,grz6lmii8y,Affordances_Hope,1,18,2022-09-21T00:33:05+00:00,41.800627946854,22,"updated stim.csv",Version47.csv,"Version 47","List 47",chest,,1403,5.851851852,513,1404,BOI,-,-,"Please name all of the ways you could use this object. Keep in mind that one object can have many uses. Separate your responses with a comma.",,y,41442,,,2021,21718,,,,"body, storage, organs, torso, pirates, break",1
lyndsey.wisbiski@hope.edu,grz6lmii8y,Affordances_Hope,1,19,2022-09-21T00:35:09+00:00,123.77143001556,22,"updated stim.csv",Version47.csv,"Version 47","List 47",animal,,1407,5.958333333,41,1408,BOI,-,-,"Please name all of the ways you could use this object. Keep in mind that one object can have many uses. Separate your responses with a comma.",,y,123414,,,3319,110440,,,,"pet, food, predator, prey, mammals, amphibians, ecosystem, habitat, carnivores, omnivores, herbivores, vertebrae, invertebrate, veterinary",1
lyndsey.wisbiski@hope.edu,grz6lmii8y,Affordances_Hope,1,20,2022-09-21T00:35:43+00:00,34.450320005417,22,"updated stim.csv",Version47.csv,"Version 47","List 47",longbow,,1401,5.285714286,1546,1402,BOI,-,-,"Please name all of the ways you could use this object. Keep in mind that one object can have many uses. Separate your responses with a comma.",,y,34092,,,2390,27817,,,,"archery, arrows, art, craftsmanship",1
lyndsey.wisbiski@hope.edu,grz6lmii8y,Affordances_Hope,1,21,2022-09-21T00:36:33+00:00,49.658273935318,22,"updated stim.csv",Version47.csv,"Version 47","List 47",newspaper,,1406,5.76,1760,1407,BOI,-,-,"Please name all of the ways you could use this object. Keep in mind that one object can have many uses. Separate your responses with a comma.",,y,49289,,,2446,45209,,,,"read, bedding, paper mace",1
lyndsey.wisbiski@hope.edu,grz6lmii8y,Affordances_Hope,1,22,2022-09-21T00:37:21+00:00,47.989589214325,22,"updated stim.csv",Version47.csv,"Version 47","List 47",stream,,1391,4.678571429,2562,1392,BOI,-,-,"Please name all of the ways you could use this object. Keep in mind that one object can have many uses. Separate your responses with a comma.",,y,47632,,,2622,42287,,,,"water, irrigation, wash, bathe",1
lyndsey.wisbiski@hope.edu,grz6lmii8y,Affordances_Hope,1,23,2022-09-21T00:37:47+00:00,25.704973936081,22,"updated stim.csv",Version47.csv,"Version 47","List 47",harpsichord,,1386,4.904761905,1255,1387,BOI,-,-,"Please name all of the ways you could use this object. Keep in mind that one object can have many uses. Separate your responses with a comma.",,y,25342,,,-1,-1,,,,,1
lyndsey.wisbiski@hope.edu,grz6lmii8y,Affordances_Hope,1,24,2022-09-21T00:38:07+00:00,20.805354833603,22,"updated stim.csv",Version47.csv,"Version 47","List 47",floorboard,,1397,5.791666667,1009,1398,BOI,-,-,"Please name all of the ways you could use this object. Keep in mind that one object can have many uses. Separate your responses with a comma.",,y,20433,,,8569,17955,,,,"protection, foundation",1
lyndsey.wisbiski@hope.edu,grz6lmii8y,Affordances_Hope,1,25,2022-09-21T00:38:24+00:00,16.20672416687,22,"updated stim.csv",Version47.csv,"Version 47","List 47",headrest,,1395,5.346153846,1271,1396,BOI,-,-,"Please name all of the ways you could use this object. Keep in mind that one object can have many uses. Separate your responses with a comma.",,y,15851,,,3431,12931,,,,"rest head, comfort",1
lyndsey.wisbiski@hope.edu,grz6lmii8y,Affordances_Hope,1,26,2022-09-21T00:38:49+00:00,25.683980941772,22,"updated stim.csv",Version47.csv,"Version 47","List 47",firstborn,,1394,4.518518519,988,1395,BOI,-,-,"Please name all of the ways you could use this object. Keep in mind that one object can have many uses. Separate your responses with a comma.",,y,25332,,,2685,24442,,,,"child, son, daughter, oldest, family",1
lyndsey.wisbiski@hope.edu,grz6lmii8y,Affordances_Hope,1,27,2022-09-21T00:39:14+00:00,25.018999099731,22,"updated stim.csv",Version47.csv,"Version 47","List 47",pot,,1383,6.16,2046,1384,BOI,-,-,"Please name all of the ways you could use this object. Keep in mind that one object can have many uses. Separate your responses with a comma.",,y,24657,,,2759,9219,,,,"cook, clean",1
lyndsey.wisbiski@hope.edu,grz6lmii8y,Affordances_Hope,1,28,2022-09-21T00:39:45+00:00,31.146548986435,22,"updated stim.csv",Version47.csv,"Version 47","List 47",confetti,,1389,4.76,626,1390,BOI,-,-,"Please name all of the ways you could use this object. Keep in mind that one object can have many uses. Separate your responses with a comma.",,y,30786,,,1599,9327,,,,"celebration, party",1
lyndsey.wisbiski@hope.edu,grz6lmii8y,Affordances_Hope,1,29,2022-09-21T00:40:38+00:00,53.00353884697,22,"updated stim.csv",Version47.csv,"Version 47","List 47",pet,,1384,6.214285714,1932,1385,BOI,-,-,"Please name all of the ways you could use this object. Keep in mind that one object can have many uses. Separate your responses with a comma.",,y,52619,,,2869,27625,,,,"emotional support, service, family, entertainment",1
lyndsey.wisbiski@hope.edu,grz6lmii8y,Affordances_Hope,1,30,2022-09-21T00:41:14+00:00,35.772154092789,22,"updated stim.csv",Version47.csv,"Version 47","List 47",mink,,1381,4.904761905,1664,1382,BOI,-,-,"Please name all of the ways you could use this object. Keep in mind that one object can have many uses. Separate your responses with a comma.",,y,34332,,,2516,15510,,,,"animal, study, dissect",1
lyndsey.wisbiski@hope.edu,grz6lmii8y,Affordances_Hope,1,31,2022-09-21T00:41:36+00:00,21.968626022339,22,"updated stim.csv",Version47.csv,"Version 47","List 47",tortoise,,1402,4.541666667,2741,1403,BOI,-,-,"Please name all of the ways you could use this object. Keep in mind that one object can have many uses. Separate your responses with a comma.",,y,21396,,,4316,17794,,,,"protection, art, study, dissect",1
lyndsey.wisbiski@hope.edu,grz6lmii8y,Affordances_Hope,1,32,2022-09-21T00:41:54+00:00,18.195008993149,22,"updated stim.csv",Version47.csv,"Version 47","List 47",comforter,,1409,6.16,607,1410,BOI,-,-,"Please name all of the ways you could use this object. Keep in mind that one object can have many uses. Separate your responses with a comma.",,y,17847,,,3569,17046,,,,"bedding, blanket, sleep",1
lyndsey.wisbiski@hope.edu,grz6lmii8y,Affordances_Hope,1,33,2022-09-21T00:42:34+00:00,39.774783849716,22,"updated stim.csv",Version47.csv,"Version 47","List 47",handkerchief,,1410,5.72,1238,1411,BOI,-,-,"Please name all of the ways you could use this object. Keep in mind that one object can have many uses. Separate your responses with a comma.",,y,39243,,,6745,14930,,,,accessory,1
lyndsey.wisbiski@hope.edu,grz6lmii8y,Affordances_Hope,1,34,2022-09-21T00:43:16+00:00,41.516075134277,22,"updated stim.csv",Version47.csv,"Version 47","List 47",apron,,1385,5.96,67,1386,BOI,-,-,"Please name all of the ways you could use this object. Keep in mind that one object can have many uses. Separate your responses with a comma.",,y,41117,,,1956,10057,,,,"cooking, protection, art",1
lyndsey.wisbiski@hope.edu,grz6lmii8y,Affordances_Hope,1,35,2022-09-21T00:44:00+00:00,44.450965881348,22,"updated stim.csv",Version47.csv,"Version 47","List 47",spear,,1382,5.208333333,2465,1383,BOI,-,-,"Please name all of the ways you could use this object. Keep in mind that one object can have many uses. Separate your responses with a comma.",,y,43910,,,1575,40425,,,,"protection, hunting, food",0.768
lyndsey.wisbiski@hope.edu,grz6lmii8y,Affordances_Hope,1,36,2022-09-21T00:44:04+00:00,3.5350642204285,22,"updated stim.csv",Version47.csv,"Version 47","List 47",duckweed,,1408,4.4,861,1409,BOI,-,-,"Please name all of the ways you could use this object. Keep in mind that one object can have many uses. Separate your responses with a comma.",,y,3289,,,-1,-1,,,,,1
lyndsey.wisbiski@hope.edu,grz6lmii8y,Affordances_Hope,1,37,2022-09-21T00:44:23+00:00,19.503705978394,22,"updated stim.csv",Version47.csv,"Version 47","List 47",kit,,1404,4.739130435,1424,1405,BOI,-,-,"Please name all of the ways you could use this object. Keep in mind that one object can have many uses. Separate your responses with a comma.",,y,19202,,,4555,15797,,,,"sew, cook, first aid",1
lyndsey.wisbiski@hope.edu,grz6lmii8y,Affordances_Hope,1,38,2022-09-21T00:45:01+00:00,37.927956819534,22,"updated stim.csv",Version47.csv,"Version 47","List 47",sled,,1392,6.086956522,2406,1393,BOI,-,-,"Please name all of the ways you could use this object. Keep in mind that one object can have many uses. Separate your responses with a comma.",,y,37473,,,2632,31925,,,,"slide, snow, entertainment, distraction",1
lyndsey.wisbiski@hope.edu,grz6lmii8y,Affordances_Hope,1,39,2022-09-21T00:45:10+00:00,8.6464951038361,22,"updated stim.csv",Version47.csv,"Version 47","List 47",loin,,1393,4.391304348,1543,1394,BOI,-,-,"Please name all of the ways you could use this object. Keep in mind that one object can have many uses. Separate your responses with a comma.",,y,8202,,,3139,7246,,,,"cover, clothing ",1
lyndsey.wisbiski@hope.edu,grz6lmii8y,Affordances_Hope,1,40,2022-09-21T00:45:37+00:00,27.350991010666,22,"updated stim.csv",Version47.csv,"Version 47","List 47",keepsake,,1400,4.75,1403,1401,BOI,-,-,"Please name all of the ways you could use this object. Keep in mind that one object can have many uses. Separate your responses with a comma.",,y,26873,,,3751,6650,,,,memories,1
lyndsey.wisbiski@hope.edu,grz6lmii8y,Affordances_Hope,1,41,2022-09-21T00:45:40+00:00,2.6415300369263,22,"updated stim.csv",Version47.csv,"Version 47","List 47",,,,,,0,Instruct,,,"You will now be asked a few questions about your experience today.",,"Instruct 4",2421,,,-1,-1,,,,,1
