"Username","ID","ExperimentName","Session","Trial","Date","TimeDif","Condition.Number","Stimuli.File","Order.File","Condition.Description","Condition.Notes","Stimuli.Cue","Stimuli.Answer","Stimuli.Shuffle","Stimuli.Stimuli.Notes","Stimuli.Value","Stimuli.Rand","Procedure.Item","Procedure.Trial.Type","Procedure.Max.Time","Procedure.Min.Time","Procedure.Text","Procedure.Procedure.Notes","Procedure.Shuffle","Response.RT","Response.Response","Response.Accuracy","Response.RTfirst","Response.RTlast","Response.strictAcc","Response.lenientAcc","Response.focus","Response.JOL","Response.Focus"
"10178510","lbpfgvdjl9","Affordance Norms_USM",1,11,"2023-07-25T22:16:17+00:00",46.25331401825,4,"updated stim.csv","Version4.csv","Version 4","List 4","wristwatch",NA,94,5.259259259,2989,0.89961033,95,"BOI","-","-","Please name all of the ways you could use this object. Keep in mind that one object can have many uses. Separate your responses with a comma.",NA,"y",46096,NA,NA,4180,31087,NA,NA,NA,"keep time, fashion, fitness",1
"10178510","lbpfgvdjl9","Affordance Norms_USM",1,12,"2023-07-25T22:16:41+00:00",24.330656051636,4,"updated stim.csv","Version4.csv","Version 4","List 4","basil",NA,95,5.28,761,0.138632098,96,"BOI","-","-","Please name all of the ways you could use this object. Keep in mind that one object can have many uses. Separate your responses with a comma.",NA,"y",24225,NA,NA,1971,23607,NA,NA,NA,"cook, smell, grow, breathe",1
"10178510","lbpfgvdjl9","Affordance Norms_USM",1,13,"2023-07-25T22:17:09+00:00",27.111187934875,4,"updated stim.csv","Version4.csv","Version 4","List 4","tourist",NA,109,5.75,2555,0.06185654,110,"BOI","-","-","Please name all of the ways you could use this object. Keep in mind that one object can have many uses. Separate your responses with a comma.",NA,"y",26958,NA,NA,11161,26571,NA,NA,NA,"make money, advertis",1
"10178510","lbpfgvdjl9","Affordance Norms_USM",1,14,"2023-07-25T22:17:43+00:00",34.458150863647,4,"updated stim.csv","Version4.csv","Version 4","List 4","defendant",NA,114,4.75,721,0.382136645,115,"BOI","-","-","Please name all of the ways you could use this object. Keep in mind that one object can have many uses. Separate your responses with a comma.",NA,"y",34315,NA,NA,20546,33338,NA,NA,NA,"trial case, winning a fight",1
"10178510","lbpfgvdjl9","Affordance Norms_USM",1,15,"2023-07-25T22:18:14+00:00",30.692537069321,4,"updated stim.csv","Version4.csv","Version 4","List 4","gumbo",NA,100,4.541666667,240,0.465962689,101,"BOI","-","-","Please name all of the ways you could use this object. Keep in mind that one object can have many uses. Separate your responses with a comma.",NA,"y",30528,NA,NA,3333,29916,NA,NA,NA,"eat, smell, spill, make, taste",1
"10178510","lbpfgvdjl9","Affordance Norms_USM",1,16,"2023-07-25T22:18:44+00:00",30.354341030121,4,"updated stim.csv","Version4.csv","Version 4","List 4","monument",NA,120,5.291666667,1177,0.650827048,121,"BOI","-","-","Please name all of the ways you could use this object. Keep in mind that one object can have many uses. Separate your responses with a comma.",NA,"y",30198,NA,NA,2152,30027,NA,NA,NA,"destroy, build, cherrish, crumble, admire, advertise",1
"10178510","lbpfgvdjl9","Affordance Norms_USM",1,17,"2023-07-25T22:19:35+00:00",51.218126058578,4,"updated stim.csv","Version4.csv","Version 4","List 4","coachman",NA,116,4.409090909,2059,0.435620803,117,"BOI","-","-","Please name all of the ways you could use this object. Keep in mind that one object can have many uses. Separate your responses with a comma.",NA,"y",51066,NA,NA,8001,50586,NA,NA,NA,"transportation, directions",1
"10178510","lbpfgvdjl9","Affordance Norms_USM",1,18,"2023-07-25T22:19:47+00:00",12.080874919891,4,"updated stim.csv","Version4.csv","Version 4","List 4","technician",NA,92,4.625,2834,0.128717005,93,"BOI","-","-","Please name all of the ways you could use this object. Keep in mind that one object can have many uses. Separate your responses with a comma.",NA,"y",11044,NA,NA,4384,10679,NA,NA,NA,"fix things, educATE",1
"10178510","lbpfgvdjl9","Affordance Norms_USM",1,19,"2023-07-25T22:20:09+00:00",22.09176492691,4,"updated stim.csv","Version4.csv","Version 4","List 4","wrist",NA,93,5.208333333,490,0.93770869,94,"BOI","-","-","Please name all of the ways you could use this object. Keep in mind that one object can have many uses. Separate your responses with a comma.",NA,"y",21898,NA,NA,3763,20214,NA,NA,NA,"wear things, support hand, move hand, break",1
"10178510","lbpfgvdjl9","Affordance Norms_USM",1,20,"2023-07-25T22:20:31+00:00",21.511823177338,4,"updated stim.csv","Version4.csv","Version 4","List 4","vacuum",NA,110,5.458333333,986,0.340651121,111,"BOI","-","-","Please name all of the ways you could use this object. Keep in mind that one object can have many uses. Separate your responses with a comma.",NA,"y",21353,NA,NA,6049,20846,NA,NA,NA,"clean, dusting",1
"10178510","lbpfgvdjl9","Affordance Norms_USM",1,21,"2023-07-25T22:20:47+00:00",16.412364959717,4,"updated stim.csv","Version4.csv","Version 4","List 4","chow",NA,115,4.913043478,390,0.962937957,116,"BOI","-","-","Please name all of the ways you could use this object. Keep in mind that one object can have many uses. Separate your responses with a comma.",NA,"y",15029,NA,NA,5385,14439,NA,NA,NA,"food, nutrition",1
"10178510","lbpfgvdjl9","Affordance Norms_USM",1,22,"2023-07-25T22:21:07+00:00",19.718618869781,4,"updated stim.csv","Version4.csv","Version 4","List 4","tee",NA,112,4.861185984,2182,0.615183644,113,"BOI","-","-","Please name all of the ways you could use this object. Keep in mind that one object can have many uses. Separate your responses with a comma.",NA,"y",19513,NA,NA,9383,18946,NA,NA,NA,"golf, baseball, holding object",1
"10178510","lbpfgvdjl9","Affordance Norms_USM",1,23,"2023-07-25T22:21:48+00:00",40.887370109558,4,"updated stim.csv","Version4.csv","Version 4","List 4","jurist",NA,119,5.08,402,0.030067237,120,"BOI","-","-","Please name all of the ways you could use this object. Keep in mind that one object can have many uses. Separate your responses with a comma.",NA,"y",40739,NA,NA,34163,37761,NA,NA,NA,"law",1
"10178510","lbpfgvdjl9","Affordance Norms_USM",1,24,"2023-07-25T22:22:19+00:00",31.537849903107,4,"updated stim.csv","Version4.csv","Version 4","List 4","sangria",NA,105,4.56,1292,0.109871009,106,"BOI","-","-","Please name all of the ways you could use this object. Keep in mind that one object can have many uses. Separate your responses with a comma.",NA,"y",31380,NA,NA,8846,30742,NA,NA,NA,"drink, spill, enjoy",1
"10178510","lbpfgvdjl9","Affordance Norms_USM",1,25,"2023-07-25T22:22:33+00:00",13.463389158249,4,"updated stim.csv","Version4.csv","Version 4","List 4","teahouse",NA,108,5.833333333,2439,0.34499283,109,"BOI","-","-","Please name all of the ways you could use this object. Keep in mind that one object can have many uses. Separate your responses with a comma.",NA,"y",13301,NA,NA,4138,12869,NA,NA,NA,"make tea, drink tea",1
"10178510","lbpfgvdjl9","Affordance Norms_USM",1,26,"2023-07-25T22:22:43+00:00",10.325006008148,4,"updated stim.csv","Version4.csv","Version 4","List 4","harness",NA,102,6.47826087,244,0.637010138,103,"BOI","-","-","Please name all of the ways you could use this object. Keep in mind that one object can have many uses. Separate your responses with a comma.",NA,"y",10179,NA,NA,3427,9901,NA,NA,NA,"hold, drop, secure, safety",1
"10178510","lbpfgvdjl9","Affordance Norms_USM",1,27,"2023-07-25T22:22:57+00:00",13.451599836349,4,"updated stim.csv","Version4.csv","Version 4","List 4","helicopter",NA,103,5.44,84,0.252057786,104,"BOI","-","-","Please name all of the ways you could use this object. Keep in mind that one object can have many uses. Separate your responses with a comma.",NA,"y",13307,NA,NA,1951,13066,NA,NA,NA,"fly, crash, move, transport",1
"10178510","lbpfgvdjl9","Affordance Norms_USM",1,28,"2023-07-25T22:23:32+00:00",34.86387014389,4,"updated stim.csv","Version4.csv","Version 4","List 4","handclap",NA,101,6.090909091,1836,0.787837108,102,"BOI","-","-","Please name all of the ways you could use this object. Keep in mind that one object can have many uses. Separate your responses with a comma.",NA,"y",34721,NA,NA,5282,26043,NA,NA,NA,"scare, congratulate, noise",1
"10178510","lbpfgvdjl9","Affordance Norms_USM",1,29,"2023-07-25T22:24:27+00:00",55.060065984726,4,"updated stim.csv","Version4.csv","Version 4","List 4","gentleman",NA,118,5.16,1750,0.027468228,119,"BOI","-","-","Please name all of the ways you could use this object. Keep in mind that one object can have many uses. Separate your responses with a comma.",NA,"y",54910,NA,NA,25064,54765,NA,NA,NA,"get dinner",1
"10178510","lbpfgvdjl9","Affordance Norms_USM",1,30,"2023-07-25T22:24:52+00:00",25.284847974777,4,"updated stim.csv","Version4.csv","Version 4","List 4","chestnut",NA,97,5.391304348,2944,0.762834183,98,"BOI","-","-","Please name all of the ways you could use this object. Keep in mind that one object can have many uses. Separate your responses with a comma.",NA,"y",25145,NA,NA,3764,24466,NA,NA,NA,"eat, feed, smell, crush",1
"10178510","lbpfgvdjl9","Affordance Norms_USM",1,31,"2023-07-25T22:25:11+00:00",18.559661865234,4,"updated stim.csv","Version4.csv","Version 4","List 4","councilman",NA,117,4.5,1006,0.638440057,118,"BOI","-","-","Please name all of the ways you could use this object. Keep in mind that one object can have many uses. Separate your responses with a comma.",NA,"y",18417,NA,NA,4372,18134,NA,NA,NA,"make laws",1
"10178510","lbpfgvdjl9","Affordance Norms_USM",1,32,"2023-07-25T22:25:35+00:00",24.856373071671,4,"updated stim.csv","Version4.csv","Version 4","List 4","deck",NA,99,5.708333333,855,0.1283264,100,"BOI","-","-","Please name all of the ways you could use this object. Keep in mind that one object can have many uses. Separate your responses with a comma.",NA,"y",24710,NA,NA,13307,24092,NA,NA,NA,"stand, look out, crash",1
"10178510","lbpfgvdjl9","Affordance Norms_USM",1,33,"2023-07-25T22:25:51+00:00",15.212862014771,4,"updated stim.csv","Version4.csv","Version 4","List 4","clothesline",NA,98,4.692307692,1551,0.8649799,99,"BOI","-","-","Please name all of the ways you could use this object. Keep in mind that one object can have many uses. Separate your responses with a comma.",NA,"y",15071,NA,NA,2559,9192,NA,NA,NA,"dry clothes, hang things",1
"10178510","lbpfgvdjl9","Affordance Norms_USM",1,34,"2023-07-25T22:26:02+00:00",11.357085943222,4,"updated stim.csv","Version4.csv","Version 4","List 4","chef",NA,96,5.545454545,2263,0.063596043,97,"BOI","-","-","Please name all of the ways you could use this object. Keep in mind that one object can have many uses. Separate your responses with a comma.",NA,"y",11215,NA,NA,1992,10770,NA,NA,NA,"cook, serve",1
"10178510","lbpfgvdjl9","Affordance Norms_USM",1,35,"2023-07-25T22:26:09+00:00",7.5393099784851,4,"updated stim.csv","Version4.csv","Version 4","List 4","nylon",NA,111,6.04,512,0.022831047,112,"BOI","-","-","Please name all of the ways you could use this object. Keep in mind that one object can have many uses. Separate your responses with a comma.",NA,"y",6936,NA,NA,2798,5869,NA,NA,NA,"make things",1
"10178510","lbpfgvdjl9","Affordance Norms_USM",1,36,"2023-07-25T22:26:38+00:00",28.941761016846,4,"updated stim.csv","Version4.csv","Version 4","List 4","cattle",NA,113,5.2,2522,0.855940638,114,"BOI","-","-","Please name all of the ways you could use this object. Keep in mind that one object can have many uses. Separate your responses with a comma.",NA,"y",28487,NA,NA,2608,28023,NA,NA,NA,"eat, milk, butter, eat grass, worsen climate change",1
"10178510","lbpfgvdjl9","Affordance Norms_USM",1,37,"2023-07-25T22:27:02+00:00",23.503370046616,4,"updated stim.csv","Version4.csv","Version 4","List 4","sweatshirt",NA,107,5.458333333,1423,0.486295703,108,"BOI","-","-","Please name all of the ways you could use this object. Keep in mind that one object can have many uses. Separate your responses with a comma.",NA,"y",23348,NA,NA,1892,22994,NA,NA,NA,"wear, destroy, get dirty, borrow, give, burn",1
"10178510","lbpfgvdjl9","Affordance Norms_USM",1,38,"2023-07-25T22:27:15+00:00",12.903554916382,4,"updated stim.csv","Version4.csv","Version 4","List 4","shank",NA,106,5.652173913,233,0.291050238,107,"BOI","-","-","Please name all of the ways you could use this object. Keep in mind that one object can have many uses. Separate your responses with a comma.",NA,"y",12755,NA,NA,7167,11169,NA,NA,NA,"stab, threaten",1
"10178510","lbpfgvdjl9","Affordance Norms_USM",1,39,"2023-07-25T22:27:49+00:00",34.44494509697,4,"updated stim.csv","Version4.csv","Version 4","List 4","periscope",NA,104,6.041666667,2033,0.323434189,105,"BOI","-","-","Please name all of the ways you could use this object. Keep in mind that one object can have many uses. Separate your responses with a comma.",NA,"y",34304,NA,NA,29744,33752,NA,NA,NA,"see, discover",0.849
"10178510","lbpfgvdjl9","Affordance Norms_USM",1,40,"2023-07-25T22:28:13+00:00",23.568941116333,4,"updated stim.csv","Version4.csv","Version 4","List 4","tablespoon",NA,91,5.653846154,1329,0.879948299,92,"BOI","-","-","Please name all of the ways you could use this object. Keep in mind that one object can have many uses. Separate your responses with a comma.",NA,"y",23417,NA,NA,2289,22665,NA,NA,NA,"measure, create, assist cook",1
"w10045458_kdmc","cncgw1fbev","Affordance Norms_USM",1,11,"2023-07-26T04:14:37+00:00",20.087727069855,5,"updated stim.csv","Version5.csv","Version 5","List 5","globe",NA,140,4.68,51,0.461950375,141,"BOI","-","-","Please name all of the ways you could use this object. Keep in mind that one object can have many uses. Separate your responses with a comma.",NA,"y",19901,NA,NA,4170,9946,NA,NA,NA,"to view the world",1
"w10045458_kdmc","cncgw1fbev","Affordance Norms_USM",1,12,"2023-07-26T04:15:12+00:00",35.330764055252,5,"updated stim.csv","Version5.csv","Version 5","List 5","ballot",NA,148,6.434782609,814,0.883086008,149,"BOI","-","-","Please name all of the ways you could use this object. Keep in mind that one object can have many uses. Separate your responses with a comma.",NA,"y",35130,NA,NA,1977,34846,NA,NA,NA,"to vote for something, can list something for an election",1
"w10045458_kdmc","cncgw1fbev","Affordance Norms_USM",1,13,"2023-07-26T04:15:36+00:00",23.343720912933,5,"updated stim.csv","Version5.csv","Version 5","List 5","eclair",NA,124,4.833333333,638,0.549670749,125,"BOI","-","-","Please name all of the ways you could use this object. Keep in mind that one object can have many uses. Separate your responses with a comma.",NA,"y",23152,NA,NA,18483,22484,NA,NA,NA,"can be eaten",1
"w10045458_kdmc","cncgw1fbev","Affordance Norms_USM",1,14,"2023-07-26T04:16:05+00:00",29.121693134308,5,"updated stim.csv","Version5.csv","Version 5","List 5","parchment",NA,141,4.375,2495,0.024282326,142,"BOI","-","-","Please name all of the ways you could use this object. Keep in mind that one object can have many uses. Separate your responses with a comma.",NA,"y",27774,NA,NA,4255,24204,NA,NA,NA,"used to imprison inmates, used as punishment ",1
"w10045458_kdmc","cncgw1fbev","Affordance Norms_USM",1,15,"2023-07-26T04:16:09+00:00",3.8439018726349,5,"updated stim.csv","Version5.csv","Version 5","List 5","fawn",NA,138,5.12,2966,0.663344397,139,"BOI","-","-","Please name all of the ways you could use this object. Keep in mind that one object can have many uses. Separate your responses with a comma.",NA,"y",3633,NA,NA,1993,3059,NA,NA,NA,"n/a",1
"w10045458_kdmc","cncgw1fbev","Affordance Norms_USM",1,16,"2023-07-26T04:16:43+00:00",34.516119003296,5,"updated stim.csv","Version5.csv","Version 5","List 5","torso",NA,128,4.782608696,2910,0.65261601,129,"BOI","-","-","Please name all of the ways you could use this object. Keep in mind that one object can have many uses. Separate your responses with a comma.",NA,"y",34324,NA,NA,13417,33630,NA,NA,NA,"used to connect top half and bottom half of human body",1
"w10045458_kdmc","cncgw1fbev","Affordance Norms_USM",1,17,"2023-07-26T04:17:07+00:00",24.202507019043,5,"updated stim.csv","Version5.csv","Version 5","List 5","horseman",NA,132,5.608695652,386,0.325095127,133,"BOI","-","-","Please name all of the ways you could use this object. Keep in mind that one object can have many uses. Separate your responses with a comma.",NA,"y",23898,NA,NA,18211,23601,NA,NA,NA,"men who tames horses",1
"w10045458_kdmc","cncgw1fbev","Affordance Norms_USM",1,18,"2023-07-26T04:17:49+00:00",42.065033912659,5,"updated stim.csv","Version5.csv","Version 5","List 5","barrette",NA,149,5.8,717,0.131827503,150,"BOI","-","-","Please name all of the ways you could use this object. Keep in mind that one object can have many uses. Separate your responses with a comma.",NA,"y",41871,NA,NA,19766,41417,NA,NA,NA,"used to hold hair in place, used as decoration in hair",1
"w10045458_kdmc","cncgw1fbev","Affordance Norms_USM",1,19,"2023-07-26T04:17:52+00:00",2.5203402042389,5,"updated stim.csv","Version5.csv","Version 5","List 5","frankfurter",NA,139,5.391304348,2026,0.369576509,140,"BOI","-","-","Please name all of the ways you could use this object. Keep in mind that one object can have many uses. Separate your responses with a comma.",NA,"y",2340,NA,NA,1558,2233,NA,NA,NA,"n/a",1
"w10045458_kdmc","cncgw1fbev","Affordance Norms_USM",1,20,"2023-07-26T04:18:44+00:00",52.240666866302,5,"updated stim.csv","Version5.csv","Version 5","List 5","optician",NA,125,5.04,1900,0.012619648,126,"BOI","-","-","Please name all of the ways you could use this object. Keep in mind that one object can have many uses. Separate your responses with a comma.",NA,"y",52033,NA,NA,13825,51523,NA,NA,NA,"eye doctor, subscribes eyeglasses and contacts, checks vision",1
"w10045458_kdmc","cncgw1fbev","Affordance Norms_USM",1,21,"2023-07-26T04:19:12+00:00",27.974944114685,5,"updated stim.csv","Version5.csv","Version 5","List 5","bankbook",NA,130,NA,3002,0.356895476,131,"BOI","-","-","Please name all of the ways you could use this object. Keep in mind that one object can have many uses. Separate your responses with a comma.",NA,"y",27776,NA,NA,12800,26464,NA,NA,NA,"passport, used to enter another country",1
"w10045458_kdmc","cncgw1fbev","Affordance Norms_USM",1,22,"2023-07-26T04:19:31+00:00",19.137912988663,5,"updated stim.csv","Version5.csv","Version 5","List 5","wiper",NA,136,5.44,1413,0.406137653,137,"BOI","-","-","Please name all of the ways you could use this object. Keep in mind that one object can have many uses. Separate your responses with a comma.",NA,"y",18950,NA,NA,12074,18483,NA,NA,NA,"used to clean windshield",1
"w10045458_kdmc","cncgw1fbev","Affordance Norms_USM",1,23,"2023-07-26T04:20:11+00:00",39.939558982849,5,"updated stim.csv","Version5.csv","Version 5","List 5","piss",NA,121,5.791666667,973,0.03998685,122,"BOI","-","-","Please name all of the ways you could use this object. Keep in mind that one object can have many uses. Separate your responses with a comma.",NA,"y",39744,NA,NA,3271,39127,NA,NA,NA,"known as urine, used as an adjective or verb of being or describing how angry you areangry",1
"w10045458_kdmc","cncgw1fbev","Affordance Norms_USM",1,24,"2023-07-26T04:20:37+00:00",25.421074867249,5,"updated stim.csv","Version5.csv","Version 5","List 5","teakwood",NA,127,4.607142857,2761,0.821162254,128,"BOI","-","-","Please name all of the ways you could use this object. Keep in mind that one object can have many uses. Separate your responses with a comma.",NA,"y",25228,NA,NA,16655,24942,NA,NA,NA,"a scent, a type of wood",1
"w10045458_kdmc","cncgw1fbev","Affordance Norms_USM",1,25,"2023-07-26T04:21:21+00:00",44.937824010849,5,"updated stim.csv","Version5.csv","Version 5","List 5","nursemaid",NA,133,5.086956522,2971,0.589394286,134,"BOI","-","-","Please name all of the ways you could use this object. Keep in mind that one object can have many uses. Separate your responses with a comma.",NA,"y",44738,NA,NA,32722,42729,NA,NA,NA,"used to babysit",1
"w10045458_kdmc","cncgw1fbev","Affordance Norms_USM",1,26,"2023-07-26T04:21:41+00:00",19.647120952606,5,"updated stim.csv","Version5.csv","Version 5","List 5","worksheet",NA,147,4.428571429,1867,0.923363889,148,"BOI","-","-","Please name all of the ways you could use this object. Keep in mind that one object can have many uses. Separate your responses with a comma.",NA,"y",19459,NA,NA,2064,12953,NA,NA,NA,"used to give instructions on something ",1
"w10045458_kdmc","cncgw1fbev","Affordance Norms_USM",1,27,"2023-07-26T04:22:06+00:00",24.583013057709,5,"updated stim.csv","Version5.csv","Version 5","List 5","teacup",NA,143,4.583333333,470,0.107709949,144,"BOI","-","-","Please name all of the ways you could use this object. Keep in mind that one object can have many uses. Separate your responses with a comma.",NA,"y",24389,NA,NA,1680,23891,NA,NA,NA,"used to drink tea out of, could also be used as a adjective for a dog meaning small",1
"w10045458_kdmc","cncgw1fbev","Affordance Norms_USM",1,28,"2023-07-26T04:23:07+00:00",60.826024055481,5,"updated stim.csv","Version5.csv","Version 5","List 5","thumbnail",NA,134,5.296296296,1310,0.74583685,135,"BOI","-","-","Please name all of the ways you could use this object. Keep in mind that one object can have many uses. Separate your responses with a comma.",NA,"y",60396,NA,NA,7804,58165,NA,NA,NA,"used as a nail to place in wall, used as a representation of images ",1
"w10045458_kdmc","cncgw1fbev","Affordance Norms_USM",1,29,"2023-07-26T04:23:09+00:00",2.2920589447021,5,"updated stim.csv","Version5.csv","Version 5","List 5","ore",NA,126,4.52,2234,0.16035416,127,"BOI","-","-","Please name all of the ways you could use this object. Keep in mind that one object can have many uses. Separate your responses with a comma.",NA,"y",2114,NA,NA,1477,2011,NA,NA,NA,"n/s",1
"w10045458_kdmc","cncgw1fbev","Affordance Norms_USM",1,30,"2023-07-26T04:23:29+00:00",19.747550010681,5,"updated stim.csv","Version5.csv","Version 5","List 5","wheat",NA,129,5.041666667,175,0.357199657,130,"BOI","-","-","Please name all of the ways you could use this object. Keep in mind that one object can have many uses. Separate your responses with a comma.",NA,"y",19573,NA,NA,3176,19323,NA,NA,NA,"used in bread, or food "" healthy choice""",1
"w10045458_kdmc","cncgw1fbev","Affordance Norms_USM",1,31,"2023-07-26T04:23:32+00:00",3.428906917572,5,"updated stim.csv","Version5.csv","Version 5","List 5","urn",NA,135,4.411764706,1467,0.485337296,136,"BOI","-","-","Please name all of the ways you could use this object. Keep in mind that one object can have many uses. Separate your responses with a comma.",NA,"y",3248,NA,NA,1500,2509,NA,NA,NA,"n/a",1
"w10045458_kdmc","cncgw1fbev","Affordance Norms_USM",1,32,"2023-07-26T04:24:18+00:00",46.242963075638,5,"updated stim.csv","Version5.csv","Version 5","List 5","workroom",NA,146,4.64,2078,0.373078665,147,"BOI","-","-","Please name all of the ways you could use this object. Keep in mind that one object can have many uses. Separate your responses with a comma.",NA,"y",46052,NA,NA,6919,44254,NA,NA,NA,"used as a job station, store room ",1
"w10045458_kdmc","cncgw1fbev","Affordance Norms_USM",1,33,"2023-07-26T04:24:28+00:00",9.8122651576996,5,"updated stim.csv","Version5.csv","Version 5","List 5","tablecloth",NA,142,4.913043478,2044,0.01460871,143,"BOI","-","-","Please name all of the ways you could use this object. Keep in mind that one object can have many uses. Separate your responses with a comma.",NA,"y",9625,NA,NA,1995,9382,NA,NA,NA,"used to cover table to keep from getting dirty",1
"w10045458_kdmc","cncgw1fbev","Affordance Norms_USM",1,34,"2023-07-26T04:25:30+00:00",62.388898849487,5,"updated stim.csv","Version5.csv","Version 5","List 5","applicator",NA,137,4.928571429,2330,0.621252368,138,"BOI","-","-","Please name all of the ways you could use this object. Keep in mind that one object can have many uses. Separate your responses with a comma.",NA,"y",61934,NA,NA,3728,61747,NA,NA,NA,"used to apply something without physically touching with hands",1
"w10045458_kdmc","cncgw1fbev","Affordance Norms_USM",1,35,"2023-07-26T04:25:33+00:00",2.9681150913239,5,"updated stim.csv","Version5.csv","Version 5","List 5","bodice",NA,131,5.36,2003,0.404603014,132,"BOI","-","-","Please name all of the ways you could use this object. Keep in mind that one object can have many uses. Separate your responses with a comma.",NA,"y",2786,NA,NA,1154,2018,NA,NA,NA,"n/a",1
"w10045458_kdmc","cncgw1fbev","Affordance Norms_USM",1,36,"2023-07-26T04:27:16+00:00",102.84718990326,5,"updated stim.csv","Version5.csv","Version 5","List 5","trainer",NA,144,5.428571429,2984,0.95091675,145,"BOI","-","-","Please name all of the ways you could use this object. Keep in mind that one object can have many uses. Separate your responses with a comma.",NA,"y",102583,NA,NA,3476,17887,NA,NA,NA,"someone who helps achieve goals",1
"w10045458_kdmc","cncgw1fbev","Affordance Norms_USM",1,37,"2023-07-26T04:27:45+00:00",28.702099084854,5,"updated stim.csv","Version5.csv","Version 5","List 5","building",NA,150,5.8,937,0.594546173,151,"BOI","-","-","Please name all of the ways you could use this object. Keep in mind that one object can have many uses. Separate your responses with a comma.",NA,"y",28485,NA,NA,2119,26960,NA,NA,NA,"used to store thing, where businesses are located",1
"w10045458_kdmc","cncgw1fbev","Affordance Norms_USM",1,38,"2023-07-26T04:27:54+00:00",9.2469120025635,5,"updated stim.csv","Version5.csv","Version 5","List 5","trench",NA,123,4.318181818,2903,0.192088069,124,"BOI","-","-","Please name all of the ways you could use this object. Keep in mind that one object can have many uses. Separate your responses with a comma.",NA,"y",9059,NA,NA,6917,8433,NA,NA,NA,"n/a",1
"w10045458_kdmc","cncgw1fbev","Affordance Norms_USM",1,39,"2023-07-26T04:27:58+00:00",3.6310288906097,5,"updated stim.csv","Version5.csv","Version 5","List 5","tonic",NA,122,6.28,1637,0.689498349,123,"BOI","-","-","Please name all of the ways you could use this object. Keep in mind that one object can have many uses. Separate your responses with a comma.",NA,"y",3461,NA,NA,1721,2726,NA,NA,NA,"n/a",1
"w10045458_kdmc","cncgw1fbev","Affordance Norms_USM",1,40,"2023-07-26T04:28:05+00:00",7.675320148468,5,"updated stim.csv","Version5.csv","Version 5","List 5","walrus",NA,145,4.923076923,2055,0.604936304,146,"BOI","-","-","Please name all of the ways you could use this object. Keep in mind that one object can have many uses. Separate your responses with a comma.",NA,"y",7492,NA,NA,4436,6878,NA,NA,NA,"animal",1
"w10087251","ywcbhbcgkq","Affordance Norms_USM",1,11,"2023-07-26T18:34:41+00:00",15.989643096924,6,"updated stim.csv","Version6.csv","Version 6","List 6","package",NA,168,4.464285714,1256,0.861077807,169,"BOI","-","-","Please name all of the ways you could use this object. Keep in mind that one object can have many uses. Separate your responses with a comma.",NA,"y",15721,NA,NA,1174,13349,NA,NA,NA,"delivered, stolen, opened, returned, shipped, lost",1
"w10087251","ywcbhbcgkq","Affordance Norms_USM",1,12,"2023-07-26T18:35:07+00:00",26.178975820541,6,"updated stim.csv","Version6.csv","Version 6","List 6","gun",NA,159,5.666666667,1878,0.217047994,160,"BOI","-","-","Please name all of the ways you could use this object. Keep in mind that one object can have many uses. Separate your responses with a comma.",NA,"y",25892,NA,NA,2589,24470,NA,NA,NA,"violence, protection, murder, showing off",1
"w10087251","ywcbhbcgkq","Affordance Norms_USM",1,13,"2023-07-26T18:35:19+00:00",11.477016210556,6,"updated stim.csv","Version6.csv","Version 6","List 6","marigold",NA,165,5.041666667,1031,0.824671402,166,"BOI","-","-","Please name all of the ways you could use this object. Keep in mind that one object can have many uses. Separate your responses with a comma.",NA,"y",11192,NA,NA,3547,7595,NA,NA,NA,"grown, enjoyed",1
"w10087251","ywcbhbcgkq","Affordance Norms_USM",1,14,"2023-07-26T18:35:48+00:00",29.709800958633,6,"updated stim.csv","Version6.csv","Version 6","List 6","padding",NA,169,5.08,2892,0.374452273,170,"BOI","-","-","Please name all of the ways you could use this object. Keep in mind that one object can have many uses. Separate your responses with a comma.",NA,"y",29411,NA,NA,2201,28567,NA,NA,NA,"worn, protects, rips, adds shape",1
"w10087251","ywcbhbcgkq","Affordance Norms_USM",1,15,"2023-07-26T18:35:52+00:00",4.2417299747467,6,"updated stim.csv","Version6.csv","Version 6","List 6","clipper",NA,152,5.708333333,2286,0.354129595,153,"BOI","-","-","Please name all of the ways you could use this object. Keep in mind that one object can have many uses. Separate your responses with a comma.",NA,"y",3972,NA,NA,1942,2802,NA,NA,NA,"cuts",1
"w10087251","ywcbhbcgkq","Affordance Norms_USM",1,16,"2023-07-26T18:36:22+00:00",29.494235992432,6,"updated stim.csv","Version6.csv","Version 6","List 6","licence",NA,162,5.038461538,1731,0.310058292,163,"BOI","-","-","Please name all of the ways you could use this object. Keep in mind that one object can have many uses. Separate your responses with a comma.",NA,"y",29216,NA,NA,7702,24837,NA,NA,NA,"gives legality, driving, drinking, buying illicit substances, renting",1
"w10087251","ywcbhbcgkq","Affordance Norms_USM",1,17,"2023-07-26T18:36:37+00:00",14.635536909103,6,"updated stim.csv","Version6.csv","Version 6","List 6","swimsuit",NA,173,5.260869565,2615,0.993494851,174,"BOI","-","-","Please name all of the ways you could use this object. Keep in mind that one object can have many uses. Separate your responses with a comma.",NA,"y",14345,NA,NA,2012,10776,NA,NA,NA,"worn, swimming, tanning, showing off",1
"w10087251","ywcbhbcgkq","Affordance Norms_USM",1,18,"2023-07-26T18:38:38+00:00",121.361287117,6,"updated stim.csv","Version6.csv","Version 6","List 6","supermarket",NA,172,4.75,1749,0.715344787,173,"BOI","-","-","Please name all of the ways you could use this object. Keep in mind that one object can have many uses. Separate your responses with a comma.",NA,"y",120827,NA,NA,111984,119736,NA,NA,NA,"shopping, browsing, planning, stealing",1
"w10087251","ywcbhbcgkq","Affordance Norms_USM",1,19,"2023-07-26T18:38:55+00:00",16.590028047562,6,"updated stim.csv","Version6.csv","Version 6","List 6","peony",NA,170,4.37037037,720,0.826771226,171,"BOI","-","-","Please name all of the ways you could use this object. Keep in mind that one object can have many uses. Separate your responses with a comma.",NA,"y",16298,NA,NA,3785,15948,NA,NA,NA,"enjoying, growing, nurturing",1
"w10087251","ywcbhbcgkq","Affordance Norms_USM",1,20,"2023-07-26T18:39:22+00:00",27.053750991821,6,"updated stim.csv","Version6.csv","Version 6","List 6","airman",NA,177,4.347826087,421,0.150190136,178,"BOI","-","-","Please name all of the ways you could use this object. Keep in mind that one object can have many uses. Separate your responses with a comma.",NA,"y",26760,NA,NA,13708,25725,NA,NA,NA,"flying, following guidelines, earning",1
"w10087251","ywcbhbcgkq","Affordance Norms_USM",1,21,"2023-07-26T18:39:55+00:00",32.942081928253,6,"updated stim.csv","Version6.csv","Version 6","List 6","river",NA,171,4.896551724,220,0.733213397,172,"BOI","-","-","Please name all of the ways you could use this object. Keep in mind that one object can have many uses. Separate your responses with a comma.",NA,"y",32646,NA,NA,1935,30828,NA,NA,NA,"flowing, eroding, being a habitat, flooding, widening, experiencing drought",1
"w10087251","ywcbhbcgkq","Affordance Norms_USM",1,22,"2023-07-26T18:40:15+00:00",20.699543952942,6,"updated stim.csv","Version6.csv","Version 6","List 6","concrete",NA,153,5.291666667,944,0.967521962,154,"BOI","-","-","Please name all of the ways you could use this object. Keep in mind that one object can have many uses. Separate your responses with a comma.",NA,"y",20348,NA,NA,2636,19847,NA,NA,NA,"for building, making foundation",1
"w10087251","ywcbhbcgkq","Affordance Norms_USM",1,23,"2023-07-26T18:40:22+00:00",6.2955911159515,6,"updated stim.csv","Version6.csv","Version 6","List 6","vermicelli",NA,176,4.739130435,127,0.967270436,177,"BOI","-","-","Please name all of the ways you could use this object. Keep in mind that one object can have many uses. Separate your responses with a comma.",NA,"y",6002,NA,NA,1789,4834,NA,NA,NA,"unsure",1
"w10087251","ywcbhbcgkq","Affordance Norms_USM",1,24,"2023-07-26T18:40:31+00:00",9.1194539070129,6,"updated stim.csv","Version6.csv","Version 6","List 6","airplane",NA,178,5.32,1104,0.498173145,179,"BOI","-","-","Please name all of the ways you could use this object. Keep in mind that one object can have many uses. Separate your responses with a comma.",NA,"y",8826,NA,NA,1887,7670,NA,NA,NA,"transporting, flying",1
"w10087251","ywcbhbcgkq","Affordance Norms_USM",1,25,"2023-07-26T18:40:57+00:00",25.903110027313,6,"updated stim.csv","Version6.csv","Version 6","List 6","alcohol",NA,179,5.523809524,205,0.969656849,180,"BOI","-","-","Please name all of the ways you could use this object. Keep in mind that one object can have many uses. Separate your responses with a comma.",NA,"y",25395,NA,NA,4053,24133,NA,NA,NA,"medicinal use, leisurely indulgence, for cooking and mixology",1
"w10087251","ywcbhbcgkq","Affordance Norms_USM",1,26,"2023-07-26T18:41:21+00:00",24.448436021805,6,"updated stim.csv","Version6.csv","Version 6","List 6","mathematician",NA,166,4.347826087,2433,0.405301502,167,"BOI","-","-","Please name all of the ways you could use this object. Keep in mind that one object can have many uses. Separate your responses with a comma.",NA,"y",24177,NA,NA,5740,23339,NA,NA,NA,"researching, studying, solving equations, proposing ideas",1
"w10087251","ywcbhbcgkq","Affordance Norms_USM",1,27,"2023-07-26T18:41:33+00:00",11.896617889404,6,"updated stim.csv","Version6.csv","Version 6","List 6","cymbals",NA,156,5.214285714,168,0.590683649,157,"BOI","-","-","Please name all of the ways you could use this object. Keep in mind that one object can have many uses. Separate your responses with a comma.",NA,"y",11564,NA,NA,3236,5543,NA,NA,NA,"for making music",1
"w10087251","ywcbhbcgkq","Affordance Norms_USM",1,28,"2023-07-26T18:41:45+00:00",11.764621019363,6,"updated stim.csv","Version6.csv","Version 6","List 6","tangerine",NA,174,5.857142857,2931,0.820907003,175,"BOI","-","-","Please name all of the ways you could use this object. Keep in mind that one object can have many uses. Separate your responses with a comma.",NA,"y",11489,NA,NA,3303,7343,NA,NA,NA,"eating, cooking, growing",1
"w10087251","ywcbhbcgkq","Affordance Norms_USM",1,29,"2023-07-26T18:42:04+00:00",19.573749065399,6,"updated stim.csv","Version6.csv","Version 6","List 6","log",NA,163,6.28,2836,0.923120289,164,"BOI","-","-","Please name all of the ways you could use this object. Keep in mind that one object can have many uses. Separate your responses with a comma.",NA,"y",19282,NA,NA,2163,10411,NA,NA,NA,"fire, collection",1
"w10087251","ywcbhbcgkq","Affordance Norms_USM",1,30,"2023-07-26T18:42:19+00:00",14.991113901138,6,"updated stim.csv","Version6.csv","Version 6","List 6","calender",NA,151,5.666666667,209,0.894670762,152,"BOI","-","-","Please name all of the ways you could use this object. Keep in mind that one object can have many uses. Separate your responses with a comma.",NA,"y",14709,NA,NA,3654,13256,NA,NA,NA,"staying organized, reminding",1
"w10087251","ywcbhbcgkq","Affordance Norms_USM",1,31,"2023-07-26T18:42:34+00:00",15.150851964951,6,"updated stim.csv","Version6.csv","Version 6","List 6","fertilizer",NA,158,5.913043478,527,0.987997305,159,"BOI","-","-","Please name all of the ways you could use this object. Keep in mind that one object can have many uses. Separate your responses with a comma.",NA,"y",14883,NA,NA,1699,13681,NA,NA,NA,"for growing plants, making bombs, to sell",1
"w10087251","ywcbhbcgkq","Affordance Norms_USM",1,32,"2023-07-26T18:42:40+00:00",5.7605609893799,6,"updated stim.csv","Version6.csv","Version 6","List 6","neckerchief",NA,167,5.125,237,0.416830365,168,"BOI","-","-","Please name all of the ways you could use this object. Keep in mind that one object can have many uses. Separate your responses with a comma.",NA,"y",5492,NA,NA,3531,4506,NA,NA,NA,"to clean",1
"w10087251","ywcbhbcgkq","Affordance Norms_USM",1,33,"2023-07-26T18:42:56+00:00",15.697612047195,6,"updated stim.csv","Version6.csv","Version 6","List 6","toga",NA,175,5.652173913,2259,0.959918952,176,"BOI","-","-","Please name all of the ways you could use this object. Keep in mind that one object can have many uses. Separate your responses with a comma.",NA,"y",15405,NA,NA,2295,11682,NA,NA,NA,"for wearing, costume, ancient garb",1
"w10087251","ywcbhbcgkq","Affordance Norms_USM",1,34,"2023-07-26T18:43:11+00:00",14.771058082581,6,"updated stim.csv","Version6.csv","Version 6","List 6","armor",NA,180,5.555555556,2717,0.437108817,181,"BOI","-","-","Please name all of the ways you could use this object. Keep in mind that one object can have many uses. Separate your responses with a comma.",NA,"y",14010,NA,NA,7587,13011,NA,NA,NA,"protection, costume",1
"w10087251","ywcbhbcgkq","Affordance Norms_USM",1,35,"2023-07-26T18:43:35+00:00",24.711843013763,6,"updated stim.csv","Version6.csv","Version 6","List 6","leaflet",NA,161,5.12,1945,0.324749543,162,"BOI","-","-","Please name all of the ways you could use this object. Keep in mind that one object can have many uses. Separate your responses with a comma.",NA,"y",24413,NA,NA,2782,23493,NA,NA,NA,"information, providing graphs and images, to be easily distributed, easily manufactured",1
"w10087251","ywcbhbcgkq","Affordance Norms_USM",1,36,"2023-07-26T18:43:53+00:00",17.217246055603,6,"updated stim.csv","Version6.csv","Version 6","List 6","mantelpiece",NA,164,5.333333333,2692,0.82890071,165,"BOI","-","-","Please name all of the ways you could use this object. Keep in mind that one object can have many uses. Separate your responses with a comma.",NA,"y",16905,NA,NA,3119,15984,NA,NA,NA,"holding items, decorations, setting an area's theme",1
"w10087251","ywcbhbcgkq","Affordance Norms_USM",1,37,"2023-07-26T18:43:58+00:00",5.7849218845367,6,"updated stim.csv","Version6.csv","Version 6","List 6","cornflakes",NA,154,4.684210526,538,0.574977468,155,"BOI","-","-","Please name all of the ways you could use this object. Keep in mind that one object can have many uses. Separate your responses with a comma.",NA,"y",5419,NA,NA,1296,4491,NA,NA,NA,"eating, cooking",1
"w10087251","ywcbhbcgkq","Affordance Norms_USM",1,38,"2023-07-26T18:44:09+00:00",10.59126496315,6,"updated stim.csv","Version6.csv","Version 6","List 6","dustbin",NA,157,4.7,1959,0.18002119,158,"BOI","-","-","Please name all of the ways you could use this object. Keep in mind that one object can have many uses. Separate your responses with a comma.",NA,"y",9396,NA,NA,1991,4475,NA,NA,NA,"collects trash",1
"w10087251","ywcbhbcgkq","Affordance Norms_USM",1,39,"2023-07-26T18:44:14+00:00",5.2572801113129,6,"updated stim.csv","Version6.csv","Version 6","List 6","handwork",NA,160,4.291666667,779,0.522113996,161,"BOI","-","-","Please name all of the ways you could use this object. Keep in mind that one object can have many uses. Separate your responses with a comma.",NA,"y",4860,NA,NA,2628,4191,NA,NA,NA,"to be completed",1
"w10087251","ywcbhbcgkq","Affordance Norms_USM",1,40,"2023-07-26T18:44:29+00:00",14.712914943695,6,"updated stim.csv","Version6.csv","Version 6","List 6","crate",NA,155,5.458333333,2703,0.677843929,156,"BOI","-","-","Please name all of the ways you could use this object. Keep in mind that one object can have many uses. Separate your responses with a comma.",NA,"y",14325,NA,NA,1622,13380,NA,NA,NA,"holds objects, stackable, easily transported",1
"w10163952sbh","26of48hrp4","Affordance Norms_USM",1,11,"2023-07-25T18:28:57+00:00",13.511089086533,3,"updated stim.csv","Version3.csv","Version 3","List 3","crabgrass",NA,80,5,1508,0.204621036,81,"BOI","-","-","Please name all of the ways you could use this object. Keep in mind that one object can have many uses. Separate your responses with a comma.",NA,"y",13031,NA,NA,5696,12670,NA,NA,NA,"pull,cut",1
"w10163952sbh","26of48hrp4","Affordance Norms_USM",1,12,"2023-07-25T18:29:25+00:00",28.095255851746,3,"updated stim.csv","Version3.csv","Version 3","List 3","cayenne",NA,77,4.391304348,2574,0.106746219,78,"BOI","-","-","Please name all of the ways you could use this object. Keep in mind that one object can have many uses. Separate your responses with a comma.",NA,"y",27181,NA,NA,2416,26857,NA,NA,NA,"eat,pull,break,water,smell",1
"w10163952sbh","26of48hrp4","Affordance Norms_USM",1,13,"2023-07-25T18:29:48+00:00",22.405892133713,3,"updated stim.csv","Version3.csv","Version 3","List 3","beefsteak",NA,76,4.391304348,2476,0.828123751,77,"BOI","-","-","Please name all of the ways you could use this object. Keep in mind that one object can have many uses. Separate your responses with a comma.",NA,"y",19924,NA,NA,2891,18136,NA,NA,NA,"eat,cook,grill,cut",1
"w10163952sbh","26of48hrp4","Affordance Norms_USM",1,14,"2023-07-25T18:31:19+00:00",91.157299995422,3,"updated stim.csv","Version3.csv","Version 3","List 3","screen",NA,87,4.347826087,768,0.964513541,88,"BOI","-","-","Please name all of the ways you could use this object. Keep in mind that one object can have many uses. Separate your responses with a comma.",NA,"y",90449,NA,NA,73572,89823,NA,NA,NA,"watch,break,touch,clean",1
"w10163952sbh","26of48hrp4","Affordance Norms_USM",1,15,"2023-07-25T18:31:37+00:00",18.314730882645,3,"updated stim.csv","Version3.csv","Version 3","List 3","schoolwork",NA,86,5.08,371,0.22831517,87,"BOI","-","-","Please name all of the ways you could use this object. Keep in mind that one object can have many uses. Separate your responses with a comma.",NA,"y",17867,NA,NA,2849,16364,NA,NA,NA,"do,finish,assign,bring",1
"w10163952sbh","26of48hrp4","Affordance Norms_USM",1,16,"2023-07-25T18:31:56+00:00",18.941076993942,3,"updated stim.csv","Version3.csv","Version 3","List 3","conch",NA,70,5.4,442,0.978148159,71,"BOI","-","-","Please name all of the ways you could use this object. Keep in mind that one object can have many uses. Separate your responses with a comma.",NA,"y",18466,NA,NA,7531,16780,NA,NA,NA,"blow,break,grab",1
"w10163952sbh","26of48hrp4","Affordance Norms_USM",1,17,"2023-07-25T18:32:04+00:00",7.6601049900055,3,"updated stim.csv","Version3.csv","Version 3","List 3","lager",NA,73,4.68,2119,0.859929905,74,"BOI","-","-","Please name all of the ways you could use this object. Keep in mind that one object can have many uses. Separate your responses with a comma.",NA,"y",7164,NA,NA,-1,-1,NA,NA,NA,"",1
"w10163952sbh","26of48hrp4","Affordance Norms_USM",1,18,"2023-07-25T18:32:25+00:00",21.475347995758,3,"updated stim.csv","Version3.csv","Version 3","List 3","committeewoman",NA,81,4.565217391,1515,0.357597243,82,"BOI","-","-","Please name all of the ways you could use this object. Keep in mind that one object can have many uses. Separate your responses with a comma.",NA,"y",20962,NA,NA,5534,19241,NA,NA,NA,"talk,meet,listen",1
"w10163952sbh","26of48hrp4","Affordance Norms_USM",1,19,"2023-07-25T18:32:42+00:00",16.238317966461,3,"updated stim.csv","Version3.csv","Version 3","List 3","colt",NA,69,4.32,2484,0.788241169,70,"BOI","-","-","Please name all of the ways you could use this object. Keep in mind that one object can have many uses. Separate your responses with a comma.",NA,"y",15769,NA,NA,15133,15546,NA,NA,NA,"fire",1
"w10163952sbh","26of48hrp4","Affordance Norms_USM",1,20,"2023-07-25T18:32:57+00:00",15.687813997269,3,"updated stim.csv","Version3.csv","Version 3","List 3","garland",NA,83,4.32,2041,0.504174346,84,"BOI","-","-","Please name all of the ways you could use this object. Keep in mind that one object can have many uses. Separate your responses with a comma.",NA,"y",14383,NA,NA,7747,11490,NA,NA,NA,"walk",1
"w10163952sbh","26of48hrp4","Affordance Norms_USM",1,21,"2023-07-25T18:33:10+00:00",13.071081161499,3,"updated stim.csv","Version3.csv","Version 3","List 3","goulash",NA,63,5.956521739,2696,0.229279242,64,"BOI","-","-","Please name all of the ways you could use this object. Keep in mind that one object can have many uses. Separate your responses with a comma.",NA,"y",12402,NA,NA,10264,10910,NA,NA,NA,"carry",1
"w10163952sbh","26of48hrp4","Affordance Norms_USM",1,22,"2023-07-25T18:33:29+00:00",18.522284984589,3,"updated stim.csv","Version3.csv","Version 3","List 3","pumpernickel",NA,71,4.333333333,2171,0.641556175,72,"BOI","-","-","Please name all of the ways you could use this object. Keep in mind that one object can have many uses. Separate your responses with a comma.",NA,"y",18053,NA,NA,16708,17457,NA,NA,NA,"fill",1
"w10163952sbh","26of48hrp4","Affordance Norms_USM",1,23,"2023-07-25T18:33:47+00:00",18.39902305603,3,"updated stim.csv","Version3.csv","Version 3","List 3","dipper",NA,61,5,1995,0.297611551,62,"BOI","-","-","Please name all of the ways you could use this object. Keep in mind that one object can have many uses. Separate your responses with a comma.",NA,"y",17953,NA,NA,17473,17809,NA,NA,NA,"pet",1
"w10163952sbh","26of48hrp4","Affordance Norms_USM",1,24,"2023-07-25T18:33:55+00:00",7.991043806076,3,"updated stim.csv","Version3.csv","Version 3","List 3","breeches",NA,67,5.875,2545,0.16935575,68,"BOI","-","-","Please name all of the ways you could use this object. Keep in mind that one object can have many uses. Separate your responses with a comma.",NA,"y",7433,NA,NA,3120,7196,NA,NA,NA,"hit",1
"w10163952sbh","26of48hrp4","Affordance Norms_USM",1,25,"2023-07-25T18:34:03+00:00",7.9956600666046,3,"updated stim.csv","Version3.csv","Version 3","List 3","workshop",NA,65,4.64,113,0.193301397,66,"BOI","-","-","Please name all of the ways you could use this object. Keep in mind that one object can have many uses. Separate your responses with a comma.",NA,"y",7316,NA,NA,4190,6303,NA,NA,NA,"attend",1
"w10163952sbh","26of48hrp4","Affordance Norms_USM",1,26,"2023-07-25T18:34:10+00:00",6.5918600559235,3,"updated stim.csv","Version3.csv","Version 3","List 3","tomahawk",NA,75,5.034482759,1526,0.130915448,76,"BOI","-","-","Please name all of the ways you could use this object. Keep in mind that one object can have many uses. Separate your responses with a comma.",NA,"y",6021,NA,NA,5111,5780,NA,NA,NA,"wear",1
"w10163952sbh","26of48hrp4","Affordance Norms_USM",1,27,"2023-07-25T18:34:16+00:00",5.8302500247955,3,"updated stim.csv","Version3.csv","Version 3","List 3","buttonhook",NA,72,4.739130435,2021,0.71377516,73,"BOI","-","-","Please name all of the ways you could use this object. Keep in mind that one object can have many uses. Separate your responses with a comma.",NA,"y",4495,NA,NA,3274,4172,NA,NA,NA,"put on",1
"w10163952sbh","26of48hrp4","Affordance Norms_USM",1,28,"2023-07-25T18:34:25+00:00",9.3827068805695,3,"updated stim.csv","Version3.csv","Version 3","List 3","scribbling",NA,88,5.217391304,1557,0.027089463,89,"BOI","-","-","Please name all of the ways you could use this object. Keep in mind that one object can have many uses. Separate your responses with a comma.",NA,"y",8752,NA,NA,3069,7181,NA,NA,NA,"draw",1
"w10163952sbh","26of48hrp4","Affordance Norms_USM",1,29,"2023-07-25T18:34:37+00:00",12.011271953583,3,"updated stim.csv","Version3.csv","Version 3","List 3","smoothie",NA,89,4.45,714,0.473160418,90,"BOI","-","-","Please name all of the ways you could use this object. Keep in mind that one object can have many uses. Separate your responses with a comma.",NA,"y",11354,NA,NA,4302,11184,NA,NA,NA,"make,drink,mix",1
"w10163952sbh","26of48hrp4","Affordance Norms_USM",1,30,"2023-07-25T18:34:48+00:00",10.676386117935,3,"updated stim.csv","Version3.csv","Version 3","List 3","plaything",NA,74,4.72,812,0.011096937,75,"BOI","-","-","Please name all of the ways you could use this object. Keep in mind that one object can have many uses. Separate your responses with a comma.",NA,"y",9912,NA,NA,3145,7695,NA,NA,NA,"play",1
"w10163952sbh","26of48hrp4","Affordance Norms_USM",1,31,"2023-07-25T18:34:54+00:00",6.2717959880829,3,"updated stim.csv","Version3.csv","Version 3","List 3","cowhide",NA,79,4.916666667,2244,0.813802173,80,"BOI","-","-","Please name all of the ways you could use this object. Keep in mind that one object can have many uses. Separate your responses with a comma.",NA,"y",5782,NA,NA,4949,5447,NA,NA,NA,"brush",1
"w10163952sbh","26of48hrp4","Affordance Norms_USM",1,32,"2023-07-25T18:34:59+00:00",5.1128749847412,3,"updated stim.csv","Version3.csv","Version 3","List 3","rucksack",NA,64,5.2,2045,0.553054431,65,"BOI","-","-","Please name all of the ways you could use this object. Keep in mind that one object can have many uses. Separate your responses with a comma.",NA,"y",4572,NA,NA,2167,3102,NA,NA,NA,"carry",1
"w10163952sbh","26of48hrp4","Affordance Norms_USM",1,33,"2023-07-25T18:35:07+00:00",8.3942029476166,3,"updated stim.csv","Version3.csv","Version 3","List 3","chalet",NA,68,5,2008,0.897588843,69,"BOI","-","-","Please name all of the ways you could use this object. Keep in mind that one object can have many uses. Separate your responses with a comma.",NA,"y",7636,NA,NA,2834,6897,NA,NA,NA,"live,decorate",1
"w10163952sbh","26of48hrp4","Affordance Norms_USM",1,34,"2023-07-25T18:35:17+00:00",9.7167730331421,3,"updated stim.csv","Version3.csv","Version 3","List 3","stage",NA,90,4.875,1038,0.590943274,91,"BOI","-","-","Please name all of the ways you could use this object. Keep in mind that one object can have many uses. Separate your responses with a comma.",NA,"y",8980,NA,NA,3867,8530,NA,NA,NA,"perform,dance,sing,play",1
"w10163952sbh","26of48hrp4","Affordance Norms_USM",1,35,"2023-07-25T18:35:28+00:00",10.72655415535,3,"updated stim.csv","Version3.csv","Version 3","List 3","armoire",NA,66,4.36,2503,0.391571319,67,"BOI","-","-","Please name all of the ways you could use this object. Keep in mind that one object can have many uses. Separate your responses with a comma.",NA,"y",10090,NA,NA,3167,9980,NA,NA,NA,"enter,collect",1
"w10163952sbh","26of48hrp4","Affordance Norms_USM",1,36,"2023-07-25T18:35:33+00:00",5.1886928081512,3,"updated stim.csv","Version3.csv","Version 3","List 3","photocopier",NA,84,5.875,732,0.795847806,85,"BOI","-","-","Please name all of the ways you could use this object. Keep in mind that one object can have many uses. Separate your responses with a comma.",NA,"y",4651,NA,NA,3393,3823,NA,NA,NA,"print",1
"w10163952sbh","26of48hrp4","Affordance Norms_USM",1,37,"2023-07-25T18:35:40+00:00",6.5074260234833,3,"updated stim.csv","Version3.csv","Version 3","List 3","coat",NA,78,4.96,1926,0.460539621,79,"BOI","-","-","Please name all of the ways you could use this object. Keep in mind that one object can have many uses. Separate your responses with a comma.",NA,"y",5920,NA,NA,1856,5462,NA,NA,NA,"put on, wash",1
"w10163952sbh","26of48hrp4","Affordance Norms_USM",1,38,"2023-07-25T18:35:51+00:00",11.13121509552,3,"updated stim.csv","Version3.csv","Version 3","List 3","flaxseed",NA,82,4.347826087,950,0.481228199,83,"BOI","-","-","Please name all of the ways you could use this object. Keep in mind that one object can have many uses. Separate your responses with a comma.",NA,"y",10621,NA,NA,9907,10488,NA,NA,NA,"plant",1
"w10163952sbh","26of48hrp4","Affordance Norms_USM",1,39,"2023-07-25T18:35:58+00:00",7.6752998828888,3,"updated stim.csv","Version3.csv","Version 3","List 3","school",NA,85,6.52,1832,0.794942896,86,"BOI","-","-","Please name all of the ways you could use this object. Keep in mind that one object can have many uses. Separate your responses with a comma.",NA,"y",7029,NA,NA,3052,6404,NA,NA,NA,"attend,study",1
"w10163952sbh","26of48hrp4","Affordance Norms_USM",1,40,"2023-07-25T18:36:06+00:00",7.7255160808563,3,"updated stim.csv","Version3.csv","Version 3","List 3","dye",NA,62,5.821428571,1972,0.647636876,63,"BOI","-","-","Please name all of the ways you could use this object. Keep in mind that one object can have many uses. Separate your responses with a comma.",NA,"y",7062,NA,NA,3365,6824,NA,NA,NA,"color",1
"W10170915","4vv8lyrwt1","Affordance Norms_USM",1,11,"2023-07-26T22:14:46+00:00",24.464652061462,8,"updated stim.csv","Version8.csv","Version 8","List 8","paintbrush",NA,214,4.84,2302,0.90340916,215,"BOI","-","-","Please name all of the ways you could use this object. Keep in mind that one object can have many uses. Separate your responses with a comma.",NA,"y",24060,NA,NA,1857,18278,NA,NA,NA,"painting, arts and crafts, toddler distraction, cleaning",1
"W10170915","4vv8lyrwt1","Affordance Norms_USM",1,12,"2023-07-26T22:15:15+00:00",28.203881025314,8,"updated stim.csv","Version8.csv","Version 8","List 8","thong",NA,227,5.826086957,5,0.076040939,228,"BOI","-","-","Please name all of the ways you could use this object. Keep in mind that one object can have many uses. Separate your responses with a comma.",NA,"y",27711,NA,NA,3689,18724,NA,NA,NA,"underwear, sling shot, string, fastening agent, hair tie ",1
"W10170915","4vv8lyrwt1","Affordance Norms_USM",1,13,"2023-07-26T22:15:39+00:00",24.092380046844,8,"updated stim.csv","Version8.csv","Version 8","List 8","bowling",NA,228,6.16,2535,0.473992945,229,"BOI","-","-","Please name all of the ways you could use this object. Keep in mind that one object can have many uses. Separate your responses with a comma.",NA,"y",23667,NA,NA,7551,18460,NA,NA,NA,"activity, birthday party, celebration",1
"W10170915","4vv8lyrwt1","Affordance Norms_USM",1,14,"2023-07-26T22:16:08+00:00",29.177242994308,8,"updated stim.csv","Version8.csv","Version 8","List 8","ant",NA,239,4.52,691,0.967555981,240,"BOI","-","-","Please name all of the ways you could use this object. Keep in mind that one object can have many uses. Separate your responses with a comma.",NA,"y",28730,NA,NA,3955,27196,NA,NA,NA,"science experiment, learning experience, firestarter, enemy punisher, blister creater",1
"W10170915","4vv8lyrwt1","Affordance Norms_USM",1,15,"2023-07-26T22:17:09+00:00",61.065201044083,8,"updated stim.csv","Version8.csv","Version 8","List 8","sledge",NA,238,5.62962963,2010,0.625895758,239,"BOI","-","-","Please name all of the ways you could use this object. Keep in mind that one object can have many uses. Separate your responses with a comma.",NA,"y",60621,NA,NA,4603,57980,NA,NA,NA,"construction, demolition, tent stake hammer, log splitter, sword hammer, weapon, cane, dirt tiller, rock smasher",1
"W10170915","4vv8lyrwt1","Affordance Norms_USM",1,16,"2023-07-26T22:18:20+00:00",71.408486843109,8,"updated stim.csv","Version8.csv","Version 8","List 8","workbench",NA,219,4.64,2738,0.501435614,220,"BOI","-","-","Please name all of the ways you could use this object. Keep in mind that one object can have many uses. Separate your responses with a comma.",NA,"y",70973,NA,NA,2398,61829,NA,NA,NA,"picnic table, craft table, blanket fort construction, buffet table, sewing table, flotation device, yard decoration, potting table, swing, firewood",1
"W10170915","4vv8lyrwt1","Affordance Norms_USM",1,17,"2023-07-26T22:19:08+00:00",47.867568016052,8,"updated stim.csv","Version8.csv","Version 8","List 8","cuttlefish",NA,240,5.47826087,2624,0.573904042,241,"BOI","-","-","Please name all of the ways you could use this object. Keep in mind that one object can have many uses. Separate your responses with a comma.",NA,"y",47433,NA,NA,2773,33997,NA,NA,NA,"food, fishing bait, animal food, fertilizer, fish stock base, pet, science experiment, still life subject",1
"W10170915","4vv8lyrwt1","Affordance Norms_USM",1,18,"2023-07-26T22:20:14+00:00",66.146871089935,8,"updated stim.csv","Version8.csv","Version 8","List 8","wreath",NA,220,6.24137931,103,0.11835624,221,"BOI","-","-","Please name all of the ways you could use this object. Keep in mind that one object can have many uses. Separate your responses with a comma.",NA,"y",65728,NA,NA,2026,64020,NA,NA,NA,"decoration, hat, costume piece, swing, pendulum, firestarter, bracelet, skirt, pretend play prop, water feature",1
"W10170915","4vv8lyrwt1","Affordance Norms_USM",1,19,"2023-07-26T22:21:12+00:00",57.783911943436,8,"updated stim.csv","Version8.csv","Version 8","List 8","azalea",NA,222,4.333333333,1183,0.64899298,223,"BOI","-","-","Please name all of the ways you could use this object. Keep in mind that one object can have many uses. Separate your responses with a comma.",NA,"y",57347,NA,NA,5768,55603,NA,NA,NA,"landscaping, firewood, decoration, biology subject, botany study, hair ornament, compost, gift",1
"W10170915","4vv8lyrwt1","Affordance Norms_USM",1,20,"2023-07-26T22:21:59+00:00",47.238932132721,8,"updated stim.csv","Version8.csv","Version 8","List 8","ballplayer",NA,229,4.48,1351,0.733873145,230,"BOI","-","-","Please name all of the ways you could use this object. Keep in mind that one object can have many uses. Separate your responses with a comma.",NA,"y",46806,NA,NA,6819,43506,NA,NA,NA,"personal slave, gardener, driver, chef, baseball coach",1
"W10170915","4vv8lyrwt1","Affordance Norms_USM",1,21,"2023-07-26T22:23:13+00:00",73.881064891815,8,"updated stim.csv","Version8.csv","Version 8","List 8","polyester",NA,225,5.807692308,894,0.26688468,226,"BOI","-","-","Please name all of the ways you could use this object. Keep in mind that one object can have many uses. Separate your responses with a comma.",NA,"y",73288,NA,NA,2764,68153,NA,NA,NA,"fabric, rope, tent material, dental floss, melting, trash, net material, construction base",1
"W10170915","4vv8lyrwt1","Affordance Norms_USM",1,22,"2023-07-26T22:24:17+00:00",63.94163608551,8,"updated stim.csv","Version8.csv","Version 8","List 8","rye",NA,235,4.4,1625,0.181387363,236,"BOI","-","-","Please name all of the ways you could use this object. Keep in mind that one object can have many uses. Separate your responses with a comma.",NA,"y",63505,NA,NA,2066,60492,NA,NA,NA,"flour, bread, muffins, whiskey, spirits, livestock feed, poultry feed, porridge, binding agent, compost",1
"W10170915","4vv8lyrwt1","Affordance Norms_USM",1,23,"2023-07-26T22:24:28+00:00",10.572845935822,8,"updated stim.csv","Version8.csv","Version 8","List 8","crotch",NA,223,4.454545455,2571,0.678876617,224,"BOI","-","-","Please name all of the ways you could use this object. Keep in mind that one object can have many uses. Separate your responses with a comma.",NA,"y",10140,NA,NA,-1,-1,NA,NA,NA,"",1
"W10170915","4vv8lyrwt1","Affordance Norms_USM",1,24,"2023-07-26T22:24:49+00:00",21.372889041901,8,"updated stim.csv","Version8.csv","Version 8","List 8","shipman",NA,237,4.571428571,82,0.707229995,238,"BOI","-","-","Please name all of the ways you could use this object. Keep in mind that one object can have many uses. Separate your responses with a comma.",NA,"y",20712,NA,NA,7617,16002,NA,NA,NA,"crew member, fishing guide, sailor",1
"W10170915","4vv8lyrwt1","Affordance Norms_USM",1,25,"2023-07-26T22:25:00+00:00",11.108342885971,8,"updated stim.csv","Version8.csv","Version 8","List 8","smooch",NA,217,5.714285714,189,0.160382134,218,"BOI","-","-","Please name all of the ways you could use this object. Keep in mind that one object can have many uses. Separate your responses with a comma.",NA,"y",10690,NA,NA,3011,9653,NA,NA,NA,"kissing, affection, comfort, annoyance ",1
"W10170915","4vv8lyrwt1","Affordance Norms_USM",1,26,"2023-07-26T22:26:00+00:00",59.305279016495,8,"updated stim.csv","Version8.csv","Version 8","List 8","pail",NA,213,4.92,76,0.32863745,214,"BOI","-","-","Please name all of the ways you could use this object. Keep in mind that one object can have many uses. Separate your responses with a comma.",NA,"y",58850,NA,NA,3883,53653,NA,NA,NA,"bucket, step stool, water bowl, toilet, sand castle builder, purse, hat, helmet, weapon, flower pot",1
"W10170915","4vv8lyrwt1","Affordance Norms_USM",1,27,"2023-07-26T22:27:06+00:00",66.22124505043,8,"updated stim.csv","Version8.csv","Version 8","List 8","goalpost",NA,232,4.272727273,445,0.110016369,233,"BOI","-","-","Please name all of the ways you could use this object. Keep in mind that one object can have many uses. Separate your responses with a comma.",NA,"y",65694,NA,NA,4565,62440,NA,NA,NA,"tent poles, meeting area, pull up bar, jungle gym, stripper pole",1
"W10170915","4vv8lyrwt1","Affordance Norms_USM",1,28,"2023-07-26T22:27:10+00:00",3.8574979305267,8,"updated stim.csv","Version8.csv","Version 8","List 8","proprietor",NA,234,6.038461538,260,0.738290174,235,"BOI","-","-","Please name all of the ways you could use this object. Keep in mind that one object can have many uses. Separate your responses with a comma.",NA,"y",3500,NA,NA,-1,-1,NA,NA,NA,"",1
"W10170915","4vv8lyrwt1","Affordance Norms_USM",1,29,"2023-07-26T22:28:16+00:00",65.959139108658,8,"updated stim.csv","Version8.csv","Version 8","List 8","sandpaper",NA,236,5.269230769,2335,0.866817871,237,"BOI","-","-","Please name all of the ways you could use this object. Keep in mind that one object can have many uses. Separate your responses with a comma.",NA,"y",65257,NA,NA,2574,61550,NA,NA,NA,"torture device, exfoliant, firestarter, notepad, gift wrap, craft material, decoration, construction item",1
"W10170915","4vv8lyrwt1","Affordance Norms_USM",1,30,"2023-07-26T22:28:48+00:00",32.250054836273,8,"updated stim.csv","Version8.csv","Version 8","List 8","suds",NA,226,4.35,1937,0.497580512,227,"BOI","-","-","Please name all of the ways you could use this object. Keep in mind that one object can have many uses. Separate your responses with a comma.",NA,"y",31807,NA,NA,3523,29432,NA,NA,NA,"play thing, cleaning, children's entertainment, handwashing",1
"W10170915","4vv8lyrwt1","Affordance Norms_USM",1,31,"2023-07-26T22:30:03+00:00",74.942119121552,8,"updated stim.csv","Version8.csv","Version 8","List 8","walnut",NA,218,5.090909091,1863,0.914778388,219,"BOI","-","-","Please name all of the ways you could use this object. Keep in mind that one object can have many uses. Separate your responses with a comma.",NA,"y",74452,NA,NA,2972,67427,NA,NA,NA,"furnture repair, snack, meat filler, pesto, salad dressing, garnish, condiment, livestock treat, paste ingredient, ball",1
"W10170915","4vv8lyrwt1","Affordance Norms_USM",1,32,"2023-07-26T22:30:39+00:00",36.226182937622,8,"updated stim.csv","Version8.csv","Version 8","List 8","hostel",NA,212,4.44,2187,0.118404242,213,"BOI","-","-","Please name all of the ways you could use this object. Keep in mind that one object can have many uses. Separate your responses with a comma.",NA,"y",35763,NA,NA,4102,24844,NA,NA,NA,"hotel, event venue, meeting place, home, brothel",1
"W10170915","4vv8lyrwt1","Affordance Norms_USM",1,33,"2023-07-26T22:31:17+00:00",37.944026947021,8,"updated stim.csv","Version8.csv","Version 8","List 8","lanyard",NA,233,5.545454545,1294,0.814565241,234,"BOI","-","-","Please name all of the ways you could use this object. Keep in mind that one object can have many uses. Separate your responses with a comma.",NA,"y",37435,NA,NA,2876,28615,NA,NA,NA,"headband, rope, hair tie, bracelet, necklace, arts and crafts, repair item, weapon",1
"W10170915","4vv8lyrwt1","Affordance Norms_USM",1,34,"2023-07-26T22:32:19+00:00",61.649392127991,8,"updated stim.csv","Version8.csv","Version 8","List 8","fir",NA,231,4.545454545,558,0.033017559,232,"BOI","-","-","Please name all of the ways you could use this object. Keep in mind that one object can have many uses. Separate your responses with a comma.",NA,"y",61209,NA,NA,7326,57105,NA,NA,NA,"firestarter, landscaping, decoration, weapon, construction material, compost, gardening material, rail, boat, bat, cane, house building",1
"W10170915","4vv8lyrwt1","Affordance Norms_USM",1,35,"2023-07-26T22:32:53+00:00",34.820520877838,8,"updated stim.csv","Version8.csv","Version 8","List 8","quill",NA,216,5.260869565,1860,0.771460967,217,"BOI","-","-","Please name all of the ways you could use this object. Keep in mind that one object can have many uses. Separate your responses with a comma.",NA,"y",34393,NA,NA,2239,26478,NA,NA,NA,"pen, decoration, prop, sewing material, gift, tickling device",1
"W10170915","4vv8lyrwt1","Affordance Norms_USM",1,36,"2023-07-26T22:33:31+00:00",37.534856081009,8,"updated stim.csv","Version8.csv","Version 8","List 8","bloomers",NA,230,6,1060,0.931705867,231,"BOI","-","-","Please name all of the ways you could use this object. Keep in mind that one object can have many uses. Separate your responses with a comma.",NA,"y",37091,NA,NA,1722,30699,NA,NA,NA,"shorts, hat, napkin, material for sewing, hankerchief, costume, bag, rag",1
"W10170915","4vv8lyrwt1","Affordance Norms_USM",1,37,"2023-07-26T22:34:17+00:00",46.46793794632,8,"updated stim.csv","Version8.csv","Version 8","List 8","fork",NA,211,5.375,852,0.400751294,212,"BOI","-","-","Please name all of the ways you could use this object. Keep in mind that one object can have many uses. Separate your responses with a comma.",NA,"y",46012,NA,NA,1503,42874,NA,NA,NA,"weapon, dining device, sewing aid, kitchen utensil, shovel, gardening tool, hair brush, back scratcher, pastry decorator",1
"W10170915","4vv8lyrwt1","Affordance Norms_USM",1,38,"2023-07-26T22:34:27+00:00",9.3324301242828,8,"updated stim.csv","Version8.csv","Version 8","List 8","loaf",NA,221,4.48,1689,0.151002659,222,"BOI","-","-","Please name all of the ways you could use this object. Keep in mind that one object can have many uses. Separate your responses with a comma.",NA,"y",8888,NA,NA,7478,7903,NA,NA,NA,"food",1
"W10170915","4vv8lyrwt1","Affordance Norms_USM",1,39,"2023-07-26T22:34:34+00:00",6.8141479492188,8,"updated stim.csv","Version8.csv","Version 8","List 8","lick",NA,224,4.409090909,925,0.140617165,225,"BOI","-","-","Please name all of the ways you could use this object. Keep in mind that one object can have many uses. Separate your responses with a comma.",NA,"y",6387,NA,NA,-1,-1,NA,NA,NA,"",1
"W10170915","4vv8lyrwt1","Affordance Norms_USM",1,40,"2023-07-26T22:34:41+00:00",7.9326961040497,8,"updated stim.csv","Version8.csv","Version 8","List 8","physiologist",NA,215,4.62962963,1519,0.262823842,216,"BOI","-","-","Please name all of the ways you could use this object. Keep in mind that one object can have many uses. Separate your responses with a comma.",NA,"y",7414,NA,NA,2914,5438,NA,NA,NA,"not an object",1
"w398930","jmgu3zjr3f","Affordance Norms_USM",1,11,"2023-07-27T04:09:04+00:00",25.155323982239,9,"updated stim.csv","Version9.csv","Version 9","List 9","dermatologist",NA,261,5.291666667,2333,0.088519981,262,"BOI","-","-","Please name all of the ways you could use this object. Keep in mind that one object can have many uses. Separate your responses with a comma.",NA,"y",24829,NA,NA,7043,23263,NA,NA,NA,"treat acne, treat scars, write scripts, operations",1
"w398930","jmgu3zjr3f","Affordance Norms_USM",1,12,"2023-07-27T04:09:20+00:00",15.249341011047,9,"updated stim.csv","Version9.csv","Version 9","List 9","custard",NA,260,4.5,2840,0.767300611,261,"BOI","-","-","Please name all of the ways you could use this object. Keep in mind that one object can have many uses. Separate your responses with a comma.",NA,"y",14868,NA,NA,3999,8880,NA,NA,NA,"ice cream, pies",1
"w398930","jmgu3zjr3f","Affordance Norms_USM",1,13,"2023-07-27T04:09:42+00:00",22.349164009094,9,"updated stim.csv","Version9.csv","Version 9","List 9","gown",NA,264,4.28,2221,0.151974823,265,"BOI","-","-","Please name all of the ways you could use this object. Keep in mind that one object can have many uses. Separate your responses with a comma.",NA,"y",21962,NA,NA,7715,19550,NA,NA,NA,"night gown, evening gown, wedding gown",1
"w398930","jmgu3zjr3f","Affordance Norms_USM",1,14,"2023-07-27T04:10:02+00:00",20.412973165512,9,"updated stim.csv","Version9.csv","Version 9","List 9","clerk",NA,257,6.068965517,413,0.55347765,258,"BOI","-","-","Please name all of the ways you could use this object. Keep in mind that one object can have many uses. Separate your responses with a comma.",NA,"y",20000,NA,NA,3732,13959,NA,NA,NA,"front desk, office, store",1
"w398930","jmgu3zjr3f","Affordance Norms_USM",1,15,"2023-07-27T04:10:43+00:00",40.93434381485,9,"updated stim.csv","Version9.csv","Version 9","List 9","assemblyman",NA,248,4.925925926,2852,0.127753764,249,"BOI","-","-","Please name all of the ways you could use this object. Keep in mind that one object can have many uses. Separate your responses with a comma.",NA,"y",40449,NA,NA,19013,38717,NA,NA,NA,"put together grill, oven, cage, tank",1
"w398930","jmgu3zjr3f","Affordance Norms_USM",1,16,"2023-07-27T04:11:07+00:00",23.405005216599,9,"updated stim.csv","Version9.csv","Version 9","List 9","capsule",NA,253,4.875,2557,0.13601316,254,"BOI","-","-","Please name all of the ways you could use this object. Keep in mind that one object can have many uses. Separate your responses with a comma.",NA,"y",23012,NA,NA,6054,20130,NA,NA,NA,"medication, deep sea ",1
"w398930","jmgu3zjr3f","Affordance Norms_USM",1,17,"2023-07-27T04:11:22+00:00",15.691702842712,9,"updated stim.csv","Version9.csv","Version 9","List 9","lump",NA,243,4.68,2137,0.77966363,244,"BOI","-","-","Please name all of the ways you could use this object. Keep in mind that one object can have many uses. Separate your responses with a comma.",NA,"y",15297,NA,NA,7538,12848,NA,NA,NA,"skin, gravel, road",1
"w398930","jmgu3zjr3f","Affordance Norms_USM",1,18,"2023-07-27T04:11:46+00:00",23.218450069427,9,"updated stim.csv","Version9.csv","Version 9","List 9","plexiglas",NA,245,5.05,2813,0.492849182,246,"BOI","-","-","Please name all of the ways you could use this object. Keep in mind that one object can have many uses. Separate your responses with a comma.",NA,"y",22840,NA,NA,4538,21016,NA,NA,NA,"window, car window, decorate",1
"w398930","jmgu3zjr3f","Affordance Norms_USM",1,19,"2023-07-27T04:12:21+00:00",35.124917030334,9,"updated stim.csv","Version9.csv","Version 9","List 9","limb",NA,270,4.333333333,1816,0.055847864,271,"BOI","-","-","Please name all of the ways you could use this object. Keep in mind that one object can have many uses. Separate your responses with a comma.",NA,"y",34737,NA,NA,3676,33151,NA,NA,NA,"tree, taking a chance, arm or leg",1
"w398930","jmgu3zjr3f","Affordance Norms_USM",1,20,"2023-07-27T04:12:47+00:00",25.923274040222,9,"updated stim.csv","Version9.csv","Version 9","List 9","broomstick",NA,251,5.56,85,0.630185252,252,"BOI","-","-","Please name all of the ways you could use this object. Keep in mind that one object can have many uses. Separate your responses with a comma.",NA,"y",25119,NA,NA,2674,22599,NA,NA,NA,"sweep, fight, reach",1
"w398930","jmgu3zjr3f","Affordance Norms_USM",1,21,"2023-07-27T04:13:08+00:00",20.943576812744,9,"updated stim.csv","Version9.csv","Version 9","List 9","cartridge",NA,254,4.72,599,0.022418683,255,"BOI","-","-","Please name all of the ways you could use this object. Keep in mind that one object can have many uses. Separate your responses with a comma.",NA,"y",20383,NA,NA,4259,18641,NA,NA,NA,"printer, computer, oil",1
"w398930","jmgu3zjr3f","Affordance Norms_USM",1,22,"2023-07-27T04:13:28+00:00",20.362989187241,9,"updated stim.csv","Version9.csv","Version 9","List 9","aluminum",NA,246,5.041666667,859,0.394435726,247,"BOI","-","-","Please name all of the ways you could use this object. Keep in mind that one object can have many uses. Separate your responses with a comma.",NA,"y",19954,NA,NA,2968,17908,NA,NA,NA,"wheel hub, stadium, ramp",1
"w398930","jmgu3zjr3f","Affordance Norms_USM",1,23,"2023-07-27T04:13:50+00:00",22.165243864059,9,"updated stim.csv","Version9.csv","Version 9","List 9","foliage",NA,263,5.52,551,0.620791367,264,"BOI","-","-","Please name all of the ways you could use this object. Keep in mind that one object can have many uses. Separate your responses with a comma.",NA,"y",21780,NA,NA,8478,17731,NA,NA,NA,"yard, school, university ",1
"w398930","jmgu3zjr3f","Affordance Norms_USM",1,24,"2023-07-27T04:14:34+00:00",44.143272161484,9,"updated stim.csv","Version9.csv","Version 9","List 9","backboard",NA,249,6.52173913,2582,0.02685761,250,"BOI","-","-","Please name all of the ways you could use this object. Keep in mind that one object can have many uses. Separate your responses with a comma.",NA,"y",43743,NA,NA,20539,27594,NA,NA,NA,"boat, ship",1
"w398930","jmgu3zjr3f","Affordance Norms_USM",1,25,"2023-07-27T04:15:17+00:00",42.8655397892,9,"updated stim.csv","Version9.csv","Version 9","List 9","hutch",NA,267,5.52,1249,0.839198693,268,"BOI","-","-","Please name all of the ways you could use this object. Keep in mind that one object can have many uses. Separate your responses with a comma.",NA,"y",42458,NA,NA,37736,40602,NA,NA,NA,"kichen, dinning room",1
"w398930","jmgu3zjr3f","Affordance Norms_USM",1,26,"2023-07-27T04:15:34+00:00",16.44863319397,9,"updated stim.csv","Version9.csv","Version 9","List 9","fishbone",NA,262,5.826086957,1125,0.285427589,263,"BOI","-","-","Please name all of the ways you could use this object. Keep in mind that one object can have many uses. Separate your responses with a comma.",NA,"y",16061,NA,NA,4033,13595,NA,NA,NA,"cook, flavor, clean teeth",1
"w398930","jmgu3zjr3f","Affordance Norms_USM",1,27,"2023-07-27T04:16:04+00:00",30.261370897293,9,"updated stim.csv","Version9.csv","Version 9","List 9","bosom",NA,250,5.846153846,200,0.99406305,251,"BOI","-","-","Please name all of the ways you could use this object. Keep in mind that one object can have many uses. Separate your responses with a comma.",NA,"y",29675,NA,NA,21978,26947,NA,NA,NA,"lay, feel, touch",1
"w398930","jmgu3zjr3f","Affordance Norms_USM",1,28,"2023-07-27T04:16:17+00:00",13.134021997452,9,"updated stim.csv","Version9.csv","Version 9","List 9","plaque",NA,244,5.413793103,239,0.767968501,245,"BOI","-","-","Please name all of the ways you could use this object. Keep in mind that one object can have many uses. Separate your responses with a comma.",NA,"y",12731,NA,NA,7145,11141,NA,NA,NA,"coaching, playing, teaching",1
"w398930","jmgu3zjr3f","Affordance Norms_USM",1,29,"2023-07-27T04:16:39+00:00",22.048013925552,9,"updated stim.csv","Version9.csv","Version 9","List 9","bugle",NA,252,4.384615385,1462,0.792855773,253,"BOI","-","-","Please name all of the ways you could use this object. Keep in mind that one object can have many uses. Separate your responses with a comma.",NA,"y",21666,NA,NA,4554,19894,NA,NA,NA,"band, calvary, solo",1
"w398930","jmgu3zjr3f","Affordance Norms_USM",1,30,"2023-07-27T04:16:54+00:00",14.641578197479,9,"updated stim.csv","Version9.csv","Version 9","List 9","coaster",NA,258,6.458333333,896,0.003681913,259,"BOI","-","-","Please name all of the ways you could use this object. Keep in mind that one object can have many uses. Separate your responses with a comma.",NA,"y",14227,NA,NA,5039,12826,NA,NA,NA,"drink, decorative, protective",1
"w398930","jmgu3zjr3f","Affordance Norms_USM",1,31,"2023-07-27T04:17:15+00:00",20.97740983963,9,"updated stim.csv","Version9.csv","Version 9","List 9","lens",NA,269,4.80952381,31,0.560695239,270,"BOI","-","-","Please name all of the ways you could use this object. Keep in mind that one object can have many uses. Separate your responses with a comma.",NA,"y",20589,NA,NA,3185,18305,NA,NA,NA,"glases, binocular, telescope",1
"w398930","jmgu3zjr3f","Affordance Norms_USM",1,32,"2023-07-27T04:17:40+00:00",25.589746952057,9,"updated stim.csv","Version9.csv","Version 9","List 9","chin",NA,256,4.583333333,2976,0.28598123,257,"BOI","-","-","Please name all of the ways you could use this object. Keep in mind that one object can have many uses. Separate your responses with a comma.",NA,"y",25202,NA,NA,5377,23646,NA,NA,NA,"thinking, male dominance, plastic surgery ",1
"w398930","jmgu3zjr3f","Affordance Norms_USM",1,33,"2023-07-27T04:18:04+00:00",23.511130094528,9,"updated stim.csv","Version9.csv","Version 9","List 9","giblets",NA,242,6.166666667,203,0.96821643,243,"BOI","-","-","Please name all of the ways you could use this object. Keep in mind that one object can have many uses. Separate your responses with a comma.",NA,"y",23111,NA,NA,4644,21305,NA,NA,NA,"cooking, heart, liver",1
"w398930","jmgu3zjr3f","Affordance Norms_USM",1,34,"2023-07-27T04:18:15+00:00",11.432686090469,9,"updated stim.csv","Version9.csv","Version 9","List 9","children",NA,255,5.2,2721,0.805795808,256,"BOI","-","-","Please name all of the ways you could use this object. Keep in mind that one object can have many uses. Separate your responses with a comma.",NA,"y",11019,NA,NA,3547,9424,NA,NA,NA,"parents, boy, girl",1
"w398930","jmgu3zjr3f","Affordance Norms_USM",1,35,"2023-07-27T04:18:31+00:00",15.252651929855,9,"updated stim.csv","Version9.csv","Version 9","List 9","hickory",NA,266,5.791666667,2978,0.869670923,267,"BOI","-","-","Please name all of the ways you could use this object. Keep in mind that one object can have many uses. Separate your responses with a comma.",NA,"y",14861,NA,NA,5646,13050,NA,NA,NA,"baking, bbq sauce, grilling, wood",1
"w398930","jmgu3zjr3f","Affordance Norms_USM",1,36,"2023-07-27T04:19:04+00:00",33.305407047272,9,"updated stim.csv","Version9.csv","Version 9","List 9","appendage",NA,247,4.916666667,2791,0.621648514,248,"BOI","-","-","Please name all of the ways you could use this object. Keep in mind that one object can have many uses. Separate your responses with a comma.",NA,"y",32926,NA,NA,21501,30566,NA,NA,NA,"letter, email, essay",1
"w398930","jmgu3zjr3f","Affordance Norms_USM",1,37,"2023-07-27T04:19:15+00:00",11.349694013596,9,"updated stim.csv","Version9.csv","Version 9","List 9","fillet",NA,241,4.28,1629,0.300205289,242,"BOI","-","-","Please name all of the ways you could use this object. Keep in mind that one object can have many uses. Separate your responses with a comma.",NA,"y",10959,NA,NA,3221,9281,NA,NA,NA,"steak, chicken, pork",1
"w398930","jmgu3zjr3f","Affordance Norms_USM",1,38,"2023-07-27T04:19:24+00:00",8.7405548095703,9,"updated stim.csv","Version9.csv","Version 9","List 9","cruiser",NA,259,5.04,510,0.869697856,260,"BOI","-","-","Please name all of the ways you could use this object. Keep in mind that one object can have many uses. Separate your responses with a comma.",NA,"y",8311,NA,NA,3246,6354,NA,NA,NA,"chevy, toyota, ford",1
"w398930","jmgu3zjr3f","Affordance Norms_USM",1,39,"2023-07-27T04:19:46+00:00",21.968049049377,9,"updated stim.csv","Version9.csv","Version 9","List 9","greens",NA,265,6.291666667,2105,0.327813639,266,"BOI","-","-","Please name all of the ways you could use this object. Keep in mind that one object can have many uses. Separate your responses with a comma.",NA,"y",21459,NA,NA,2367,17907,NA,NA,NA,"collard, turnip, vegetables ",1
"w398930","jmgu3zjr3f","Affordance Norms_USM",1,40,"2023-07-27T04:20:04+00:00",17.925958156586,9,"updated stim.csv","Version9.csv","Version 9","List 9","ledger",NA,268,5.75,1998,0.769402376,269,"BOI","-","-","Please name all of the ways you could use this object. Keep in mind that one object can have many uses. Separate your responses with a comma.",NA,"y",17549,NA,NA,4994,16054,NA,NA,NA,"entry log, record book, notes",1
"w967459_djm","g524yqde2g","Affordance Norms_USM",1,11,"2023-07-25T16:18:39+00:00",18.330916881561,2,"updated stim.csv","Version2.csv","Version 2","List 2","blister",NA,55,4.956521739,48,0.731549393,56,"BOI","-","-","Please name all of the ways you could use this object. Keep in mind that one object can have many uses. Separate your responses with a comma.",NA,"y",17852,NA,NA,1829,17206,NA,NA,NA,"pop, heal, leave alone",1
"w967459_djm","g524yqde2g","Affordance Norms_USM",1,12,"2023-07-25T16:18:51+00:00",12.089769124985,2,"updated stim.csv","Version2.csv","Version 2","List 2","kazoo",NA,59,4.72,89,0.034188339,60,"BOI","-","-","Please name all of the ways you could use this object. Keep in mind that one object can have many uses. Separate your responses with a comma.",NA,"y",11592,NA,NA,1598,10325,NA,NA,NA,"play, blow in it, throw it away",1
"w967459_djm","g524yqde2g","Affordance Norms_USM",1,13,"2023-07-25T16:21:11+00:00",139.78000092506,2,"updated stim.csv","Version2.csv","Version 2","List 2","me",NA,36,5.583333333,2245,0.682973727,37,"BOI","-","-","Please name all of the ways you could use this object. Keep in mind that one object can have many uses. Separate your responses with a comma.",NA,"y",139268,NA,NA,1879,137894,NA,NA,NA,"run, jump, walk, sleep, eat, sex, shop, study, work, drive, play, cook, clean, hunt, fish, mud ride, steal, attend functions, babysit, wife duties, friend duties, apply make up, get dressed, make the bed, type on a computer, play on ipad, play sports, raise children, buy gifts, decorate christmas tree, decorate house, fold clothes, scrub toilet, scrub tub, iron clothes, craft, walk, ride a bike, play sports, drink, dance, cheer, football, swim",1
"w967459_djm","g524yqde2g","Affordance Norms_USM",1,14,"2023-07-25T16:21:27+00:00",16.928608894348,2,"updated stim.csv","Version2.csv","Version 2","List 2","fern",NA,42,6.32,2642,0.384323611,43,"BOI","-","-","Please name all of the ways you could use this object. Keep in mind that one object can have many uses. Separate your responses with a comma.",NA,"y",15449,NA,NA,6562,14913,NA,NA,NA,"plant, use as decore",1
"w967459_djm","g524yqde2g","Affordance Norms_USM",1,15,"2023-07-25T16:21:40+00:00",12.442212104797,2,"updated stim.csv","Version2.csv","Version 2","List 2","poker",NA,44,4.826086957,535,0.955772762,45,"BOI","-","-","Please name all of the ways you could use this object. Keep in mind that one object can have many uses. Separate your responses with a comma.",NA,"y",11922,NA,NA,1403,11170,NA,NA,NA,"play, poke a fire, gamble",1
"w967459_djm","g524yqde2g","Affordance Norms_USM",1,16,"2023-07-25T16:22:05+00:00",24.769654989243,2,"updated stim.csv","Version2.csv","Version 2","List 2","crap",NA,53,4.48,245,0.100535723,54,"BOI","-","-","Please name all of the ways you could use this object. Keep in mind that one object can have many uses. Separate your responses with a comma.",NA,"y",24285,NA,NA,5738,22605,NA,NA,NA,"flush it, fertilize plants, pooper scooper",1
"w967459_djm","g524yqde2g","Affordance Norms_USM",1,17,"2023-07-25T16:22:17+00:00",12.496421098709,2,"updated stim.csv","Version2.csv","Version 2","List 2","swing",NA,45,5.230769231,1323,0.512471955,46,"BOI","-","-","Please name all of the ways you could use this object. Keep in mind that one object can have many uses. Separate your responses with a comma.",NA,"y",11998,NA,NA,5474,11410,NA,NA,NA,"swing, spin, stand",1
"w967459_djm","g524yqde2g","Affordance Norms_USM",1,18,"2023-07-25T16:22:32+00:00",15.227609872818,2,"updated stim.csv","Version2.csv","Version 2","List 2","knickers",NA,34,5.583333333,2998,0.504476823,35,"BOI","-","-","Please name all of the ways you could use this object. Keep in mind that one object can have many uses. Separate your responses with a comma.",NA,"y",14735,NA,NA,1757,13239,NA,NA,NA,"wear, wash, iron, hang up, fold, store",1
"w967459_djm","g524yqde2g","Affordance Norms_USM",1,19,"2023-07-25T16:22:46+00:00",13.310909032822,2,"updated stim.csv","Version2.csv","Version 2","List 2","pedicurist",NA,43,6.08,2750,0.595966616,44,"BOI","-","-","Please name all of the ways you could use this object. Keep in mind that one object can have many uses. Separate your responses with a comma.",NA,"y",12781,NA,NA,2585,7774,NA,NA,NA,"clip nails, paint nails",1
"w967459_djm","g524yqde2g","Affordance Norms_USM",1,20,"2023-07-25T16:22:59+00:00",13.711093902588,2,"updated stim.csv","Version2.csv","Version 2","List 2","hitchhiker",NA,48,4.52,817,0.223119321,49,"BOI","-","-","Please name all of the ways you could use this object. Keep in mind that one object can have many uses. Separate your responses with a comma.",NA,"y",13182,NA,NA,9502,11895,NA,NA,NA,"pass on the road",1
"w967459_djm","g524yqde2g","Affordance Norms_USM",1,21,"2023-07-25T16:23:06+00:00",6.6570580005646,2,"updated stim.csv","Version2.csv","Version 2","List 2","earwax",NA,46,5.19047619,1128,0.679960661,47,"BOI","-","-","Please name all of the ways you could use this object. Keep in mind that one object can have many uses. Separate your responses with a comma.",NA,"y",5102,NA,NA,1302,2288,NA,NA,NA,"clean",1
"w967459_djm","g524yqde2g","Affordance Norms_USM",1,22,"2023-07-25T16:23:21+00:00",14.862960100174,2,"updated stim.csv","Version2.csv","Version 2","List 2","croquet",NA,60,5.407407407,2133,0.78433646,61,"BOI","-","-","Please name all of the ways you could use this object. Keep in mind that one object can have many uses. Separate your responses with a comma.",NA,"y",14389,NA,NA,3678,12884,NA,NA,NA,"blankets, hats, scarves, pass time,",1
"w967459_djm","g524yqde2g","Affordance Norms_USM",1,23,"2023-07-25T16:23:36+00:00",14.609160900116,2,"updated stim.csv","Version2.csv","Version 2","List 2","pulley",NA,49,6.347826087,2994,0.675214554,50,"BOI","-","-","Please name all of the ways you could use this object. Keep in mind that one object can have many uses. Separate your responses with a comma.",NA,"y",14097,NA,NA,3125,12815,NA,NA,NA,"mechanics, levers, move objects",1
"w967459_djm","g524yqde2g","Affordance Norms_USM",1,24,"2023-07-25T16:23:49+00:00",13.751000165939,2,"updated stim.csv","Version2.csv","Version 2","List 2","seashore",NA,40,5.148148148,2799,0.680797852,41,"BOI","-","-","Please name all of the ways you could use this object. Keep in mind that one object can have many uses. Separate your responses with a comma.",NA,"y",12760,NA,NA,2493,10861,NA,NA,NA,"relax, tan, find shells, walk",1
"w967459_djm","g524yqde2g","Affordance Norms_USM",1,25,"2023-07-25T16:24:10+00:00",20.613927841187,2,"updated stim.csv","Version2.csv","Version 2","List 2","mint",NA,37,4.84,1121,0.199203882,38,"BOI","-","-","Please name all of the ways you could use this object. Keep in mind that one object can have many uses. Separate your responses with a comma.",NA,"y",20097,NA,NA,1416,16980,NA,NA,NA,"eat, cook, fragrance ",1
"w967459_djm","g524yqde2g","Affordance Norms_USM",1,26,"2023-07-25T16:24:19+00:00",8.6211321353912,2,"updated stim.csv","Version2.csv","Version 2","List 2","penknife",NA,38,5.24,2402,0.06527123,39,"BOI","-","-","Please name all of the ways you could use this object. Keep in mind that one object can have many uses. Separate your responses with a comma.",NA,"y",8125,NA,NA,3625,6849,NA,NA,NA,"i don't know what this is",1
"w967459_djm","g524yqde2g","Affordance Norms_USM",1,27,"2023-07-25T16:24:25+00:00",6.8117558956146,2,"updated stim.csv","Version2.csv","Version 2","List 2","rook",NA,39,4.818181818,150,0.478634366,40,"BOI","-","-","Please name all of the ways you could use this object. Keep in mind that one object can have many uses. Separate your responses with a comma.",NA,"y",6339,NA,NA,2711,4965,NA,NA,NA,"ear piercing ",1
"w967459_djm","g524yqde2g","Affordance Norms_USM",1,28,"2023-07-25T16:24:48+00:00",22.552706956863,2,"updated stim.csv","Version2.csv","Version 2","List 2","stockbroker",NA,41,6.555555556,281,0.153320127,42,"BOI","-","-","Please name all of the ways you could use this object. Keep in mind that one object can have many uses. Separate your responses with a comma.",NA,"y",17930,NA,NA,3204,16721,NA,NA,NA,"make money, manage stocks, stock advice to buy or sell",1
"w967459_djm","g524yqde2g","Affordance Norms_USM",1,29,"2023-07-25T16:24:54+00:00",5.943864107132,2,"updated stim.csv","Version2.csv","Version 2","List 2","erection",NA,51,4.642857143,2058,0.516126599,52,"BOI","-","-","Please name all of the ways you could use this object. Keep in mind that one object can have many uses. Separate your responses with a comma.",NA,"y",5552,NA,NA,3372,3852,NA,NA,NA,"sex",1
"w967459_djm","g524yqde2g","Affordance Norms_USM",1,30,"2023-07-25T16:25:10+00:00",16.345869064331,2,"updated stim.csv","Version2.csv","Version 2","List 2","clothespin",NA,50,4.739130435,670,0.633267106,51,"BOI","-","-","Please name all of the ways you could use this object. Keep in mind that one object can have many uses. Separate your responses with a comma.",NA,"y",15958,NA,NA,1820,14268,NA,NA,NA,"hang clothes, hang artwork, hang pictures",1
"w967459_djm","g524yqde2g","Affordance Norms_USM",1,31,"2023-07-25T16:25:19+00:00",8.5293560028076,2,"updated stim.csv","Version2.csv","Version 2","List 2","debris",NA,33,6.083333333,1497,0.692615167,34,"BOI","-","-","Please name all of the ways you could use this object. Keep in mind that one object can have many uses. Separate your responses with a comma.",NA,"y",8169,NA,NA,2806,6493,NA,NA,NA,"trash can ",1
"w967459_djm","g524yqde2g","Affordance Norms_USM",1,32,"2023-07-25T16:25:33+00:00",13.952615022659,2,"updated stim.csv","Version2.csv","Version 2","List 2","coverall",NA,32,4.347826087,1757,0.595175497,33,"BOI","-","-","Please name all of the ways you could use this object. Keep in mind that one object can have many uses. Separate your responses with a comma.",NA,"y",13570,NA,NA,2125,12103,NA,NA,NA,"work with messy substances",1
"w967459_djm","g524yqde2g","Affordance Norms_USM",1,33,"2023-07-25T16:25:40+00:00",6.9341959953308,2,"updated stim.csv","Version2.csv","Version 2","List 2","insole",NA,56,4.7,2778,0.883826576,57,"BOI","-","-","Please name all of the ways you could use this object. Keep in mind that one object can have many uses. Separate your responses with a comma.",NA,"y",6576,NA,NA,1760,3852,NA,NA,NA,"",1
"w967459_djm","g524yqde2g","Affordance Norms_USM",1,34,"2023-07-25T16:25:44+00:00",3.9446239471436,2,"updated stim.csv","Version2.csv","Version 2","List 2","orphan",NA,54,4.96,1201,0.163221051,55,"BOI","-","-","Please name all of the ways you could use this object. Keep in mind that one object can have many uses. Separate your responses with a comma.",NA,"y",3611,NA,NA,1652,2317,NA,NA,NA,"adopt",1
"w967459_djm","g524yqde2g","Affordance Norms_USM",1,35,"2023-07-25T16:25:46+00:00",2.3132519721985,2,"updated stim.csv","Version2.csv","Version 2","List 2","marketeer",NA,35,5.464285714,287,0.648959205,36,"BOI","-","-","Please name all of the ways you could use this object. Keep in mind that one object can have many uses. Separate your responses with a comma.",NA,"y",1949,NA,NA,-1,-1,NA,NA,NA,"",1
"w967459_djm","g524yqde2g","Affordance Norms_USM",1,36,"2023-07-25T16:25:55+00:00",9.1521379947662,2,"updated stim.csv","Version2.csv","Version 2","List 2","granite",NA,52,4.916666667,1137,0.75699281,53,"BOI","-","-","Please name all of the ways you could use this object. Keep in mind that one object can have many uses. Separate your responses with a comma.",NA,"y",8778,NA,NA,1527,7614,NA,NA,NA,"clean, pretty counters",1
"w967459_djm","g524yqde2g","Affordance Norms_USM",1,37,"2023-07-25T16:26:05+00:00",10.163766860962,2,"updated stim.csv","Version2.csv","Version 2","List 2","uncle",NA,57,4.695652174,2762,0.942630662,58,"BOI","-","-","Please name all of the ways you could use this object. Keep in mind that one object can have many uses. Separate your responses with a comma.",NA,"y",9784,NA,NA,1458,7472,NA,NA,NA,"talk, play, hang out",1
"w967459_djm","g524yqde2g","Affordance Norms_USM",1,38,"2023-07-25T16:26:08+00:00",2.9740791320801,2,"updated stim.csv","Version2.csv","Version 2","List 2","footbridge",NA,47,5,1653,0.813855277,48,"BOI","-","-","Please name all of the ways you could use this object. Keep in mind that one object can have many uses. Separate your responses with a comma.",NA,"y",2618,NA,NA,-1,-1,NA,NA,NA,"",1
"w967459_djm","g524yqde2g","Affordance Norms_USM",1,39,"2023-07-25T16:26:10+00:00",1.389762878418,2,"updated stim.csv","Version2.csv","Version 2","List 2","buckwheat",NA,31,4.392857143,668,0.714936931,32,"BOI","-","-","Please name all of the ways you could use this object. Keep in mind that one object can have many uses. Separate your responses with a comma.",NA,"y",1037,NA,NA,-1,-1,NA,NA,NA,"",1
"w967459_djm","g524yqde2g","Affordance Norms_USM",1,40,"2023-07-25T16:26:14+00:00",4.0176560878754,2,"updated stim.csv","Version2.csv","Version 2","List 2","antiseptics",NA,58,6.074074074,2822,0.498329355,59,"BOI","-","-","Please name all of the ways you could use this object. Keep in mind that one object can have many uses. Separate your responses with a comma.",NA,"y",3657,NA,NA,2089,2473,NA,NA,NA,"clean",1
