Username,ID,ExperimentName,Session,Trial,Date,TimeDif,Condition.Number,Stimuli.File,Order.File,Condition.Description,Condition.Notes,Stimuli.Cue,Stimuli.Answer,Stimuli.Shuffle,Stimuli.Stimuli.Notes,Stimuli.Value,Stimuli.Rand,Procedure.Item,Procedure.Trial.Type,Procedure.Max.Time,Procedure.Min.Time,Procedure.Text,Procedure.Procedure.Notes,Procedure.Shuffle,Response.RT,Response.Response,Response.Accuracy,Response.RTfirst,Response.RTlast,Response.strictAcc,Response.lenientAcc,Response.focus,Response.JOL,Response.Focus
59b6e6ddb269ef00018018c6,14hb4b02f7,Affordance Norms_Prolific,1,11,2023-07-27T21:15:18+00:00,38.70036411,1,updated stim.csv,Version1.csv,Version 1,List 1,munitions,NA,9,4.875,2448,0.423270691,10,BOI,-,-,Please name all of the ways you could use this object. Keep in mind that one object can have many uses. Separate your responses with a comma.,NA,y,38145,NA,NA,4019,32632,NA,NA,NA,"fire from a gun, supply troops",1
59b6e6ddb269ef00018018c6,14hb4b02f7,Affordance Norms_Prolific,1,12,2023-07-27T21:15:52+00:00,34.17982388,1,updated stim.csv,Version1.csv,Version 1,List 1,aunt,NA,21,4.4,243,0.879020377,22,BOI,-,-,Please name all of the ways you could use this object. Keep in mind that one object can have many uses. Separate your responses with a comma.,NA,y,33524,NA,NA,5961,31556,NA,NA,NA,"keep her company, talk to, discuss family history",1
59b6e6ddb269ef00018018c6,14hb4b02f7,Affordance Norms_Prolific,1,13,2023-07-27T21:16:46+00:00,53.12607813,1,updated stim.csv,Version1.csv,Version 1,List 1,fauna,NA,25,4.333333333,252,0.347548191,26,BOI,-,-,Please name all of the ways you could use this object. Keep in mind that one object can have many uses. Separate your responses with a comma.,NA,y,52487,NA,NA,5338,45095,NA,NA,NA,"watch, identify, feed",1
59b6e6ddb269ef00018018c6,14hb4b02f7,Affordance Norms_Prolific,1,14,2023-07-27T21:17:29+00:00,43.34855795,1,updated stim.csv,Version1.csv,Version 1,List 1,stirrup,NA,27,5.434782609,1877,0.096670334,28,BOI,-,-,Please name all of the ways you could use this object. Keep in mind that one object can have many uses. Separate your responses with a comma.,NA,y,42721,NA,NA,6944,40719,NA,NA,NA,"control horses, ornaments",1
59b6e6ddb269ef00018018c6,14hb4b02f7,Affordance Norms_Prolific,1,15,2023-07-27T21:17:49+00:00,20.36663795,1,updated stim.csv,Version1.csv,Version 1,List 1,capacitor,NA,3,5.76,1666,0.330502966,4,BOI,-,-,Please name all of the ways you could use this object. Keep in mind that one object can have many uses. Separate your responses with a comma.,NA,y,19721,NA,NA,6195,17024,NA,NA,NA,"smooth a circuit, make a piece of art",1
59b6e6ddb269ef00018018c6,14hb4b02f7,Affordance Norms_Prolific,1,16,2023-07-27T21:18:24+00:00,34.53190994,1,updated stim.csv,Version1.csv,Version 1,List 1,sod,NA,6,4.375,1389,0.172930083,7,BOI,-,-,Please name all of the ways you could use this object. Keep in mind that one object can have many uses. Separate your responses with a comma.,NA,y,33952,NA,NA,9425,23336,NA,NA,NA,use to pot plants,1
59b6e6ddb269ef00018018c6,14hb4b02f7,Affordance Norms_Prolific,1,17,2023-07-27T21:18:57+00:00,33.06503916,1,updated stim.csv,Version1.csv,Version 1,List 1,straightedge,NA,15,4.666666667,1168,0.129741388,16,BOI,-,-,Please name all of the ways you could use this object. Keep in mind that one object can have many uses. Separate your responses with a comma.,NA,y,32468,NA,NA,3671,30770,NA,NA,NA,"draw a straight line, use to recover a lost object",1
59b6e6ddb269ef00018018c6,14hb4b02f7,Affordance Norms_Prolific,1,18,2023-07-27T21:19:16+00:00,19.41233993,1,updated stim.csv,Version1.csv,Version 1,List 1,hailstone,NA,16,5.565217391,1319,0.287274537,17,BOI,-,-,Please name all of the ways you could use this object. Keep in mind that one object can have many uses. Separate your responses with a comma.,NA,y,18771,NA,NA,8571,15995,NA,NA,NA,"try and avoid, study",1
59b6e6ddb269ef00018018c6,14hb4b02f7,Affordance Norms_Prolific,1,19,2023-07-27T21:19:37+00:00,20.91725397,1,updated stim.csv,Version1.csv,Version 1,List 1,musket,NA,14,4.958333333,2722,0.368202979,15,BOI,-,-,Please name all of the ways you could use this object. Keep in mind that one object can have many uses. Separate your responses with a comma.,NA,y,20325,NA,NA,4224,18100,NA,NA,NA,"shoot, use as a starting gun",1
59b6e6ddb269ef00018018c6,14hb4b02f7,Affordance Norms_Prolific,1,20,2023-07-27T21:20:08+00:00,31.27585793,1,updated stim.csv,Version1.csv,Version 1,List 1,cashmere,NA,23,4.84,1448,0.448711971,24,BOI,-,-,Please name all of the ways you could use this object. Keep in mind that one object can have many uses. Separate your responses with a comma.,NA,y,30299,NA,NA,4984,25137,NA,NA,NA,"knit into a jersey, make table protectors",1
59b6e6ddb269ef00018018c6,14hb4b02f7,Affordance Norms_Prolific,1,21,2023-07-27T21:20:20+00:00,11.64638209,1,updated stim.csv,Version1.csv,Version 1,List 1,hookah,NA,2,6.416666667,2301,0.945985105,3,BOI,-,-,Please name all of the ways you could use this object. Keep in mind that one object can have many uses. Separate your responses with a comma.,NA,y,11048,NA,NA,-1,-1,NA,NA,NA,,1
59b6e6ddb269ef00018018c6,14hb4b02f7,Affordance Norms_Prolific,1,22,2023-07-27T21:20:56+00:00,36.28239393,1,updated stim.csv,Version1.csv,Version 1,List 1,spool,NA,30,5.64,2491,0.148115672,31,BOI,-,-,Please name all of the ways you could use this object. Keep in mind that one object can have many uses. Separate your responses with a comma.,NA,y,35679,NA,NA,4666,28805,NA,NA,NA,"wind thread onto, load with paper in a printer",1
59b6e6ddb269ef00018018c6,14hb4b02f7,Affordance Norms_Prolific,1,23,2023-07-27T21:21:40+00:00,43.38010216,1,updated stim.csv,Version1.csv,Version 1,List 1,kiln,NA,7,6.230769231,308,0.981109369,8,BOI,-,-,Please name all of the ways you could use this object. Keep in mind that one object can have many uses. Separate your responses with a comma.,NA,y,41717,NA,NA,4468,38564,NA,NA,NA,"fire clay pots, bake cakes, manufacture cement dust",1
59b6e6ddb269ef00018018c6,14hb4b02f7,Affordance Norms_Prolific,1,24,2023-07-27T21:22:19+00:00,39.11097884,1,updated stim.csv,Version1.csv,Version 1,List 1,asshole,NA,29,5.88,1967,0.018459114,30,BOI,-,-,Please name all of the ways you could use this object. Keep in mind that one object can have many uses. Separate your responses with a comma.,NA,y,38513,NA,NA,26320,33960,NA,NA,NA,Use to pass faeces,1
59b6e6ddb269ef00018018c6,14hb4b02f7,Affordance Norms_Prolific,1,25,2023-07-27T21:23:02+00:00,43.37497616,1,updated stim.csv,Version1.csv,Version 1,List 1,juror,NA,17,5.481481481,1600,0.476399064,18,BOI,-,-,Please name all of the ways you could use this object. Keep in mind that one object can have many uses. Separate your responses with a comma.,NA,y,42780,NA,NA,8910,30291,NA,NA,NA,"give a verdict, decide on a singing contest winner",1
59b6e6ddb269ef00018018c6,14hb4b02f7,Affordance Norms_Prolific,1,26,2023-07-27T21:23:50+00:00,47.82997394,1,updated stim.csv,Version1.csv,Version 1,List 1,boy,NA,10,6.25,323,0.73335018,11,BOI,-,-,Please name all of the ways you could use this object. Keep in mind that one object can have many uses. Separate your responses with a comma.,NA,y,47195,NA,NA,7551,44491,NA,NA,NA,"play football, teach, assist with chores",1
59b6e6ddb269ef00018018c6,14hb4b02f7,Affordance Norms_Prolific,1,27,2023-07-27T21:24:14+00:00,23.56522703,1,updated stim.csv,Version1.csv,Version 1,List 1,gourd,NA,20,5.458333333,2953,0.249710528,21,BOI,-,-,Please name all of the ways you could use this object. Keep in mind that one object can have many uses. Separate your responses with a comma.,NA,y,22966,NA,NA,10399,17445,NA,NA,NA,serve punch in,1
59b6e6ddb269ef00018018c6,14hb4b02f7,Affordance Norms_Prolific,1,28,2023-07-27T21:24:51+00:00,37.81252384,1,updated stim.csv,Version1.csv,Version 1,List 1,receptacle,NA,5,5.833333333,1647,0.48521541,6,BOI,-,-,Please name all of the ways you could use this object. Keep in mind that one object can have many uses. Separate your responses with a comma.,NA,y,37192,NA,NA,6345,33495,NA,NA,NA,"store stuff in, hold vinegar",1
59b6e6ddb269ef00018018c6,14hb4b02f7,Affordance Norms_Prolific,1,29,2023-07-27T21:25:21+00:00,29.88803411,1,updated stim.csv,Version1.csv,Version 1,List 1,tapioca,NA,18,4.666666667,1815,0.413937663,19,BOI,-,-,Please name all of the ways you could use this object. Keep in mind that one object can have many uses. Separate your responses with a comma.,NA,y,29267,NA,NA,3413,20698,NA,NA,NA,"make a pudding, make a bean bag",1
59b6e6ddb269ef00018018c6,14hb4b02f7,Affordance Norms_Prolific,1,30,2023-07-27T21:26:09+00:00,47.16928101,1,updated stim.csv,Version1.csv,Version 1,List 1,upholstery,NA,28,5.142857143,2618,0.332046282,29,BOI,-,-,Please name all of the ways you could use this object. Keep in mind that one object can have many uses. Separate your responses with a comma.,NA,y,46571,NA,NA,2637,43513,NA,NA,NA,"protect furniture, make curtains with",1
59b6e6ddb269ef00018018c6,14hb4b02f7,Affordance Norms_Prolific,1,31,2023-07-27T21:27:12+00:00,63.16334891,1,updated stim.csv,Version1.csv,Version 1,List 1,tar,NA,11,5.92,2708,0.629763414,12,BOI,-,-,Please name all of the ways you could use this object. Keep in mind that one object can have many uses. Separate your responses with a comma.,NA,y,62271,NA,NA,4611,59549,NA,NA,NA,"cover roads, protect boats, protect walls and flat roofs, seal joints in pipes",1
59b6e6ddb269ef00018018c6,14hb4b02f7,Affordance Norms_Prolific,1,32,2023-07-27T21:27:42+00:00,30.74642897,1,updated stim.csv,Version1.csv,Version 1,List 1,dipstick,NA,22,4.826086957,1618,0.113902737,23,BOI,-,-,Please name all of the ways you could use this object. Keep in mind that one object can have many uses. Separate your responses with a comma.,NA,y,30117,NA,NA,3087,13116,NA,NA,NA,check oil levels in a vehicle,1
59b6e6ddb269ef00018018c6,14hb4b02f7,Affordance Norms_Prolific,1,33,2023-07-27T21:28:19+00:00,36.24340916,1,updated stim.csv,Version1.csv,Version 1,List 1,medal,NA,13,4.444444444,1011,0.860315666,14,BOI,-,-,Please name all of the ways you could use this object. Keep in mind that one object can have many uses. Separate your responses with a comma.,NA,y,35597,NA,NA,3673,32451,NA,NA,NA,"as an award, as an ornamental item",1
59b6e6ddb269ef00018018c6,14hb4b02f7,Affordance Norms_Prolific,1,34,2023-07-27T21:29:28+00:00,69.40275383,1,updated stim.csv,Version1.csv,Version 1,List 1,crossbar,NA,8,5.454545455,1935,0.125396232,9,BOI,-,-,Please name all of the ways you could use this object. Keep in mind that one object can have many uses. Separate your responses with a comma.,NA,y,68506,NA,NA,6220,37379,NA,NA,NA,"Hold up goalposts, provide support for a table",1
59b6e6ddb269ef00018018c6,14hb4b02f7,Affordance Norms_Prolific,1,35,2023-07-27T21:30:03+00:00,35.06165004,1,updated stim.csv,Version1.csv,Version 1,List 1,decor,NA,24,5.347826087,469,0.48837589,25,BOI,-,-,Please name all of the ways you could use this object. Keep in mind that one object can have many uses. Separate your responses with a comma.,NA,y,34477,NA,NA,5739,28661,NA,NA,NA,"to decorate bland walls, are colour",1
59b6e6ddb269ef00018018c6,14hb4b02f7,Affordance Norms_Prolific,1,36,2023-07-27T21:30:26+00:00,22.53647804,1,updated stim.csv,Version1.csv,Version 1,List 1,kumquat,NA,1,4.538461538,764,0.261476603,2,BOI,-,-,Please name all of the ways you could use this object. Keep in mind that one object can have many uses. Separate your responses with a comma.,NA,y,20911,NA,NA,2831,18317,NA,NA,NA,"to eat, make into a pie",1
59b6e6ddb269ef00018018c6,14hb4b02f7,Affordance Norms_Prolific,1,37,2023-07-27T21:31:16+00:00,50.23835492,1,updated stim.csv,Version1.csv,Version 1,List 1,packet,NA,26,4.727272727,2510,0.797812576,27,BOI,-,-,Please name all of the ways you could use this object. Keep in mind that one object can have many uses. Separate your responses with a comma.,NA,y,49649,NA,NA,4041,42478,NA,NA,NA,"to hold items, protect food, to carry passengers",1
59b6e6ddb269ef00018018c6,14hb4b02f7,Affordance Norms_Prolific,1,38,2023-07-27T21:31:45+00:00,29.54728508,1,updated stim.csv,Version1.csv,Version 1,List 1,gasket,NA,4,5.416666667,1464,0.391267155,5,BOI,-,-,Please name all of the ways you could use this object. Keep in mind that one object can have many uses. Separate your responses with a comma.,NA,y,28927,NA,NA,2769,15327,NA,NA,NA,to seal joints,1
59b6e6ddb269ef00018018c6,14hb4b02f7,Affordance Norms_Prolific,1,39,2023-07-27T21:32:31+00:00,45.02774692,1,updated stim.csv,Version1.csv,Version 1,List 1,waistcoat,NA,19,5.227272727,1241,0.629851612,20,BOI,-,-,Please name all of the ways you could use this object. Keep in mind that one object can have many uses. Separate your responses with a comma.,NA,y,44448,NA,NA,13373,42383,NA,NA,NA,"To hold my watch, keep me warm",1
59b6e6ddb269ef00018018c6,14hb4b02f7,Affordance Norms_Prolific,1,40,2023-07-27T21:33:11+00:00,40.26631904,1,updated stim.csv,Version1.csv,Version 1,List 1,jaguar,NA,12,5.777777778,2235,0.168486135,13,BOI,-,-,Please name all of the ways you could use this object. Keep in mind that one object can have many uses. Separate your responses with a comma.,NA,y,39682,NA,NA,30978,37905,NA,NA,NA,"To feed, to drive",1
59e8f20262637600014a7e75,9hcf8z3l2c,Affordance Norms_Prolific,1,11,2023-07-27T20:59:18+00:00,54.35081697,1,updated stim.csv,Version1.csv,Version 1,List 1,spool,NA,30,5.64,2491,0.148115672,31,BOI,-,-,Please name all of the ways you could use this object. Keep in mind that one object can have many uses. Separate your responses with a comma.,NA,y,54009,NA,NA,40687,52310,NA,NA,NA,"winding, dragging, decorating",1
59e8f20262637600014a7e75,9hcf8z3l2c,Affordance Norms_Prolific,1,12,2023-07-27T20:59:41+00:00,22.64876699,1,updated stim.csv,Version1.csv,Version 1,List 1,decor,NA,24,5.347826087,469,0.48837589,25,BOI,-,-,Please name all of the ways you could use this object. Keep in mind that one object can have many uses. Separate your responses with a comma.,NA,y,22305,NA,NA,7159,18398,NA,NA,NA,"art, crafting, doorstop, ",1
59e8f20262637600014a7e75,9hcf8z3l2c,Affordance Norms_Prolific,1,13,2023-07-27T21:00:14+00:00,32.55590892,1,updated stim.csv,Version1.csv,Version 1,List 1,tapioca,NA,18,4.666666667,1815,0.413937663,19,BOI,-,-,Please name all of the ways you could use this object. Keep in mind that one object can have many uses. Separate your responses with a comma.,NA,y,32194,NA,NA,23996,29155,NA,NA,NA,creative,1
59e8f20262637600014a7e75,9hcf8z3l2c,Affordance Norms_Prolific,1,14,2023-07-27T21:01:12+00:00,58.75933909,1,updated stim.csv,Version1.csv,Version 1,List 1,straightedge,NA,15,4.666666667,1168,0.129741388,16,BOI,-,-,Please name all of the ways you could use this object. Keep in mind that one object can have many uses. Separate your responses with a comma.,NA,y,58403,NA,NA,30920,54894,NA,NA,NA,"creative, throwing, music, measuring, balancing",1
59e8f20262637600014a7e75,9hcf8z3l2c,Affordance Norms_Prolific,1,15,2023-07-27T21:01:38+00:00,25.89063406,1,updated stim.csv,Version1.csv,Version 1,List 1,sod,NA,6,4.375,1389,0.172930083,7,BOI,-,-,Please name all of the ways you could use this object. Keep in mind that one object can have many uses. Separate your responses with a comma.,NA,y,23796,NA,NA,21005,22396,NA,NA,NA,creative ,1
59e8f20262637600014a7e75,9hcf8z3l2c,Affordance Norms_Prolific,1,16,2023-07-27T21:02:12+00:00,34.10826492,1,updated stim.csv,Version1.csv,Version 1,List 1,fauna,NA,25,4.333333333,252,0.347548191,26,BOI,-,-,Please name all of the ways you could use this object. Keep in mind that one object can have many uses. Separate your responses with a comma.,NA,y,33712,NA,NA,28670,32429,NA,NA,NA,"creative, fun",1
59e8f20262637600014a7e75,9hcf8z3l2c,Affordance Norms_Prolific,1,17,2023-07-27T21:02:34+00:00,21.45372486,1,updated stim.csv,Version1.csv,Version 1,List 1,kiln,NA,7,6.230769231,308,0.981109369,8,BOI,-,-,Please name all of the ways you could use this object. Keep in mind that one object can have many uses. Separate your responses with a comma.,NA,y,21077,NA,NA,3678,13853,NA,NA,NA,"making, creative, ",1
59e8f20262637600014a7e75,9hcf8z3l2c,Affordance Norms_Prolific,1,18,2023-07-27T21:03:04+00:00,29.67769408,1,updated stim.csv,Version1.csv,Version 1,List 1,waistcoat,NA,19,5.227272727,1241,0.629851612,20,BOI,-,-,Please name all of the ways you could use this object. Keep in mind that one object can have many uses. Separate your responses with a comma.,NA,y,29313,NA,NA,4403,27800,NA,NA,NA,"umbrella, flag, artwork, costume ",1
59e8f20262637600014a7e75,9hcf8z3l2c,Affordance Norms_Prolific,1,19,2023-07-27T21:03:35+00:00,31.82896399,1,updated stim.csv,Version1.csv,Version 1,List 1,dipstick,NA,22,4.826086957,1618,0.113902737,23,BOI,-,-,Please name all of the ways you could use this object. Keep in mind that one object can have many uses. Separate your responses with a comma.,NA,y,31286,NA,NA,6964,28419,NA,NA,NA,"testing,stabbing, ",1
59e8f20262637600014a7e75,9hcf8z3l2c,Affordance Norms_Prolific,1,20,2023-07-27T21:04:17+00:00,41.78272295,1,updated stim.csv,Version1.csv,Version 1,List 1,stirrup,NA,27,5.434782609,1877,0.096670334,28,BOI,-,-,Please name all of the ways you could use this object. Keep in mind that one object can have many uses. Separate your responses with a comma.,NA,y,41416,NA,NA,19307,39882,NA,NA,NA,"holding, music, holder",1
59e8f20262637600014a7e75,9hcf8z3l2c,Affordance Norms_Prolific,1,21,2023-07-27T21:05:02+00:00,44.63928008,1,updated stim.csv,Version1.csv,Version 1,List 1,receptacle,NA,5,5.833333333,1647,0.48521541,6,BOI,-,-,Please name all of the ways you could use this object. Keep in mind that one object can have many uses. Separate your responses with a comma.,NA,y,44286,NA,NA,42602,43032,NA,NA,NA,art,1
59e8f20262637600014a7e75,9hcf8z3l2c,Affordance Norms_Prolific,1,22,2023-07-27T21:05:19+00:00,17.23748398,1,updated stim.csv,Version1.csv,Version 1,List 1,hailstone,NA,16,5.565217391,1319,0.287274537,17,BOI,-,-,Please name all of the ways you could use this object. Keep in mind that one object can have many uses. Separate your responses with a comma.,NA,y,16847,NA,NA,3685,13316,NA,NA,NA,"throwing, balancing, eating, ",1
59e8f20262637600014a7e75,9hcf8z3l2c,Affordance Norms_Prolific,1,23,2023-07-27T21:05:36+00:00,16.46660614,1,updated stim.csv,Version1.csv,Version 1,List 1,upholstery,NA,28,5.142857143,2618,0.332046282,29,BOI,-,-,Please name all of the ways you could use this object. Keep in mind that one object can have many uses. Separate your responses with a comma.,NA,y,16091,NA,NA,6445,9476,NA,NA,NA,"creative, ",1
59e8f20262637600014a7e75,9hcf8z3l2c,Affordance Norms_Prolific,1,24,2023-07-27T21:05:43+00:00,7.057226896,1,updated stim.csv,Version1.csv,Version 1,List 1,kumquat,NA,1,4.538461538,764,0.261476603,2,BOI,-,-,Please name all of the ways you could use this object. Keep in mind that one object can have many uses. Separate your responses with a comma.,NA,y,6671,NA,NA,5598,6142,NA,NA,NA,art,1
59e8f20262637600014a7e75,9hcf8z3l2c,Affordance Norms_Prolific,1,25,2023-07-27T21:06:00+00:00,17.46976709,1,updated stim.csv,Version1.csv,Version 1,List 1,crossbar,NA,8,5.454545455,1935,0.125396232,9,BOI,-,-,Please name all of the ways you could use this object. Keep in mind that one object can have many uses. Separate your responses with a comma.,NA,y,17049,NA,NA,2522,8978,NA,NA,NA,"pulling, holding, balancing, ",1
59e8f20262637600014a7e75,9hcf8z3l2c,Affordance Norms_Prolific,1,26,2023-07-27T21:06:16+00:00,15.77981591,1,updated stim.csv,Version1.csv,Version 1,List 1,medal,NA,13,4.444444444,1011,0.860315666,14,BOI,-,-,Please name all of the ways you could use this object. Keep in mind that one object can have many uses. Separate your responses with a comma.,NA,y,14459,NA,NA,3400,13110,NA,NA,NA,"keychain, throwing, coaster ",1
59e8f20262637600014a7e75,9hcf8z3l2c,Affordance Norms_Prolific,1,27,2023-07-27T21:06:46+00:00,29.75144291,1,updated stim.csv,Version1.csv,Version 1,List 1,juror,NA,17,5.481481481,1600,0.476399064,18,BOI,-,-,Please name all of the ways you could use this object. Keep in mind that one object can have many uses. Separate your responses with a comma.,NA,y,29359,NA,NA,23006,28181,NA,NA,NA,"opinion, friend",1
59e8f20262637600014a7e75,9hcf8z3l2c,Affordance Norms_Prolific,1,28,2023-07-27T21:07:11+00:00,25.71837401,1,updated stim.csv,Version1.csv,Version 1,List 1,cashmere,NA,23,4.84,1448,0.448711971,24,BOI,-,-,Please name all of the ways you could use this object. Keep in mind that one object can have many uses. Separate your responses with a comma.,NA,y,25330,NA,NA,10508,24259,NA,NA,NA,"clothing, curtains, rug, scarf ",1
59e8f20262637600014a7e75,9hcf8z3l2c,Affordance Norms_Prolific,1,29,2023-07-27T21:07:30+00:00,19.12497997,1,updated stim.csv,Version1.csv,Version 1,List 1,aunt,NA,21,4.4,243,0.879020377,22,BOI,-,-,Please name all of the ways you could use this object. Keep in mind that one object can have many uses. Separate your responses with a comma.,NA,y,18745,NA,NA,5177,17664,NA,NA,NA,"friendship, bank, worker",1
59e8f20262637600014a7e75,9hcf8z3l2c,Affordance Norms_Prolific,1,30,2023-07-27T21:07:53+00:00,23.01995015,1,updated stim.csv,Version1.csv,Version 1,List 1,packet,NA,26,4.727272727,2510,0.797812576,27,BOI,-,-,Please name all of the ways you could use this object. Keep in mind that one object can have many uses. Separate your responses with a comma.,NA,y,22631,NA,NA,2233,21232,NA,NA,NA,"holding place, bucket, bin",1
59e8f20262637600014a7e75,9hcf8z3l2c,Affordance Norms_Prolific,1,31,2023-07-27T21:08:26+00:00,32.36705494,1,updated stim.csv,Version1.csv,Version 1,List 1,hookah,NA,2,6.416666667,2301,0.945985105,3,BOI,-,-,Please name all of the ways you could use this object. Keep in mind that one object can have many uses. Separate your responses with a comma.,NA,y,31983,NA,NA,30175,30718,NA,NA,NA,decor,1
59e8f20262637600014a7e75,9hcf8z3l2c,Affordance Norms_Prolific,1,32,2023-07-27T21:08:43+00:00,16.86597395,1,updated stim.csv,Version1.csv,Version 1,List 1,jaguar,NA,12,5.777777778,2235,0.168486135,13,BOI,-,-,Please name all of the ways you could use this object. Keep in mind that one object can have many uses. Separate your responses with a comma.,NA,y,16475,NA,NA,5364,13275,NA,NA,NA,"pet, decor, climbing frame",1
59e8f20262637600014a7e75,9hcf8z3l2c,Affordance Norms_Prolific,1,33,2023-07-27T21:09:02+00:00,19.52420402,1,updated stim.csv,Version1.csv,Version 1,List 1,gourd,NA,20,5.458333333,2953,0.249710528,21,BOI,-,-,Please name all of the ways you could use this object. Keep in mind that one object can have many uses. Separate your responses with a comma.,NA,y,19151,NA,NA,17200,17647,NA,NA,NA,art,1
59e8f20262637600014a7e75,9hcf8z3l2c,Affordance Norms_Prolific,1,34,2023-07-27T21:09:23+00:00,21.15128899,1,updated stim.csv,Version1.csv,Version 1,List 1,musket,NA,14,4.958333333,2722,0.368202979,15,BOI,-,-,Please name all of the ways you could use this object. Keep in mind that one object can have many uses. Separate your responses with a comma.,NA,y,20779,NA,NA,15894,19964,NA,NA,NA,"decor, art",1
59e8f20262637600014a7e75,9hcf8z3l2c,Affordance Norms_Prolific,1,35,2023-07-27T21:09:51+00:00,27.60429716,1,updated stim.csv,Version1.csv,Version 1,List 1,gasket,NA,4,5.416666667,1464,0.391267155,5,BOI,-,-,Please name all of the ways you could use this object. Keep in mind that one object can have many uses. Separate your responses with a comma.,NA,y,27216,NA,NA,19525,22797,NA,NA,NA,"art, decor, ",1
59e8f20262637600014a7e75,9hcf8z3l2c,Affordance Norms_Prolific,1,36,2023-07-27T21:10:11+00:00,19.62517786,1,updated stim.csv,Version1.csv,Version 1,List 1,asshole,NA,29,5.88,1967,0.018459114,30,BOI,-,-,Please name all of the ways you could use this object. Keep in mind that one object can have many uses. Separate your responses with a comma.,NA,y,19239,NA,NA,12019,13146,NA,NA,NA,"fun,",1
59e8f20262637600014a7e75,9hcf8z3l2c,Affordance Norms_Prolific,1,37,2023-07-27T21:10:43+00:00,32.69451499,1,updated stim.csv,Version1.csv,Version 1,List 1,munitions,NA,9,4.875,2448,0.423270691,10,BOI,-,-,Please name all of the ways you could use this object. Keep in mind that one object can have many uses. Separate your responses with a comma.,NA,y,32314,NA,NA,17861,31115,NA,NA,NA,"art, creative, decor, darts",1
59e8f20262637600014a7e75,9hcf8z3l2c,Affordance Norms_Prolific,1,38,2023-07-27T21:11:13+00:00,29.30446696,1,updated stim.csv,Version1.csv,Version 1,List 1,capacitor,NA,3,5.76,1666,0.330502966,4,BOI,-,-,Please name all of the ways you could use this object. Keep in mind that one object can have many uses. Separate your responses with a comma.,NA,y,28897,NA,NA,26011,28042,NA,NA,NA,display,1
59e8f20262637600014a7e75,9hcf8z3l2c,Affordance Norms_Prolific,1,39,2023-07-27T21:11:39+00:00,26.39511418,1,updated stim.csv,Version1.csv,Version 1,List 1,tar,NA,11,5.92,2708,0.629763414,12,BOI,-,-,Please name all of the ways you could use this object. Keep in mind that one object can have many uses. Separate your responses with a comma.,NA,y,25929,NA,NA,3370,24537,NA,NA,NA,"path, hide something",1
59e8f20262637600014a7e75,9hcf8z3l2c,Affordance Norms_Prolific,1,40,2023-07-27T21:12:06+00:00,27.47353983,1,updated stim.csv,Version1.csv,Version 1,List 1,boy,NA,10,6.25,323,0.73335018,11,BOI,-,-,Please name all of the ways you could use this object. Keep in mind that one object can have many uses. Separate your responses with a comma.,NA,y,27086,NA,NA,19246,21997,NA,NA,NA,"help, clean, ",1
5a847fd2aa46dd00016ba03c,4oh4aj46l8,Affordance Norms_Prolific,1,11,2023-07-27T20:57:32+00:00,15.90048194,1,updated stim.csv,Version1.csv,Version 1,List 1,receptacle,NA,5,5.833333333,1647,0.48521541,6,BOI,-,-,Please name all of the ways you could use this object. Keep in mind that one object can have many uses. Separate your responses with a comma.,NA,y,14954,NA,NA,-1,-1,NA,NA,NA,Dont know,1
5a847fd2aa46dd00016ba03c,4oh4aj46l8,Affordance Norms_Prolific,1,12,2023-07-27T20:57:45+00:00,12.89134312,1,updated stim.csv,Version1.csv,Version 1,List 1,fauna,NA,25,4.333333333,252,0.347548191,26,BOI,-,-,Please name all of the ways you could use this object. Keep in mind that one object can have many uses. Separate your responses with a comma.,NA,y,11973,NA,NA,-1,-1,NA,NA,NA,Dont know,1
5a847fd2aa46dd00016ba03c,4oh4aj46l8,Affordance Norms_Prolific,1,13,2023-07-27T20:57:57+00:00,11.91935992,1,updated stim.csv,Version1.csv,Version 1,List 1,waistcoat,NA,19,5.227272727,1241,0.629851612,20,BOI,-,-,Please name all of the ways you could use this object. Keep in mind that one object can have many uses. Separate your responses with a comma.,NA,y,11035,NA,NA,-1,-1,NA,NA,NA,"Wear, zip, fold, wash",1
5a847fd2aa46dd00016ba03c,4oh4aj46l8,Affordance Norms_Prolific,1,14,2023-07-27T20:58:12+00:00,15.55975509,1,updated stim.csv,Version1.csv,Version 1,List 1,asshole,NA,29,5.88,1967,0.018459114,30,BOI,-,-,Please name all of the ways you could use this object. Keep in mind that one object can have many uses. Separate your responses with a comma.,NA,y,14694,NA,NA,-1,-1,NA,NA,NA,Wipe,1
5a847fd2aa46dd00016ba03c,4oh4aj46l8,Affordance Norms_Prolific,1,15,2023-07-27T20:58:23+00:00,11.12887287,1,updated stim.csv,Version1.csv,Version 1,List 1,cashmere,NA,23,4.84,1448,0.448711971,24,BOI,-,-,Please name all of the ways you could use this object. Keep in mind that one object can have many uses. Separate your responses with a comma.,NA,y,10176,NA,NA,-1,-1,NA,NA,NA,"Wear, fold,",1
5a847fd2aa46dd00016ba03c,4oh4aj46l8,Affordance Norms_Prolific,1,16,2023-07-27T20:58:36+00:00,12.81849313,1,updated stim.csv,Version1.csv,Version 1,List 1,musket,NA,14,4.958333333,2722,0.368202979,15,BOI,-,-,Please name all of the ways you could use this object. Keep in mind that one object can have many uses. Separate your responses with a comma.,NA,y,11895,NA,NA,-1,-1,NA,NA,NA,"Wear, clothe",1
5a847fd2aa46dd00016ba03c,4oh4aj46l8,Affordance Norms_Prolific,1,17,2023-07-27T20:59:08+00:00,31.71029401,1,updated stim.csv,Version1.csv,Version 1,List 1,boy,NA,10,6.25,323,0.73335018,11,BOI,-,-,Please name all of the ways you could use this object. Keep in mind that one object can have many uses. Separate your responses with a comma.,NA,y,30813,NA,NA,-1,-1,NA,NA,NA,"Walk, feed, take care of",1
5a847fd2aa46dd00016ba03c,4oh4aj46l8,Affordance Norms_Prolific,1,18,2023-07-27T20:59:15+00:00,7.606027842,1,updated stim.csv,Version1.csv,Version 1,List 1,spool,NA,30,5.64,2491,0.148115672,31,BOI,-,-,Please name all of the ways you could use this object. Keep in mind that one object can have many uses. Separate your responses with a comma.,NA,y,6597,NA,NA,-1,-1,NA,NA,NA,Dont know,1
5a847fd2aa46dd00016ba03c,4oh4aj46l8,Affordance Norms_Prolific,1,19,2023-07-27T20:59:21+00:00,5.91881299,1,updated stim.csv,Version1.csv,Version 1,List 1,gourd,NA,20,5.458333333,2953,0.249710528,21,BOI,-,-,Please name all of the ways you could use this object. Keep in mind that one object can have many uses. Separate your responses with a comma.,NA,y,5025,NA,NA,-1,-1,NA,NA,NA,Dont know,1
5a847fd2aa46dd00016ba03c,4oh4aj46l8,Affordance Norms_Prolific,1,20,2023-07-27T20:59:40+00:00,18.89759111,1,updated stim.csv,Version1.csv,Version 1,List 1,tar,NA,11,5.92,2708,0.629763414,12,BOI,-,-,Please name all of the ways you could use this object. Keep in mind that one object can have many uses. Separate your responses with a comma.,NA,y,17972,NA,NA,-1,-1,NA,NA,NA,"Put down, prepare",1
5a847fd2aa46dd00016ba03c,4oh4aj46l8,Affordance Norms_Prolific,1,21,2023-07-27T20:59:47+00:00,6.818359852,1,updated stim.csv,Version1.csv,Version 1,List 1,kiln,NA,7,6.230769231,308,0.981109369,8,BOI,-,-,Please name all of the ways you could use this object. Keep in mind that one object can have many uses. Separate your responses with a comma.,NA,y,5887,NA,NA,-1,-1,NA,NA,NA,Wear,1
5a847fd2aa46dd00016ba03c,4oh4aj46l8,Affordance Norms_Prolific,1,22,2023-07-27T20:59:55+00:00,8.350564003,1,updated stim.csv,Version1.csv,Version 1,List 1,stirrup,NA,27,5.434782609,1877,0.096670334,28,BOI,-,-,Please name all of the ways you could use this object. Keep in mind that one object can have many uses. Separate your responses with a comma.,NA,y,7477,NA,NA,-1,-1,NA,NA,NA,Not sure,1
5a847fd2aa46dd00016ba03c,4oh4aj46l8,Affordance Norms_Prolific,1,23,2023-07-27T21:00:06+00:00,10.24823999,1,updated stim.csv,Version1.csv,Version 1,List 1,sod,NA,6,4.375,1389,0.172930083,7,BOI,-,-,Please name all of the ways you could use this object. Keep in mind that one object can have many uses. Separate your responses with a comma.,NA,y,9497,NA,NA,-1,-1,NA,NA,NA,Dont know,1
5a847fd2aa46dd00016ba03c,4oh4aj46l8,Affordance Norms_Prolific,1,24,2023-07-27T21:00:14+00:00,8.13361907,1,updated stim.csv,Version1.csv,Version 1,List 1,hookah,NA,2,6.416666667,2301,0.945985105,3,BOI,-,-,Please name all of the ways you could use this object. Keep in mind that one object can have many uses. Separate your responses with a comma.,NA,y,7274,NA,NA,-1,-1,NA,NA,NA,"Smoke, roll",1
5a847fd2aa46dd00016ba03c,4oh4aj46l8,Affordance Norms_Prolific,1,25,2023-07-27T21:00:30+00:00,16.42118406,1,updated stim.csv,Version1.csv,Version 1,List 1,upholstery,NA,28,5.142857143,2618,0.332046282,29,BOI,-,-,Please name all of the ways you could use this object. Keep in mind that one object can have many uses. Separate your responses with a comma.,NA,y,15510,NA,NA,-1,-1,NA,NA,NA,"Wash, make",1
5a847fd2aa46dd00016ba03c,4oh4aj46l8,Affordance Norms_Prolific,1,26,2023-07-27T21:00:34+00:00,3.574714899,1,updated stim.csv,Version1.csv,Version 1,List 1,dipstick,NA,22,4.826086957,1618,0.113902737,23,BOI,-,-,Please name all of the ways you could use this object. Keep in mind that one object can have many uses. Separate your responses with a comma.,NA,y,3103,NA,NA,-1,-1,NA,NA,NA,No,1
5a847fd2aa46dd00016ba03c,4oh4aj46l8,Affordance Norms_Prolific,1,27,2023-07-27T21:00:43+00:00,9.048156977,1,updated stim.csv,Version1.csv,Version 1,List 1,medal,NA,13,4.444444444,1011,0.860315666,14,BOI,-,-,Please name all of the ways you could use this object. Keep in mind that one object can have many uses. Separate your responses with a comma.,NA,y,8191,NA,NA,-1,-1,NA,NA,NA,"Wear, celebrate",1
5a847fd2aa46dd00016ba03c,4oh4aj46l8,Affordance Norms_Prolific,1,28,2023-07-27T21:00:46+00:00,3.365846157,1,updated stim.csv,Version1.csv,Version 1,List 1,kumquat,NA,1,4.538461538,764,0.261476603,2,BOI,-,-,Please name all of the ways you could use this object. Keep in mind that one object can have many uses. Separate your responses with a comma.,NA,y,2879,NA,NA,-1,-1,NA,NA,NA,No,1
5a847fd2aa46dd00016ba03c,4oh4aj46l8,Affordance Norms_Prolific,1,29,2023-07-27T21:00:57+00:00,11.12909889,1,updated stim.csv,Version1.csv,Version 1,List 1,aunt,NA,21,4.4,243,0.879020377,22,BOI,-,-,Please name all of the ways you could use this object. Keep in mind that one object can have many uses. Separate your responses with a comma.,NA,y,10300,NA,NA,-1,-1,NA,NA,NA,Guide,1
5a847fd2aa46dd00016ba03c,4oh4aj46l8,Affordance Norms_Prolific,1,30,2023-07-27T21:01:02+00:00,4.477055073,1,updated stim.csv,Version1.csv,Version 1,List 1,capacitor,NA,3,5.76,1666,0.330502966,4,BOI,-,-,Please name all of the ways you could use this object. Keep in mind that one object can have many uses. Separate your responses with a comma.,NA,y,3947,NA,NA,-1,-1,NA,NA,NA,Wear,1
5a847fd2aa46dd00016ba03c,4oh4aj46l8,Affordance Norms_Prolific,1,31,2023-07-27T21:01:11+00:00,8.841202974,1,updated stim.csv,Version1.csv,Version 1,List 1,hailstone,NA,16,5.565217391,1319,0.287274537,17,BOI,-,-,Please name all of the ways you could use this object. Keep in mind that one object can have many uses. Separate your responses with a comma.,NA,y,7944,NA,NA,-1,-1,NA,NA,NA,Not sure,1
5a847fd2aa46dd00016ba03c,4oh4aj46l8,Affordance Norms_Prolific,1,32,2023-07-27T21:01:27+00:00,15.836483,1,updated stim.csv,Version1.csv,Version 1,List 1,straightedge,NA,15,4.666666667,1168,0.129741388,16,BOI,-,-,Please name all of the ways you could use this object. Keep in mind that one object can have many uses. Separate your responses with a comma.,NA,y,14932,NA,NA,-1,-1,NA,NA,NA,Measure,1
5a847fd2aa46dd00016ba03c,4oh4aj46l8,Affordance Norms_Prolific,1,33,2023-07-27T21:01:35+00:00,8.630505085,1,updated stim.csv,Version1.csv,Version 1,List 1,tapioca,NA,18,4.666666667,1815,0.413937663,19,BOI,-,-,Please name all of the ways you could use this object. Keep in mind that one object can have many uses. Separate your responses with a comma.,NA,y,7631,NA,NA,-1,-1,NA,NA,NA,"Eat, cook",1
5a847fd2aa46dd00016ba03c,4oh4aj46l8,Affordance Norms_Prolific,1,34,2023-07-27T21:01:48+00:00,12.83395791,1,updated stim.csv,Version1.csv,Version 1,List 1,packet,NA,26,4.727272727,2510,0.797812576,27,BOI,-,-,Please name all of the ways you could use this object. Keep in mind that one object can have many uses. Separate your responses with a comma.,NA,y,11907,NA,NA,-1,-1,NA,NA,NA,"Open, rip, tear, fold",1
5a847fd2aa46dd00016ba03c,4oh4aj46l8,Affordance Norms_Prolific,1,35,2023-07-27T21:01:53+00:00,4.907117128,1,updated stim.csv,Version1.csv,Version 1,List 1,munitions,NA,9,4.875,2448,0.423270691,10,BOI,-,-,Please name all of the ways you could use this object. Keep in mind that one object can have many uses. Separate your responses with a comma.,NA,y,4424,NA,NA,-1,-1,NA,NA,NA,Not sure,1
5a847fd2aa46dd00016ba03c,4oh4aj46l8,Affordance Norms_Prolific,1,36,2023-07-27T21:02:01+00:00,8.32750988,1,updated stim.csv,Version1.csv,Version 1,List 1,juror,NA,17,5.481481481,1600,0.476399064,18,BOI,-,-,Please name all of the ways you could use this object. Keep in mind that one object can have many uses. Separate your responses with a comma.,NA,y,7515,NA,NA,-1,-1,NA,NA,NA,N,1
5a847fd2aa46dd00016ba03c,4oh4aj46l8,Affordance Norms_Prolific,1,37,2023-07-27T21:02:14+00:00,12.33698297,1,updated stim.csv,Version1.csv,Version 1,List 1,gasket,NA,4,5.416666667,1464,0.391267155,5,BOI,-,-,Please name all of the ways you could use this object. Keep in mind that one object can have many uses. Separate your responses with a comma.,NA,y,11392,NA,NA,-1,-1,NA,NA,NA,Mend,1
5a847fd2aa46dd00016ba03c,4oh4aj46l8,Affordance Norms_Prolific,1,38,2023-07-27T21:02:27+00:00,13.06276608,1,updated stim.csv,Version1.csv,Version 1,List 1,jaguar,NA,12,5.777777778,2235,0.168486135,13,BOI,-,-,Please name all of the ways you could use this object. Keep in mind that one object can have many uses. Separate your responses with a comma.,NA,y,12217,NA,NA,-1,-1,NA,NA,NA,Ride,1
5a847fd2aa46dd00016ba03c,4oh4aj46l8,Affordance Norms_Prolific,1,39,2023-07-27T21:02:38+00:00,11.29363298,1,updated stim.csv,Version1.csv,Version 1,List 1,crossbar,NA,8,5.454545455,1935,0.125396232,9,BOI,-,-,Please name all of the ways you could use this object. Keep in mind that one object can have many uses. Separate your responses with a comma.,NA,y,10345,NA,NA,-1,-1,NA,NA,NA,"Mend, hold",1
5a847fd2aa46dd00016ba03c,4oh4aj46l8,Affordance Norms_Prolific,1,40,2023-07-27T21:02:50+00:00,12.17152309,1,updated stim.csv,Version1.csv,Version 1,List 1,decor,NA,24,5.347826087,469,0.48837589,25,BOI,-,-,Please name all of the ways you could use this object. Keep in mind that one object can have many uses. Separate your responses with a comma.,NA,y,11296,NA,NA,-1,-1,NA,NA,NA,"Decorate, prepare",1
5d696d1c55742f001af29220,tf0857vqbq,Affordance Norms_Prolific,1,11,2023-07-27T20:57:28+00:00,15.36951208,1,updated stim.csv,Version1.csv,Version 1,List 1,packet,NA,26,4.727272727,2510,0.797812576,27,BOI,-,-,Please name all of the ways you could use this object. Keep in mind that one object can have many uses. Separate your responses with a comma.,NA,y,14962,NA,NA,1591,14173,NA,NA,NA,"to store something, to keep something safe, to carry an object in",1
5d696d1c55742f001af29220,tf0857vqbq,Affordance Norms_Prolific,1,12,2023-07-27T20:57:47+00:00,19.03772497,1,updated stim.csv,Version1.csv,Version 1,List 1,stirrup,NA,27,5.434782609,1877,0.096670334,28,BOI,-,-,Please name all of the ways you could use this object. Keep in mind that one object can have many uses. Separate your responses with a comma.,NA,y,18590,NA,NA,1475,8822,NA,NA,NA,"to mount onto a horse, to pull yourself up",0.559
5d696d1c55742f001af29220,tf0857vqbq,Affordance Norms_Prolific,1,13,2023-07-27T20:58:01+00:00,13.68141913,1,updated stim.csv,Version1.csv,Version 1,List 1,boy,NA,10,6.25,323,0.73335018,11,BOI,-,-,Please name all of the ways you could use this object. Keep in mind that one object can have many uses. Separate your responses with a comma.,NA,y,11569,NA,NA,4945,11185,NA,NA,NA,"to have as a friend, to have a relationship with",1
5d696d1c55742f001af29220,tf0857vqbq,Affordance Norms_Prolific,1,14,2023-07-27T20:58:35+00:00,34.41276383,1,updated stim.csv,Version1.csv,Version 1,List 1,fauna,NA,25,4.333333333,252,0.347548191,26,BOI,-,-,Please name all of the ways you could use this object. Keep in mind that one object can have many uses. Separate your responses with a comma.,NA,y,33960,NA,NA,20096,33546,NA,NA,NA,"food, to make clothing with, to use in medicine",1
5d696d1c55742f001af29220,tf0857vqbq,Affordance Norms_Prolific,1,15,2023-07-27T20:59:00+00:00,25.11072206,1,updated stim.csv,Version1.csv,Version 1,List 1,waistcoat,NA,19,5.227272727,1241,0.629851612,20,BOI,-,-,Please name all of the ways you could use this object. Keep in mind that one object can have many uses. Separate your responses with a comma.,NA,y,24152,NA,NA,16648,23840,NA,NA,NA,to wear in a formal occassion,1
5d696d1c55742f001af29220,tf0857vqbq,Affordance Norms_Prolific,1,16,2023-07-27T20:59:12+00:00,12.2944839,1,updated stim.csv,Version1.csv,Version 1,List 1,aunt,NA,21,4.4,243,0.879020377,22,BOI,-,-,Please name all of the ways you could use this object. Keep in mind that one object can have many uses. Separate your responses with a comma.,NA,y,11792,NA,NA,8057,11460,NA,NA,NA,"to talk to, spend time with",1
5d696d1c55742f001af29220,tf0857vqbq,Affordance Norms_Prolific,1,17,2023-07-27T20:59:42+00:00,30.05662918,1,updated stim.csv,Version1.csv,Version 1,List 1,upholstery,NA,28,5.142857143,2618,0.332046282,29,BOI,-,-,Please name all of the ways you could use this object. Keep in mind that one object can have many uses. Separate your responses with a comma.,NA,y,29491,NA,NA,21870,28480,NA,NA,NA,to cover a piece of furniture ,1
5d696d1c55742f001af29220,tf0857vqbq,Affordance Norms_Prolific,1,18,2023-07-27T20:59:59+00:00,16.27120399,1,updated stim.csv,Version1.csv,Version 1,List 1,musket,NA,14,4.958333333,2722,0.368202979,15,BOI,-,-,Please name all of the ways you could use this object. Keep in mind that one object can have many uses. Separate your responses with a comma.,NA,y,15808,NA,NA,12752,15530,NA,NA,NA,to shoot something,1
5d696d1c55742f001af29220,tf0857vqbq,Affordance Norms_Prolific,1,19,2023-07-27T21:00:23+00:00,24.06107092,1,updated stim.csv,Version1.csv,Version 1,List 1,capacitor,NA,3,5.76,1666,0.330502966,4,BOI,-,-,Please name all of the ways you could use this object. Keep in mind that one object can have many uses. Separate your responses with a comma.,NA,y,23627,NA,NA,20630,23259,NA,NA,NA,to store energy,1
5d696d1c55742f001af29220,tf0857vqbq,Affordance Norms_Prolific,1,20,2023-07-27T21:00:28+00:00,5.485790014,1,updated stim.csv,Version1.csv,Version 1,List 1,kiln,NA,7,6.230769231,308,0.981109369,8,BOI,-,-,Please name all of the ways you could use this object. Keep in mind that one object can have many uses. Separate your responses with a comma.,NA,y,4934,NA,NA,1300,4672,NA,NA,NA,for pottery,1
5d696d1c55742f001af29220,tf0857vqbq,Affordance Norms_Prolific,1,21,2023-07-27T21:00:47+00:00,18.74498391,1,updated stim.csv,Version1.csv,Version 1,List 1,munitions,NA,9,4.875,2448,0.423270691,10,BOI,-,-,Please name all of the ways you could use this object. Keep in mind that one object can have many uses. Separate your responses with a comma.,NA,y,18309,NA,NA,14230,18068,NA,NA,NA,for military defence,1
5d696d1c55742f001af29220,tf0857vqbq,Affordance Norms_Prolific,1,22,2023-07-27T21:01:10+00:00,22.92162013,1,updated stim.csv,Version1.csv,Version 1,List 1,straightedge,NA,15,4.666666667,1168,0.129741388,16,BOI,-,-,Please name all of the ways you could use this object. Keep in mind that one object can have many uses. Separate your responses with a comma.,NA,y,22363,NA,NA,12651,22075,NA,NA,NA,"to check how straight something is, to draw a straight line",1
5d696d1c55742f001af29220,tf0857vqbq,Affordance Norms_Prolific,1,23,2023-07-27T21:01:32+00:00,21.68736506,1,updated stim.csv,Version1.csv,Version 1,List 1,receptacle,NA,5,5.833333333,1647,0.48521541,6,BOI,-,-,Please name all of the ways you could use this object. Keep in mind that one object can have many uses. Separate your responses with a comma.,NA,y,21182,NA,NA,18234,20811,NA,NA,NA,to power a device,1
5d696d1c55742f001af29220,tf0857vqbq,Affordance Norms_Prolific,1,24,2023-07-27T21:01:39+00:00,7.695994854,1,updated stim.csv,Version1.csv,Version 1,List 1,tapioca,NA,18,4.666666667,1815,0.413937663,19,BOI,-,-,Please name all of the ways you could use this object. Keep in mind that one object can have many uses. Separate your responses with a comma.,NA,y,5298,NA,NA,3768,4433,NA,NA,NA,to eat,1
5d696d1c55742f001af29220,tf0857vqbq,Affordance Norms_Prolific,1,25,2023-07-27T21:01:47+00:00,7.765114069,1,updated stim.csv,Version1.csv,Version 1,List 1,juror,NA,17,5.481481481,1600,0.476399064,18,BOI,-,-,Please name all of the ways you could use this object. Keep in mind that one object can have many uses. Separate your responses with a comma.,NA,y,7118,NA,NA,2939,6621,NA,NA,NA,to make a decision in a case,1
5d696d1c55742f001af29220,tf0857vqbq,Affordance Norms_Prolific,1,26,2023-07-27T21:01:55+00:00,8.098115921,1,updated stim.csv,Version1.csv,Version 1,List 1,crossbar,NA,8,5.454545455,1935,0.125396232,9,BOI,-,-,Please name all of the ways you could use this object. Keep in mind that one object can have many uses. Separate your responses with a comma.,NA,y,7684,NA,NA,4206,7408,NA,NA,NA,for playing sports,1
5d696d1c55742f001af29220,tf0857vqbq,Affordance Norms_Prolific,1,27,2023-07-27T21:02:22+00:00,27.26599717,1,updated stim.csv,Version1.csv,Version 1,List 1,spool,NA,30,5.64,2491,0.148115672,31,BOI,-,-,Please name all of the ways you could use this object. Keep in mind that one object can have many uses. Separate your responses with a comma.,NA,y,26776,NA,NA,22823,25793,NA,NA,NA,to hold thread,1
5d696d1c55742f001af29220,tf0857vqbq,Affordance Norms_Prolific,1,28,2023-07-27T21:02:28+00:00,6.049747944,1,updated stim.csv,Version1.csv,Version 1,List 1,dipstick,NA,22,4.826086957,1618,0.113902737,23,BOI,-,-,Please name all of the ways you could use this object. Keep in mind that one object can have many uses. Separate your responses with a comma.,NA,y,5568,NA,NA,1570,4708,NA,NA,NA,to check oil levels ,1
5d696d1c55742f001af29220,tf0857vqbq,Affordance Norms_Prolific,1,29,2023-07-27T21:02:37+00:00,8.955399036,1,updated stim.csv,Version1.csv,Version 1,List 1,cashmere,NA,23,4.84,1448,0.448711971,24,BOI,-,-,Please name all of the ways you could use this object. Keep in mind that one object can have many uses. Separate your responses with a comma.,NA,y,8529,NA,NA,1159,8116,NA,NA,NA,to make a clothes,1
5d696d1c55742f001af29220,tf0857vqbq,Affordance Norms_Prolific,1,30,2023-07-27T21:02:49+00:00,11.83931589,1,updated stim.csv,Version1.csv,Version 1,List 1,hookah,NA,2,6.416666667,2301,0.945985105,3,BOI,-,-,Please name all of the ways you could use this object. Keep in mind that one object can have many uses. Separate your responses with a comma.,NA,y,11383,NA,NA,10291,11176,NA,NA,NA,to smoke,1
5d696d1c55742f001af29220,tf0857vqbq,Affordance Norms_Prolific,1,31,2023-07-27T21:03:06+00:00,17.05443907,1,updated stim.csv,Version1.csv,Version 1,List 1,sod,NA,6,4.375,1389,0.172930083,7,BOI,-,-,Please name all of the ways you could use this object. Keep in mind that one object can have many uses. Separate your responses with a comma.,NA,y,16565,NA,NA,8970,16238,NA,NA,NA,"to play sports, for gardening",1
5d696d1c55742f001af29220,tf0857vqbq,Affordance Norms_Prolific,1,32,2023-07-27T21:03:26+00:00,19.74984503,1,updated stim.csv,Version1.csv,Version 1,List 1,gasket,NA,4,5.416666667,1464,0.391267155,5,BOI,-,-,Please name all of the ways you could use this object. Keep in mind that one object can have many uses. Separate your responses with a comma.,NA,y,19270,NA,NA,16789,18962,NA,NA,NA,to seal something,1
5d696d1c55742f001af29220,tf0857vqbq,Affordance Norms_Prolific,1,33,2023-07-27T21:03:44+00:00,18.29366183,1,updated stim.csv,Version1.csv,Version 1,List 1,medal,NA,13,4.444444444,1011,0.860315666,14,BOI,-,-,Please name all of the ways you could use this object. Keep in mind that one object can have many uses. Separate your responses with a comma.,NA,y,17815,NA,NA,1483,17554,NA,NA,NA,"in a competition, to reward someone",1
5d696d1c55742f001af29220,tf0857vqbq,Affordance Norms_Prolific,1,34,2023-07-27T21:03:58+00:00,13.75484014,1,updated stim.csv,Version1.csv,Version 1,List 1,kumquat,NA,1,4.538461538,764,0.261476603,2,BOI,-,-,Please name all of the ways you could use this object. Keep in mind that one object can have many uses. Separate your responses with a comma.,NA,y,13142,NA,NA,12176,12795,NA,NA,NA,to eat,1
5d696d1c55742f001af29220,tf0857vqbq,Affordance Norms_Prolific,1,35,2023-07-27T21:04:10+00:00,11.479249,1,updated stim.csv,Version1.csv,Version 1,List 1,decor,NA,24,5.347826087,469,0.48837589,25,BOI,-,-,Please name all of the ways you could use this object. Keep in mind that one object can have many uses. Separate your responses with a comma.,NA,y,11041,NA,NA,3503,10738,NA,NA,NA,"to decorate a room, for interior design",1
5d696d1c55742f001af29220,tf0857vqbq,Affordance Norms_Prolific,1,36,2023-07-27T21:04:15+00:00,4.979137897,1,updated stim.csv,Version1.csv,Version 1,List 1,tar,NA,11,5.92,2708,0.629763414,12,BOI,-,-,Please name all of the ways you could use this object. Keep in mind that one object can have many uses. Separate your responses with a comma.,NA,y,4554,NA,NA,1531,4401,NA,NA,NA,for a road,1
5d696d1c55742f001af29220,tf0857vqbq,Affordance Norms_Prolific,1,37,2023-07-27T21:04:32+00:00,17.34239411,1,updated stim.csv,Version1.csv,Version 1,List 1,hailstone,NA,16,5.565217391,1319,0.287274537,17,BOI,-,-,Please name all of the ways you could use this object. Keep in mind that one object can have many uses. Separate your responses with a comma.,NA,y,16814,NA,NA,13965,16460,NA,NA,NA,replenish water ,1
5d696d1c55742f001af29220,tf0857vqbq,Affordance Norms_Prolific,1,38,2023-07-27T21:04:50+00:00,18.30201983,1,updated stim.csv,Version1.csv,Version 1,List 1,jaguar,NA,12,5.777777778,2235,0.168486135,13,BOI,-,-,Please name all of the ways you could use this object. Keep in mind that one object can have many uses. Separate your responses with a comma.,NA,y,17738,NA,NA,13809,17369,NA,NA,NA,protect ecosystem,1
5d696d1c55742f001af29220,tf0857vqbq,Affordance Norms_Prolific,1,39,2023-07-27T21:05:03+00:00,12.36026311,1,updated stim.csv,Version1.csv,Version 1,List 1,asshole,NA,29,5.88,1967,0.018459114,30,BOI,-,-,Please name all of the ways you could use this object. Keep in mind that one object can have many uses. Separate your responses with a comma.,NA,y,11774,NA,NA,4235,8504,NA,NA,NA,excretion ,1
5d696d1c55742f001af29220,tf0857vqbq,Affordance Norms_Prolific,1,40,2023-07-27T21:05:14+00:00,11.01922798,1,updated stim.csv,Version1.csv,Version 1,List 1,gourd,NA,20,5.458333333,2953,0.249710528,21,BOI,-,-,Please name all of the ways you could use this object. Keep in mind that one object can have many uses. Separate your responses with a comma.,NA,y,10330,NA,NA,7599,10098,NA,NA,NA,"to eat, for cooking",1
5e36be214de4516479b48f31,ueaquuo4sj,Affordance Norms_Prolific,1,11,2023-07-27T20:55:33+00:00,8.570235968,1,updated stim.csv,Version1.csv,Version 1,List 1,dipstick,NA,22,4.826086957,1618,0.113902737,23,BOI,-,-,Please name all of the ways you could use this object. Keep in mind that one object can have many uses. Separate your responses with a comma.,NA,y,7894,NA,NA,2987,5428,NA,NA,NA,measure,1
5e36be214de4516479b48f31,ueaquuo4sj,Affordance Norms_Prolific,1,12,2023-07-27T20:55:39+00:00,6.235911846,1,updated stim.csv,Version1.csv,Version 1,List 1,sod,NA,6,4.375,1389,0.172930083,7,BOI,-,-,Please name all of the ways you could use this object. Keep in mind that one object can have many uses. Separate your responses with a comma.,NA,y,5534,NA,NA,2363,4749,NA,NA,NA,"dirt,mow,farm",1
5e36be214de4516479b48f31,ueaquuo4sj,Affordance Norms_Prolific,1,13,2023-07-27T20:55:46+00:00,6.949587107,1,updated stim.csv,Version1.csv,Version 1,List 1,tar,NA,11,5.92,2708,0.629763414,12,BOI,-,-,Please name all of the ways you could use this object. Keep in mind that one object can have many uses. Separate your responses with a comma.,NA,y,6230,NA,NA,1233,5396,NA,NA,NA,"road, tobacco",1
5e36be214de4516479b48f31,ueaquuo4sj,Affordance Norms_Prolific,1,14,2023-07-27T20:55:50+00:00,4.53274703,1,updated stim.csv,Version1.csv,Version 1,List 1,munitions,NA,9,4.875,2448,0.423270691,10,BOI,-,-,Please name all of the ways you could use this object. Keep in mind that one object can have many uses. Separate your responses with a comma.,NA,y,4103,NA,NA,1648,3976,NA,NA,NA,"fire,shoot,kill",1
5e36be214de4516479b48f31,ueaquuo4sj,Affordance Norms_Prolific,1,15,2023-07-27T20:55:57+00:00,6.794865847,1,updated stim.csv,Version1.csv,Version 1,List 1,straightedge,NA,15,4.666666667,1168,0.129741388,16,BOI,-,-,Please name all of the ways you could use this object. Keep in mind that one object can have many uses. Separate your responses with a comma.,NA,y,6020,NA,NA,5410,5931,NA,NA,NA,defined,1
5e36be214de4516479b48f31,ueaquuo4sj,Affordance Norms_Prolific,1,16,2023-07-27T20:56:07+00:00,9.500004053,1,updated stim.csv,Version1.csv,Version 1,List 1,upholstery,NA,28,5.142857143,2618,0.332046282,29,BOI,-,-,Please name all of the ways you could use this object. Keep in mind that one object can have many uses. Separate your responses with a comma.,NA,y,6910,NA,NA,1533,6813,NA,NA,NA,"seat,car,interior",1
5e36be214de4516479b48f31,ueaquuo4sj,Affordance Norms_Prolific,1,17,2023-07-27T20:56:11+00:00,4.547135115,1,updated stim.csv,Version1.csv,Version 1,List 1,stirrup,NA,27,5.434782609,1877,0.096670334,28,BOI,-,-,Please name all of the ways you could use this object. Keep in mind that one object can have many uses. Separate your responses with a comma.,NA,y,4067,NA,NA,1549,3889,NA,NA,NA,"horse,ride,gallop",1
5e36be214de4516479b48f31,ueaquuo4sj,Affordance Norms_Prolific,1,18,2023-07-27T20:56:15+00:00,4.042026043,1,updated stim.csv,Version1.csv,Version 1,List 1,asshole,NA,29,5.88,1967,0.018459114,30,BOI,-,-,Please name all of the ways you could use this object. Keep in mind that one object can have many uses. Separate your responses with a comma.,NA,y,3593,NA,NA,1694,3514,NA,NA,NA,"poo,dickhead",1
5e36be214de4516479b48f31,ueaquuo4sj,Affordance Norms_Prolific,1,19,2023-07-27T20:56:22+00:00,6.458214998,1,updated stim.csv,Version1.csv,Version 1,List 1,tapioca,NA,18,4.666666667,1815,0.413937663,19,BOI,-,-,Please name all of the ways you could use this object. Keep in mind that one object can have many uses. Separate your responses with a comma.,NA,y,5807,NA,NA,2886,5722,NA,NA,NA,im not sure what this means sorry,1
5e36be214de4516479b48f31,ueaquuo4sj,Affordance Norms_Prolific,1,20,2023-07-27T20:56:46+00:00,24.42839193,1,updated stim.csv,Version1.csv,Version 1,List 1,waistcoat,NA,19,5.227272727,1241,0.629851612,20,BOI,-,-,Please name all of the ways you could use this object. Keep in mind that one object can have many uses. Separate your responses with a comma.,NA,y,23562,NA,NA,1185,23398,NA,NA,NA,"wear, smart, formal",0.778
5e36be214de4516479b48f31,ueaquuo4sj,Affordance Norms_Prolific,1,21,2023-07-27T20:56:52+00:00,5.653508902,1,updated stim.csv,Version1.csv,Version 1,List 1,musket,NA,14,4.958333333,2722,0.368202979,15,BOI,-,-,Please name all of the ways you could use this object. Keep in mind that one object can have many uses. Separate your responses with a comma.,NA,y,5015,NA,NA,2112,4910,NA,NA,NA,"shoot, fire, colony",1
5e36be214de4516479b48f31,ueaquuo4sj,Affordance Norms_Prolific,1,22,2023-07-27T20:57:07+00:00,15.27456594,1,updated stim.csv,Version1.csv,Version 1,List 1,decor,NA,24,5.347826087,469,0.48837589,25,BOI,-,-,Please name all of the ways you could use this object. Keep in mind that one object can have many uses. Separate your responses with a comma.,NA,y,14664,NA,NA,14115,14608,NA,NA,NA,style,0.814
5e36be214de4516479b48f31,ueaquuo4sj,Affordance Norms_Prolific,1,23,2023-07-27T20:57:12+00:00,4.478413105,1,updated stim.csv,Version1.csv,Version 1,List 1,hailstone,NA,16,5.565217391,1319,0.287274537,17,BOI,-,-,Please name all of the ways you could use this object. Keep in mind that one object can have many uses. Separate your responses with a comma.,NA,y,4112,NA,NA,2568,4075,NA,NA,NA,"rain, weather",1
5e36be214de4516479b48f31,ueaquuo4sj,Affordance Norms_Prolific,1,24,2023-07-27T20:57:17+00:00,5.712781906,1,updated stim.csv,Version1.csv,Version 1,List 1,capacitor,NA,3,5.76,1666,0.330502966,4,BOI,-,-,Please name all of the ways you could use this object. Keep in mind that one object can have many uses. Separate your responses with a comma.,NA,y,5086,NA,NA,3110,4981,NA,NA,NA,"allow, permit",1
5e36be214de4516479b48f31,ueaquuo4sj,Affordance Norms_Prolific,1,25,2023-07-27T20:57:21+00:00,4.121801138,1,updated stim.csv,Version1.csv,Version 1,List 1,kiln,NA,7,6.230769231,308,0.981109369,8,BOI,-,-,Please name all of the ways you could use this object. Keep in mind that one object can have many uses. Separate your responses with a comma.,NA,y,3740,NA,NA,1105,3688,NA,NA,NA,"fire, furnace",1
5e36be214de4516479b48f31,ueaquuo4sj,Affordance Norms_Prolific,1,26,2023-07-27T20:57:25+00:00,3.980881929,1,updated stim.csv,Version1.csv,Version 1,List 1,aunt,NA,21,4.4,243,0.879020377,22,BOI,-,-,Please name all of the ways you could use this object. Keep in mind that one object can have many uses. Separate your responses with a comma.,NA,y,3587,NA,NA,1516,3553,NA,NA,NA,"uncle, mothers sister",1
5e36be214de4516479b48f31,ueaquuo4sj,Affordance Norms_Prolific,1,27,2023-07-27T20:57:32+00:00,6.468727112,1,updated stim.csv,Version1.csv,Version 1,List 1,spool,NA,30,5.64,2491,0.148115672,31,BOI,-,-,Please name all of the ways you could use this object. Keep in mind that one object can have many uses. Separate your responses with a comma.,NA,y,5816,NA,NA,1829,5733,NA,NA,NA,im not sure what this means sorry,1
5e36be214de4516479b48f31,ueaquuo4sj,Affordance Norms_Prolific,1,28,2023-07-27T20:57:35+00:00,2.778363943,1,updated stim.csv,Version1.csv,Version 1,List 1,fauna,NA,25,4.333333333,252,0.347548191,26,BOI,-,-,Please name all of the ways you could use this object. Keep in mind that one object can have many uses. Separate your responses with a comma.,NA,y,2409,NA,NA,2129,2362,NA,NA,NA,sex,1
5e36be214de4516479b48f31,ueaquuo4sj,Affordance Norms_Prolific,1,29,2023-07-27T20:57:47+00:00,12.398628,1,updated stim.csv,Version1.csv,Version 1,List 1,packet,NA,26,4.727272727,2510,0.797812576,27,BOI,-,-,Please name all of the ways you could use this object. Keep in mind that one object can have many uses. Separate your responses with a comma.,NA,y,11674,NA,NA,2801,11578,NA,NA,NA,"store, transport, cocaine",0.949
5e36be214de4516479b48f31,ueaquuo4sj,Affordance Norms_Prolific,1,30,2023-07-27T20:57:53+00:00,5.900060892,1,updated stim.csv,Version1.csv,Version 1,List 1,gourd,NA,20,5.458333333,2953,0.249710528,21,BOI,-,-,Please name all of the ways you could use this object. Keep in mind that one object can have many uses. Separate your responses with a comma.,NA,y,4777,NA,NA,3943,4717,NA,NA,NA,courgette,1
5e36be214de4516479b48f31,ueaquuo4sj,Affordance Norms_Prolific,1,31,2023-07-27T20:58:00+00:00,6.702294111,1,updated stim.csv,Version1.csv,Version 1,List 1,kumquat,NA,1,4.538461538,764,0.261476603,2,BOI,-,-,Please name all of the ways you could use this object. Keep in mind that one object can have many uses. Separate your responses with a comma.,NA,y,5969,NA,NA,1843,5875,NA,NA,NA,"fruit, vegetable, eat",1
5e36be214de4516479b48f31,ueaquuo4sj,Affordance Norms_Prolific,1,32,2023-07-27T20:58:06+00:00,6.289525032,1,updated stim.csv,Version1.csv,Version 1,List 1,jaguar,NA,12,5.777777778,2235,0.168486135,13,BOI,-,-,Please name all of the ways you could use this object. Keep in mind that one object can have many uses. Separate your responses with a comma.,NA,y,5663,NA,NA,2131,5624,NA,NA,NA,"run, savannah, africa",1
5e36be214de4516479b48f31,ueaquuo4sj,Affordance Norms_Prolific,1,33,2023-07-27T20:58:17+00:00,11.41451502,1,updated stim.csv,Version1.csv,Version 1,List 1,receptacle,NA,5,5.833333333,1647,0.48521541,6,BOI,-,-,Please name all of the ways you could use this object. Keep in mind that one object can have many uses. Separate your responses with a comma.,NA,y,10804,NA,NA,7266,10708,NA,NA,NA,"toilet, storage room",1
5e36be214de4516479b48f31,ueaquuo4sj,Affordance Norms_Prolific,1,34,2023-07-27T20:58:22+00:00,4.31090498,1,updated stim.csv,Version1.csv,Version 1,List 1,gasket,NA,4,5.416666667,1464,0.391267155,5,BOI,-,-,Please name all of the ways you could use this object. Keep in mind that one object can have many uses. Separate your responses with a comma.,NA,y,3964,NA,NA,3440,3818,NA,NA,NA,piston,1
5e36be214de4516479b48f31,ueaquuo4sj,Affordance Norms_Prolific,1,35,2023-07-27T20:58:31+00:00,9.046545029,1,updated stim.csv,Version1.csv,Version 1,List 1,crossbar,NA,8,5.454545455,1935,0.125396232,9,BOI,-,-,Please name all of the ways you could use this object. Keep in mind that one object can have many uses. Separate your responses with a comma.,NA,y,8426,NA,NA,1092,8314,NA,NA,NA,"football, rugby, goalpoasts",1
5e36be214de4516479b48f31,ueaquuo4sj,Affordance Norms_Prolific,1,36,2023-07-27T20:58:39+00:00,8.198293924,1,updated stim.csv,Version1.csv,Version 1,List 1,cashmere,NA,23,4.84,1448,0.448711971,24,BOI,-,-,Please name all of the ways you could use this object. Keep in mind that one object can have many uses. Separate your responses with a comma.,NA,y,7560,NA,NA,3212,7444,NA,NA,NA,"kashmir, clothing, pakistan",1
5e36be214de4516479b48f31,ueaquuo4sj,Affordance Norms_Prolific,1,37,2023-07-27T20:58:42+00:00,3.052726984,1,updated stim.csv,Version1.csv,Version 1,List 1,boy,NA,10,6.25,323,0.73335018,11,BOI,-,-,Please name all of the ways you could use this object. Keep in mind that one object can have many uses. Separate your responses with a comma.,NA,y,2695,NA,NA,1091,2574,NA,NA,NA,"girl, man, women",1
5e36be214de4516479b48f31,ueaquuo4sj,Affordance Norms_Prolific,1,38,2023-07-27T20:58:47+00:00,4.700114965,1,updated stim.csv,Version1.csv,Version 1,List 1,medal,NA,13,4.444444444,1011,0.860315666,14,BOI,-,-,Please name all of the ways you could use this object. Keep in mind that one object can have many uses. Separate your responses with a comma.,NA,y,4303,NA,NA,1186,4264,NA,NA,NA,"winner, podium, first",1
5e36be214de4516479b48f31,ueaquuo4sj,Affordance Norms_Prolific,1,39,2023-07-27T20:58:55+00:00,8.695811033,1,updated stim.csv,Version1.csv,Version 1,List 1,hookah,NA,2,6.416666667,2301,0.945985105,3,BOI,-,-,Please name all of the ways you could use this object. Keep in mind that one object can have many uses. Separate your responses with a comma.,NA,y,8080,NA,NA,1400,8012,NA,NA,NA,"vape, arab, nicotine",1
5e36be214de4516479b48f31,ueaquuo4sj,Affordance Norms_Prolific,1,40,2023-07-27T20:59:05+00:00,9.916734934,1,updated stim.csv,Version1.csv,Version 1,List 1,juror,NA,17,5.481481481,1600,0.476399064,18,BOI,-,-,Please name all of the ways you could use this object. Keep in mind that one object can have many uses. Separate your responses with a comma.,NA,y,9280,NA,NA,1467,9221,NA,NA,NA,"crime, judge, lawter",1
