"Username","ID","ExperimentName","Session","Trial","Date","TimeDif","Condition.Number","Stimuli.File","Order.File","Condition.Description","Condition.Notes","Stimuli.Cue","Stimuli.Answer","Stimuli.Shuffle","Stimuli.Stimuli.Notes","Stimuli.Value","Stimuli.Rand","Procedure.Item","Procedure.Trial.Type","Procedure.Max.Time","Procedure.Min.Time","Procedure.Text","Procedure.Procedure.Notes","Procedure.Shuffle","Response.RT","Response.Response","Response.Accuracy","Response.RTfirst","Response.RTlast","Response.strictAcc","Response.lenientAcc","Response.focus","Response.JOL","Response.Focus"
"55cca8f81676ab000ff06ef1","5ljbfpblku","Affordance Norms_Prolific",1,11,"2023-07-21T15:22:34+00:00",5.1524329185486,16,"updated stim.csv","Version16.csv","Version 16","List 16","meal",NA,471,4.916666667,174,0.190081034,472,"BOI","-","-","Please name all of the ways you could use this object. Keep in mind that one object can have many uses. Separate your responses with a comma.",NA,"y",4584,NA,NA,1523,3288,NA,NA,NA,"eat, ",1
"55cca8f81676ab000ff06ef1","5ljbfpblku","Affordance Norms_Prolific",1,12,"2023-07-21T15:22:41+00:00",6.4099869728088,16,"updated stim.csv","Version16.csv","Version 16","List 16","fingernail",NA,452,6.434782609,2437,0.273714235,453,"BOI","-","-","Please name all of the ways you could use this object. Keep in mind that one object can have many uses. Separate your responses with a comma.",NA,"y",5820,NA,NA,1702,4969,NA,NA,NA,"cut, grow, paint",1
"55cca8f81676ab000ff06ef1","5ljbfpblku","Affordance Norms_Prolific",1,13,"2023-07-21T15:22:51+00:00",9.7862551212311,16,"updated stim.csv","Version16.csv","Version 16","List 16","flyswatter",NA,453,4.869565217,2242,0.892913517,454,"BOI","-","-","Please name all of the ways you could use this object. Keep in mind that one object can have many uses. Separate your responses with a comma.",NA,"y",9241,NA,NA,1909,8358,NA,NA,NA,"kill a fly, ping a ball",1
"55cca8f81676ab000ff06ef1","5ljbfpblku","Affordance Norms_Prolific",1,14,"2023-07-21T15:22:57+00:00",6.2098369598389,16,"updated stim.csv","Version16.csv","Version 16","List 16","derriere",NA,467,5.814814815,1766,0.592286248,468,"BOI","-","-","Please name all of the ways you could use this object. Keep in mind that one object can have many uses. Separate your responses with a comma.",NA,"y",5647,NA,NA,4418,4785,NA,NA,NA,"sit",0.842
"55cca8f81676ab000ff06ef1","5ljbfpblku","Affordance Norms_Prolific",1,15,"2023-07-21T15:23:02+00:00",5.6756858825684,16,"updated stim.csv","Version16.csv","Version 16","List 16","equipment",NA,451,4.833333333,1686,0.045579899,452,"BOI","-","-","Please name all of the ways you could use this object. Keep in mind that one object can have many uses. Separate your responses with a comma.",NA,"y",5126,NA,NA,1606,3653,NA,NA,NA,"use it, store it",1
"55cca8f81676ab000ff06ef1","5ljbfpblku","Affordance Norms_Prolific",1,16,"2023-07-21T15:23:09+00:00",7.0668251514435,16,"updated stim.csv","Version16.csv","Version 16","List 16","lunchroom",NA,456,4.47826087,2274,0.507361683,457,"BOI","-","-","Please name all of the ways you could use this object. Keep in mind that one object can have many uses. Separate your responses with a comma.",NA,"y",6512,NA,NA,1582,5448,NA,NA,NA,"eat in it, have a nap",1
"55cca8f81676ab000ff06ef1","5ljbfpblku","Affordance Norms_Prolific",1,17,"2023-07-21T15:23:17+00:00",7.6217708587646,16,"updated stim.csv","Version16.csv","Version 16","List 16","bedclothes",NA,462,5.875,1517,0.282871373,463,"BOI","-","-","Please name all of the ways you could use this object. Keep in mind that one object can have many uses. Separate your responses with a comma.",NA,"y",7040,NA,NA,2888,6151,NA,NA,NA,"keep warm, decorative",1
"55cca8f81676ab000ff06ef1","5ljbfpblku","Affordance Norms_Prolific",1,18,"2023-07-21T15:23:25+00:00",7.7684760093689,16,"updated stim.csv","Version16.csv","Version 16","List 16","parsley",NA,476,4.6,472,0.992638044,477,"BOI","-","-","Please name all of the ways you could use this object. Keep in mind that one object can have many uses. Separate your responses with a comma.",NA,"y",7232,NA,NA,1937,6297,NA,NA,NA,"eat, decorate plate, grow",1
"55cca8f81676ab000ff06ef1","5ljbfpblku","Affordance Norms_Prolific",1,19,"2023-07-21T15:23:29+00:00",4.4744091033936,16,"updated stim.csv","Version16.csv","Version 16","List 16","booze",NA,464,5.826086957,1095,0.838010994,465,"BOI","-","-","Please name all of the ways you could use this object. Keep in mind that one object can have many uses. Separate your responses with a comma.",NA,"y",3948,NA,NA,1826,2578,NA,NA,NA,"drink",1
"55cca8f81676ab000ff06ef1","5ljbfpblku","Affordance Norms_Prolific",1,20,"2023-07-21T15:23:34+00:00",4.8616788387299,16,"updated stim.csv","Version16.csv","Version 16","List 16","ophthalmologist",NA,473,4.5,2548,0.965520337,474,"BOI","-","-","Please name all of the ways you could use this object. Keep in mind that one object can have many uses. Separate your responses with a comma.",NA,"y",4297,NA,NA,2519,3394,NA,NA,NA,"visit them",1
"55cca8f81676ab000ff06ef1","5ljbfpblku","Affordance Norms_Prolific",1,21,"2023-07-21T15:23:42+00:00",7.3646581172943,16,"updated stim.csv","Version16.csv","Version 16","List 16","tissue",NA,459,5.434782609,1781,0.11652109,460,"BOI","-","-","Please name all of the ways you could use this object. Keep in mind that one object can have many uses. Separate your responses with a comma.",NA,"y",6806,NA,NA,1597,6238,NA,NA,NA,"blow your nose, wipe up a mess",1
"55cca8f81676ab000ff06ef1","5ljbfpblku","Affordance Norms_Prolific",1,22,"2023-07-21T15:23:58+00:00",16.148437023163,16,"updated stim.csv","Version16.csv","Version 16","List 16","cheesecloth",NA,465,5.035714286,1452,0.957672416,466,"BOI","-","-","Please name all of the ways you could use this object. Keep in mind that one object can have many uses. Separate your responses with a comma.",NA,"y",14092,NA,NA,8813,13159,NA,NA,NA,"strain something, sew, wear",0.914
"55cca8f81676ab000ff06ef1","5ljbfpblku","Affordance Norms_Prolific",1,23,"2023-07-21T15:24:04+00:00",6.0109808444977,16,"updated stim.csv","Version16.csv","Version 16","List 16","props",NA,457,4.464285714,501,0.535152959,458,"BOI","-","-","Please name all of the ways you could use this object. Keep in mind that one object can have many uses. Separate your responses with a comma.",NA,"y",5340,NA,NA,1927,3857,NA,NA,NA,"use in a play",1
"55cca8f81676ab000ff06ef1","5ljbfpblku","Affordance Norms_Prolific",1,24,"2023-07-21T15:24:09+00:00",4.822897195816,16,"updated stim.csv","Version16.csv","Version 16","List 16","moustache",NA,472,4.5,1871,0.999105159,473,"BOI","-","-","Please name all of the ways you could use this object. Keep in mind that one object can have many uses. Separate your responses with a comma.",NA,"y",4236,NA,NA,1710,3035,NA,NA,NA,"decorate it",1
"55cca8f81676ab000ff06ef1","5ljbfpblku","Affordance Norms_Prolific",1,25,"2023-07-21T15:24:12+00:00",3.8057990074158,16,"updated stim.csv","Version16.csv","Version 16","List 16","ukulele",NA,460,5.208333333,2131,0.395585786,461,"BOI","-","-","Please name all of the ways you could use this object. Keep in mind that one object can have many uses. Separate your responses with a comma.",NA,"y",3229,NA,NA,1316,2763,NA,NA,NA,"play it",1
"55cca8f81676ab000ff06ef1","5ljbfpblku","Affordance Norms_Prolific",1,26,"2023-07-21T15:24:17+00:00",4.6479258537292,16,"updated stim.csv","Version16.csv","Version 16","List 16","pimento",NA,480,4.826086957,2208,0.272774302,481,"BOI","-","-","Please name all of the ways you could use this object. Keep in mind that one object can have many uses. Separate your responses with a comma.",NA,"y",4059,NA,NA,1899,2685,NA,NA,NA,"eat it",1
"55cca8f81676ab000ff06ef1","5ljbfpblku","Affordance Norms_Prolific",1,27,"2023-07-21T15:24:22+00:00",4.892893075943,16,"updated stim.csv","Version16.csv","Version 16","List 16","chronograph",NA,466,4.321428571,65,0.613222279,467,"BOI","-","-","Please name all of the ways you could use this object. Keep in mind that one object can have many uses. Separate your responses with a comma.",NA,"y",4328,NA,NA,2318,3706,NA,NA,NA,"don't know",1
"55cca8f81676ab000ff06ef1","5ljbfpblku","Affordance Norms_Prolific",1,28,"2023-07-21T15:24:28+00:00",6.2601399421692,16,"updated stim.csv","Version16.csv","Version 16","List 16","leotard",NA,470,4.72,885,0.908131854,471,"BOI","-","-","Please name all of the ways you could use this object. Keep in mind that one object can have many uses. Separate your responses with a comma.",NA,"y",5678,NA,NA,1409,2304,NA,NA,NA,"wear it",1
"55cca8f81676ab000ff06ef1","5ljbfpblku","Affordance Norms_Prolific",1,29,"2023-07-21T15:24:38+00:00",9.8510389328003,16,"updated stim.csv","Version16.csv","Version 16","List 16","handcart",NA,469,5.12,600,0.026191584,470,"BOI","-","-","Please name all of the ways you could use this object. Keep in mind that one object can have many uses. Separate your responses with a comma.",NA,"y",9316,NA,NA,2822,8861,NA,NA,NA,"move things, stroe things, decorate it",1
"55cca8f81676ab000ff06ef1","5ljbfpblku","Affordance Norms_Prolific",1,30,"2023-07-21T15:24:44+00:00",5.5256500244141,16,"updated stim.csv","Version16.csv","Version 16","List 16","horse",NA,455,5.125,2246,0.101934862,456,"BOI","-","-","Please name all of the ways you could use this object. Keep in mind that one object can have many uses. Separate your responses with a comma.",NA,"y",4922,NA,NA,1625,4203,NA,NA,NA,"ride it, eat it",1
"55cca8f81676ab000ff06ef1","5ljbfpblku","Affordance Norms_Prolific",1,31,"2023-07-21T15:24:48+00:00",4.5364220142365,16,"updated stim.csv","Version16.csv","Version 16","List 16","orgy",NA,474,5,1729,0.300420837,475,"BOI","-","-","Please name all of the ways you could use this object. Keep in mind that one object can have many uses. Separate your responses with a comma.",NA,"y",3965,NA,NA,2536,3531,NA,NA,NA,"don't know",1
"55cca8f81676ab000ff06ef1","5ljbfpblku","Affordance Norms_Prolific",1,32,"2023-07-21T15:24:54+00:00",5.8504681587219,16,"updated stim.csv","Version16.csv","Version 16","List 16","pike",NA,479,4.904761905,2023,0.204056132,480,"BOI","-","-","Please name all of the ways you could use this object. Keep in mind that one object can have many uses. Separate your responses with a comma.",NA,"y",5279,NA,NA,2586,4807,NA,NA,NA,"catch it, eat it",1
"55cca8f81676ab000ff06ef1","5ljbfpblku","Affordance Norms_Prolific",1,33,"2023-07-21T15:25:02+00:00",8.1497619152069,16,"updated stim.csv","Version16.csv","Version 16","List 16","penthouse",NA,478,4.44,1848,0.023317079,479,"BOI","-","-","Please name all of the ways you could use this object. Keep in mind that one object can have many uses. Separate your responses with a comma.",NA,"y",7593,NA,NA,1554,7072,NA,NA,NA,"live in it, visit, have a party",1
"55cca8f81676ab000ff06ef1","5ljbfpblku","Affordance Norms_Prolific",1,34,"2023-07-21T15:25:07+00:00",5.3092279434204,16,"updated stim.csv","Version16.csv","Version 16","List 16","eyewash",NA,468,5.913043478,585,0.903342053,469,"BOI","-","-","Please name all of the ways you could use this object. Keep in mind that one object can have many uses. Separate your responses with a comma.",NA,"y",4664,NA,NA,1880,4160,NA,NA,NA,"wash your eye",1
"55cca8f81676ab000ff06ef1","5ljbfpblku","Affordance Norms_Prolific",1,35,"2023-07-21T15:25:13+00:00",5.8086230754852,16,"updated stim.csv","Version16.csv","Version 16","List 16","pelvis",NA,477,5.956521739,1378,0.274659644,478,"BOI","-","-","Please name all of the ways you could use this object. Keep in mind that one object can have many uses. Separate your responses with a comma.",NA,"y",4922,NA,NA,1932,4358,NA,NA,NA,"hold up your body",1
"55cca8f81676ab000ff06ef1","5ljbfpblku","Affordance Norms_Prolific",1,36,"2023-07-21T15:25:22+00:00",8.8965208530426,16,"updated stim.csv","Version16.csv","Version 16","List 16","paperweight",NA,475,5.32,2020,0.760021962,476,"BOI","-","-","Please name all of the ways you could use this object. Keep in mind that one object can have many uses. Separate your responses with a comma.",NA,"y",8322,NA,NA,2320,7797,NA,NA,NA,"hold papers, throw, break a indow",1
"55cca8f81676ab000ff06ef1","5ljbfpblku","Affordance Norms_Prolific",1,37,"2023-07-21T15:25:29+00:00",6.9108510017395,16,"updated stim.csv","Version16.csv","Version 16","List 16","grill",NA,454,5.76,2680,0.793867773,455,"BOI","-","-","Please name all of the ways you could use this object. Keep in mind that one object can have many uses. Separate your responses with a comma.",NA,"y",5234,NA,NA,1862,4783,NA,NA,NA,"cook with",1
"55cca8f81676ab000ff06ef1","5ljbfpblku","Affordance Norms_Prolific",1,38,"2023-07-21T15:25:34+00:00",4.8051340579987,16,"updated stim.csv","Version16.csv","Version 16","List 16","tinderbox",NA,458,4.875,579,0.494851678,459,"BOI","-","-","Please name all of the ways you could use this object. Keep in mind that one object can have many uses. Separate your responses with a comma.",NA,"y",4238,NA,NA,2142,3562,NA,NA,NA,"keep wood",1
"55cca8f81676ab000ff06ef1","5ljbfpblku","Affordance Norms_Prolific",1,39,"2023-07-21T15:25:46+00:00",12.251018047333,16,"updated stim.csv","Version16.csv","Version 16","List 16","balloonist",NA,461,5.708333333,2463,0.284019134,462,"BOI","-","-","Please name all of the ways you could use this object. Keep in mind that one object can have many uses. Separate your responses with a comma.",NA,"y",11700,NA,NA,2351,11148,NA,NA,NA,"make balloons, entertain children",1
"55cca8f81676ab000ff06ef1","5ljbfpblku","Affordance Norms_Prolific",1,40,"2023-07-21T15:25:50+00:00",3.9511339664459,16,"updated stim.csv","Version16.csv","Version 16","List 16","bodyguard",NA,463,5.52173913,1521,0.029003979,464,"BOI","-","-","Please name all of the ways you could use this object. Keep in mind that one object can have many uses. Separate your responses with a comma.",NA,"y",3400,NA,NA,1456,2982,NA,NA,NA,"keep you safe",1
"5b0710e7a84dcf0001beee8a","j5gfrmr878","Affordance Norms_Prolific",1,11,"2023-07-21T16:23:45+00:00",18.530419111252,7,"updated stim.csv","Version7.csv","Version 7","List 7","acrobat",NA,202,5.458333333,630,0.185721244,203,"BOI","-","-","Please name all of the ways you could use this object. Keep in mind that one object can have many uses. Separate your responses with a comma.",NA,"y",18127,NA,NA,6892,13090,NA,NA,NA,"entertain, sports",1
"5b0710e7a84dcf0001beee8a","j5gfrmr878","Affordance Norms_Prolific",1,12,"2023-07-21T16:24:32+00:00",47.727995872498,7,"updated stim.csv","Version7.csv","Version 7","List 7","bullfighter",NA,204,5.739130435,2550,0.221295865,205,"BOI","-","-","Please name all of the ways you could use this object. Keep in mind that one object can have many uses. Separate your responses with a comma.",NA,"y",47339,NA,NA,7773,38036,NA,NA,NA,"sport, national symbol",1
"5b0710e7a84dcf0001beee8a","j5gfrmr878","Affordance Norms_Prolific",1,13,"2023-07-21T16:25:04+00:00",31.211879014969,7,"updated stim.csv","Version7.csv","Version 7","List 7","cruiser",NA,185,6.192307692,1893,0.453329457,186,"BOI","-","-","Please name all of the ways you could use this object. Keep in mind that one object can have many uses. Separate your responses with a comma.",NA,"y",30802,NA,NA,8799,29521,NA,NA,NA,"transport, police",1
"5b0710e7a84dcf0001beee8a","j5gfrmr878","Affordance Norms_Prolific",1,14,"2023-07-21T16:25:49+00:00",45.120059967041,7,"updated stim.csv","Version7.csv","Version 7","List 7","cottage",NA,184,5.04,1708,0.347707986,185,"BOI","-","-","Please name all of the ways you could use this object. Keep in mind that one object can have many uses. Separate your responses with a comma.",NA,"y",44686,NA,NA,4361,43381,NA,NA,NA,"abode, shelter",1
"5b0710e7a84dcf0001beee8a","j5gfrmr878","Affordance Norms_Prolific",1,15,"2023-07-21T16:26:33+00:00",44.023136138916,7,"updated stim.csv","Version7.csv","Version 7","List 7","zipper",NA,201,4.538461538,145,0.584411792,202,"BOI","-","-","Please name all of the ways you could use this object. Keep in mind that one object can have many uses. Separate your responses with a comma.",NA,"y",43641,NA,NA,3024,38376,NA,NA,NA,"closure, decorative",1
"5b0710e7a84dcf0001beee8a","j5gfrmr878","Affordance Norms_Prolific",1,16,"2023-07-21T16:26:48+00:00",14.88708782196,7,"updated stim.csv","Version7.csv","Version 7","List 7","mutton",NA,192,4.708333333,1150,0.142005772,193,"BOI","-","-","Please name all of the ways you could use this object. Keep in mind that one object can have many uses. Separate your responses with a comma.",NA,"y",14475,NA,NA,5504,9941,NA,NA,NA,"food, animal",1
"5b0710e7a84dcf0001beee8a","j5gfrmr878","Affordance Norms_Prolific",1,17,"2023-07-21T16:27:12+00:00",24.728224992752,7,"updated stim.csv","Version7.csv","Version 7","List 7","crocodile",NA,207,5.217391304,1636,0.409608525,208,"BOI","-","-","Please name all of the ways you could use this object. Keep in mind that one object can have many uses. Separate your responses with a comma.",NA,"y",24342,NA,NA,9580,22017,NA,NA,NA,"zoo, wildlife, ",1
"5b0710e7a84dcf0001beee8a","j5gfrmr878","Affordance Norms_Prolific",1,18,"2023-07-21T16:27:55+00:00",43.060089111328,7,"updated stim.csv","Version7.csv","Version 7","List 7","sandbox",NA,194,5.76,2598,0.221741609,195,"BOI","-","-","Please name all of the ways you could use this object. Keep in mind that one object can have many uses. Separate your responses with a comma.",NA,"y",42665,NA,NA,2773,40950,NA,NA,NA,"playing, storage",1
"5b0710e7a84dcf0001beee8a","j5gfrmr878","Affordance Norms_Prolific",1,19,"2023-07-21T16:28:28+00:00",32.756292104721,7,"updated stim.csv","Version7.csv","Version 7","List 7","stem",NA,197,4.739130435,1133,0.534894394,198,"BOI","-","-","Please name all of the ways you could use this object. Keep in mind that one object can have many uses. Separate your responses with a comma.",NA,"y",32367,NA,NA,7556,26436,NA,NA,NA,"hold flower head, wineglass",1
"5b0710e7a84dcf0001beee8a","j5gfrmr878","Affordance Norms_Prolific",1,20,"2023-07-21T16:28:46+00:00",18.32777094841,7,"updated stim.csv","Version7.csv","Version 7","List 7","cuttlefish",NA,186,4.869565217,1158,0.487928979,187,"BOI","-","-","Please name all of the ways you could use this object. Keep in mind that one object can have many uses. Separate your responses with a comma.",NA,"y",17933,NA,NA,5825,14466,NA,NA,NA,"food, bird toy",1
"5b0710e7a84dcf0001beee8a","j5gfrmr878","Affordance Norms_Prolific",1,21,"2023-07-21T16:29:11+00:00",24.847034931183,7,"updated stim.csv","Version7.csv","Version 7","List 7","chairperson",NA,205,6.076923077,1920,0.177409365,206,"BOI","-","-","Please name all of the ways you could use this object. Keep in mind that one object can have many uses. Separate your responses with a comma.",NA,"y",24438,NA,NA,12214,22963,NA,NA,NA,"leader, organise, head",1
"5b0710e7a84dcf0001beee8a","j5gfrmr878","Affordance Norms_Prolific",1,22,"2023-07-21T16:29:30+00:00",19.076101064682,7,"updated stim.csv","Version7.csv","Version 7","List 7","plexiglas",NA,193,6.293243243,1193,0.95517357,194,"BOI","-","-","Please name all of the ways you could use this object. Keep in mind that one object can have many uses. Separate your responses with a comma.",NA,"y",18659,NA,NA,9706,15701,NA,NA,NA,"cover, shelter",1
"5b0710e7a84dcf0001beee8a","j5gfrmr878","Affordance Norms_Prolific",1,23,"2023-07-21T16:30:01+00:00",30.153362989426,7,"updated stim.csv","Version7.csv","Version 7","List 7","fillet",NA,188,5.846153846,2124,0.531176794,189,"BOI","-","-","Please name all of the ways you could use this object. Keep in mind that one object can have many uses. Separate your responses with a comma.",NA,"y",29544,NA,NA,16503,28428,NA,NA,NA,"piece, meat, cut",1
"5b0710e7a84dcf0001beee8a","j5gfrmr878","Affordance Norms_Prolific",1,24,"2023-07-21T16:30:13+00:00",12.82356595993,7,"updated stim.csv","Version7.csv","Version 7","List 7","hatband",NA,210,5.217391304,1840,0.069479316,211,"BOI","-","-","Please name all of the ways you could use this object. Keep in mind that one object can have many uses. Separate your responses with a comma.",NA,"y",12423,NA,NA,2815,11378,NA,NA,NA,"decorate, fixing",1
"5b0710e7a84dcf0001beee8a","j5gfrmr878","Affordance Norms_Prolific",1,25,"2023-07-21T16:30:30+00:00",16.639554977417,7,"updated stim.csv","Version7.csv","Version 7","List 7","dove",NA,187,6.391304348,506,0.129625892,188,"BOI","-","-","Please name all of the ways you could use this object. Keep in mind that one object can have many uses. Separate your responses with a comma.",NA,"y",15563,NA,NA,5731,9296,NA,NA,NA,"bird, peace",1
"5b0710e7a84dcf0001beee8a","j5gfrmr878","Affordance Norms_Prolific",1,26,"2023-07-21T16:30:51+00:00",21.488685131073,7,"updated stim.csv","Version7.csv","Version 7","List 7","sex",NA,195,5.04,1418,0.513162464,196,"BOI","-","-","Please name all of the ways you could use this object. Keep in mind that one object can have many uses. Separate your responses with a comma.",NA,"y",21079,NA,NA,9850,18897,NA,NA,NA,"designation, procreation",1
"5b0710e7a84dcf0001beee8a","j5gfrmr878","Affordance Norms_Prolific",1,27,"2023-07-21T16:31:09+00:00",17.235548973083,7,"updated stim.csv","Version7.csv","Version 7","List 7","marksman",NA,191,4.655172414,2553,0.339147887,192,"BOI","-","-","Please name all of the ways you could use this object. Keep in mind that one object can have many uses. Separate your responses with a comma.",NA,"y",16828,NA,NA,4783,14966,NA,NA,NA,"sportsman, hunter, soldier",1
"5b0710e7a84dcf0001beee8a","j5gfrmr878","Affordance Norms_Prolific",1,28,"2023-07-21T16:31:37+00:00",27.89626288414,7,"updated stim.csv","Version7.csv","Version 7","List 7","hanky",NA,209,4.833333333,1065,0.655532881,210,"BOI","-","-","Please name all of the ways you could use this object. Keep in mind that one object can have many uses. Separate your responses with a comma.",NA,"y",27478,NA,NA,12505,26022,NA,NA,NA,"blow your nose, wipe face",1
"5b0710e7a84dcf0001beee8a","j5gfrmr878","Affordance Norms_Prolific",1,29,"2023-07-21T16:32:01+00:00",24.83827996254,7,"updated stim.csv","Version7.csv","Version 7","List 7","sidecar",NA,196,5.52173913,936,0.012579093,197,"BOI","-","-","Please name all of the ways you could use this object. Keep in mind that one object can have many uses. Separate your responses with a comma.",NA,"y",24445,NA,NA,9560,22746,NA,NA,NA,"hold passenger, vehicle",1
"5b0710e7a84dcf0001beee8a","j5gfrmr878","Affordance Norms_Prolific",1,30,"2023-07-21T16:32:28+00:00",27.060089111328,7,"updated stim.csv","Version7.csv","Version 7","List 7","corduroy",NA,183,5.24,745,0.735675552,184,"BOI","-","-","Please name all of the ways you could use this object. Keep in mind that one object can have many uses. Separate your responses with a comma.",NA,"y",26670,NA,NA,5146,25237,NA,NA,NA,"cloth, jeans, jacket",1
"5b0710e7a84dcf0001beee8a","j5gfrmr878","Affordance Norms_Prolific",1,31,"2023-07-21T16:32:43+00:00",14.723443031311,7,"updated stim.csv","Version7.csv","Version 7","List 7","turf",NA,200,4.347826087,1970,0.173169325,201,"BOI","-","-","Please name all of the ways you could use this object. Keep in mind that one object can have many uses. Separate your responses with a comma.",NA,"y",14360,NA,NA,4655,10903,NA,NA,NA,"grass, race cource",1
"5b0710e7a84dcf0001beee8a","j5gfrmr878","Affordance Norms_Prolific",1,32,"2023-07-21T16:33:25+00:00",41.987920999527,7,"updated stim.csv","Version7.csv","Version 7","List 7","toastmaster",NA,199,4.368421053,931,0.777702105,200,"BOI","-","-","Please name all of the ways you could use this object. Keep in mind that one object can have many uses. Separate your responses with a comma.",NA,"y",41612,NA,NA,7977,40131,NA,NA,NA,"host, give thanks",1
"5b0710e7a84dcf0001beee8a","j5gfrmr878","Affordance Norms_Prolific",1,33,"2023-07-21T16:33:57+00:00",32.242233037949,7,"updated stim.csv","Version7.csv","Version 7","List 7","bifocal",NA,181,4.8,2381,0.034768165,182,"BOI","-","-","Please name all of the ways you could use this object. Keep in mind that one object can have many uses. Separate your responses with a comma.",NA,"y",31777,NA,NA,7675,21833,NA,NA,NA,"glasses, increased vision",1
"5b0710e7a84dcf0001beee8a","j5gfrmr878","Affordance Norms_Prolific",1,34,"2023-07-21T16:34:26+00:00",28.457791805267,7,"updated stim.csv","Version7.csv","Version 7","List 7","teacher",NA,198,6.12,1930,0.592409662,199,"BOI","-","-","Please name all of the ways you could use this object. Keep in mind that one object can have many uses. Separate your responses with a comma.",NA,"y",28081,NA,NA,20908,25929,NA,NA,NA,"classes, educate",1
"5b0710e7a84dcf0001beee8a","j5gfrmr878","Affordance Norms_Prolific",1,35,"2023-07-21T16:34:56+00:00",29.685986995697,7,"updated stim.csv","Version7.csv","Version 7","List 7","cod",NA,206,4.84,2222,0.865631611,207,"BOI","-","-","Please name all of the ways you could use this object. Keep in mind that one object can have many uses. Separate your responses with a comma.",NA,"y",29287,NA,NA,20142,23593,NA,NA,NA,"eat, fish",1
"5b0710e7a84dcf0001beee8a","j5gfrmr878","Affordance Norms_Prolific",1,36,"2023-07-21T16:35:24+00:00",28.521609067917,7,"updated stim.csv","Version7.csv","Version 7","List 7","badminton",NA,203,4.75,624,0.037513054,204,"BOI","-","-","Please name all of the ways you could use this object. Keep in mind that one object can have many uses. Separate your responses with a comma.",NA,"y",28152,NA,NA,2486,13547,NA,NA,NA,"sport, exercise",1
"5b0710e7a84dcf0001beee8a","j5gfrmr878","Affordance Norms_Prolific",1,37,"2023-07-21T16:35:44+00:00",19.432630062103,7,"updated stim.csv","Version7.csv","Version 7","List 7","bugle",NA,182,5.304347826,1695,0.811208955,183,"BOI","-","-","Please name all of the ways you could use this object. Keep in mind that one object can have many uses. Separate your responses with a comma.",NA,"y",19021,NA,NA,5491,17697,NA,NA,NA,"music, army music",1
"5b0710e7a84dcf0001beee8a","j5gfrmr878","Affordance Norms_Prolific",1,38,"2023-07-21T16:36:30+00:00",46.429276943207,7,"updated stim.csv","Version7.csv","Version 7","List 7","farmer",NA,208,4.625,1715,0.00079572,209,"BOI","-","-","Please name all of the ways you could use this object. Keep in mind that one object can have many uses. Separate your responses with a comma.",NA,"y",46040,NA,NA,9340,37103,NA,NA,NA,"looks after land, raises livestock",1
"5b0710e7a84dcf0001beee8a","j5gfrmr878","Affordance Norms_Prolific",1,39,"2023-07-21T16:37:48+00:00",78.373857021332,7,"updated stim.csv","Version7.csv","Version 7","List 7","guardsman",NA,189,5.5,2664,0.327375285,190,"BOI","-","-","Please name all of the ways you could use this object. Keep in mind that one object can have many uses. Separate your responses with a comma.",NA,"y",77682,NA,NA,17154,75764,NA,NA,NA,"soldier, palace guard",1
"5b0710e7a84dcf0001beee8a","j5gfrmr878","Affordance Norms_Prolific",1,40,"2023-07-21T16:38:17+00:00",29.00626206398,7,"updated stim.csv","Version7.csv","Version 7","List 7","handbrake",NA,190,5.75,733,0.398237917,191,"BOI","-","-","Please name all of the ways you could use this object. Keep in mind that one object can have many uses. Separate your responses with a comma.",NA,"y",28474,NA,NA,5894,16543,NA,NA,NA,"hold a vehicle, ",1
"5c7093155ba5060001ce5f1a","ykvvozcfd1","Affordance Norms_Prolific",1,11,"2023-07-21T14:55:54+00:00",24.17794084549,15,"updated stim.csv","Version15.csv","Version 15","List 15","hostel",NA,445,6.08,1412,0.85415253,446,"BOI","-","-","Please name all of the ways you could use this object. Keep in mind that one object can have many uses. Separate your responses with a comma.",NA,"y",23714,NA,NA,3944,22000,NA,NA,NA,"rented, bought, reviewed, ",1
"5c7093155ba5060001ce5f1a","ykvvozcfd1","Affordance Norms_Prolific",1,12,"2023-07-21T14:56:18+00:00",24.595607042313,15,"updated stim.csv","Version15.csv","Version 15","List 15","canine",NA,436,5.24,2120,0.111236528,437,"BOI","-","-","Please name all of the ways you could use this object. Keep in mind that one object can have many uses. Separate your responses with a comma.",NA,"y",24125,NA,NA,2907,23068,NA,NA,NA,"walked, cuddled, stroked, petted, brushed, kissed",1
"5c7093155ba5060001ce5f1a","ykvvozcfd1","Affordance Norms_Prolific",1,13,"2023-07-21T14:56:54+00:00",35.711055994034,15,"updated stim.csv","Version15.csv","Version 15","List 15","latex",NA,442,4.75,2552,0.711529641,443,"BOI","-","-","Please name all of the ways you could use this object. Keep in mind that one object can have many uses. Separate your responses with a comma.",NA,"y",35238,NA,NA,4363,34066,NA,NA,NA,"worn, inflated, stretched",1
"5c7093155ba5060001ce5f1a","ykvvozcfd1","Affordance Norms_Prolific",1,14,"2023-07-21T14:57:26+00:00",32.312232971191,15,"updated stim.csv","Version15.csv","Version 15","List 15","silkworm",NA,424,5.04,2373,0.526230235,425,"BOI","-","-","Please name all of the ways you could use this object. Keep in mind that one object can have many uses. Separate your responses with a comma.",NA,"y",31871,NA,NA,5837,30344,NA,NA,NA,"used for silk, stroked, eaten",1
"5c7093155ba5060001ce5f1a","ykvvozcfd1","Affordance Norms_Prolific",1,15,"2023-07-21T14:57:44+00:00",17.564912080765,15,"updated stim.csv","Version15.csv","Version 15","List 15","sandalwood",NA,423,4.391304348,550,0.085968356,424,"BOI","-","-","Please name all of the ways you could use this object. Keep in mind that one object can have many uses. Separate your responses with a comma.",NA,"y",16720,NA,NA,1813,15663,NA,NA,NA,"smelled, burnt, rubbed, carved",1
"5c7093155ba5060001ce5f1a","ykvvozcfd1","Affordance Norms_Prolific",1,16,"2023-07-21T14:58:39+00:00",55.718387126923,15,"updated stim.csv","Version15.csv","Version 15","List 15","turntable",NA,426,5.458333333,1764,0.165548754,427,"BOI","-","-","Please name all of the ways you could use this object. Keep in mind that one object can have many uses. Separate your responses with a comma.",NA,"y",54992,NA,NA,2660,54132,NA,NA,NA,"listened to with a record, spun, decorated",1
"5c7093155ba5060001ce5f1a","ykvvozcfd1","Affordance Norms_Prolific",1,17,"2023-07-21T14:59:17+00:00",37.536422967911,15,"updated stim.csv","Version15.csv","Version 15","List 15","airman",NA,449,5.826086957,2727,0.638758823,450,"BOI","-","-","Please name all of the ways you could use this object. Keep in mind that one object can have many uses. Separate your responses with a comma.",NA,"y",37072,NA,NA,3918,35896,NA,NA,NA,"hugged, kissed, greeted, flown by",1
"5c7093155ba5060001ce5f1a","ykvvozcfd1","Affordance Norms_Prolific",1,18,"2023-07-21T14:59:38+00:00",21.194967985153,15,"updated stim.csv","Version15.csv","Version 15","List 15","lobe",NA,437,4.6,1869,0.022813055,438,"BOI","-","-","Please name all of the ways you could use this object. Keep in mind that one object can have many uses. Separate your responses with a comma.",NA,"y",20754,NA,NA,3115,19762,NA,NA,NA,"pierced, used to listen, squeezed",1
"5c7093155ba5060001ce5f1a","ykvvozcfd1","Affordance Norms_Prolific",1,19,"2023-07-21T15:00:05+00:00",27.029377937317,15,"updated stim.csv","Version15.csv","Version 15","List 15","dwarf",NA,428,4.958333333,2763,0.021755234,429,"BOI","-","-","Please name all of the ways you could use this object. Keep in mind that one object can have many uses. Separate your responses with a comma.",NA,"y",26558,NA,NA,4228,20121,NA,NA,NA,"cuddled, kissed, raced, ",1
"5c7093155ba5060001ce5f1a","ykvvozcfd1","Affordance Norms_Prolific",1,20,"2023-07-21T15:00:38+00:00",32.925565958023,15,"updated stim.csv","Version15.csv","Version 15","List 15","goatskin",NA,441,4.5,651,0.966954402,442,"BOI","-","-","Please name all of the ways you could use this object. Keep in mind that one object can have many uses. Separate your responses with a comma.",NA,"y",32461,NA,NA,5366,30517,NA,NA,NA,"rug, clothing material, rug material, made in to a hat",1
"5c7093155ba5060001ce5f1a","ykvvozcfd1","Affordance Norms_Prolific",1,21,"2023-07-21T15:01:19+00:00",40.404814004898,15,"updated stim.csv","Version15.csv","Version 15","List 15","wreath",NA,448,5.769230769,1148,0.122398019,449,"BOI","-","-","Please name all of the ways you could use this object. Keep in mind that one object can have many uses. Separate your responses with a comma.",NA,"y",39945,NA,NA,2463,37657,NA,NA,NA,"decoration, celebration display, commemoration display",1
"5c7093155ba5060001ce5f1a","ykvvozcfd1","Affordance Norms_Prolific",1,22,"2023-07-21T15:01:56+00:00",37.19762802124,15,"updated stim.csv","Version15.csv","Version 15","List 15","female",NA,429,5.56,2676,0.363619709,430,"BOI","-","-","Please name all of the ways you could use this object. Keep in mind that one object can have many uses. Separate your responses with a comma.",NA,"y",36761,NA,NA,5435,22786,NA,NA,NA,"cuddled, greeted, kissed, asked for advice, ",1
"5c7093155ba5060001ce5f1a","ykvvozcfd1","Affordance Norms_Prolific",1,23,"2023-07-21T15:02:16+00:00",20.306515932083,15,"updated stim.csv","Version15.csv","Version 15","List 15","awning",NA,450,6.2,2649,0.536720356,451,"BOI","-","-","Please name all of the ways you could use this object. Keep in mind that one object can have many uses. Separate your responses with a comma.",NA,"y",18716,NA,NA,6851,17165,NA,NA,NA,"wind cover, rain cover, sun cover",1
"5c7093155ba5060001ce5f1a","ykvvozcfd1","Affordance Norms_Prolific",1,24,"2023-07-21T15:02:36+00:00",19.821563005447,15,"updated stim.csv","Version15.csv","Version 15","List 15","putty",NA,432,4.52173913,1013,0.365858235,433,"BOI","-","-","Please name all of the ways you could use this object. Keep in mind that one object can have many uses. Separate your responses with a comma.",NA,"y",19214,NA,NA,2522,18419,NA,NA,NA,"squeezed, stretched, bounced, ",1
"5c7093155ba5060001ce5f1a","ykvvozcfd1","Affordance Norms_Prolific",1,25,"2023-07-21T15:03:15+00:00",39.329142093658,15,"updated stim.csv","Version15.csv","Version 15","List 15","forehead",NA,440,6.086956522,399,0.792412943,441,"BOI","-","-","Please name all of the ways you could use this object. Keep in mind that one object can have many uses. Separate your responses with a comma.",NA,"y",38854,NA,NA,16331,37998,NA,NA,NA,"stroked, massaged, painted, slapped",1
"5c7093155ba5060001ce5f1a","ykvvozcfd1","Affordance Norms_Prolific",1,26,"2023-07-21T15:03:33+00:00",18.095977067947,15,"updated stim.csv","Version15.csv","Version 15","List 15","puzzle",NA,438,4.454545455,2185,0.868683002,439,"BOI","-","-","Please name all of the ways you could use this object. Keep in mind that one object can have many uses. Separate your responses with a comma.",NA,"y",17273,NA,NA,2965,16176,NA,NA,NA,"games, test, entertainment",1
"5c7093155ba5060001ce5f1a","ykvvozcfd1","Affordance Norms_Prolific",1,27,"2023-07-21T15:03:50+00:00",16.291970968246,15,"updated stim.csv","Version15.csv","Version 15","List 15","spareribs",NA,425,6.291666667,1677,0.69421982,426,"BOI","-","-","Please name all of the ways you could use this object. Keep in mind that one object can have many uses. Separate your responses with a comma.",NA,"y",15819,NA,NA,2065,14863,NA,NA,NA,"eaten, displayed, baked, smelt",1
"5c7093155ba5060001ce5f1a","ykvvozcfd1","Affordance Norms_Prolific",1,28,"2023-07-21T15:04:25+00:00",35.538194894791,15,"updated stim.csv","Version15.csv","Version 15","List 15","satin",NA,439,4.333333333,922,0.993576252,440,"BOI","-","-","Please name all of the ways you could use this object. Keep in mind that one object can have many uses. Separate your responses with a comma.",NA,"y",35050,NA,NA,2335,34005,NA,NA,NA,"used as dress fabric, sheet fabric, curtain fabric, made in to a flag, decoration",1
"5c7093155ba5060001ce5f1a","ykvvozcfd1","Affordance Norms_Prolific",1,29,"2023-07-21T15:04:45+00:00",19.823606967926,15,"updated stim.csv","Version15.csv","Version 15","List 15","physiologist",NA,446,5.045454545,2031,0.306327361,447,"BOI","-","-","Please name all of the ways you could use this object. Keep in mind that one object can have many uses. Separate your responses with a comma.",NA,"y",19391,NA,NA,3059,16797,NA,NA,NA,"used for advice, as a speaker, as a teacher, ",1
"5c7093155ba5060001ce5f1a","ykvvozcfd1","Affordance Norms_Prolific",1,30,"2023-07-21T15:05:06+00:00",20.773118019104,15,"updated stim.csv","Version15.csv","Version 15","List 15","mousse",NA,421,4.5,2586,0.114183625,422,"BOI","-","-","Please name all of the ways you could use this object. Keep in mind that one object can have many uses. Separate your responses with a comma.",NA,"y",20302,NA,NA,2083,19259,NA,NA,NA,"eaten, displayed, given as a gift, whipped",1
"5c7093155ba5060001ce5f1a","ykvvozcfd1","Affordance Norms_Prolific",1,31,"2023-07-21T15:05:31+00:00",25.650398015976,15,"updated stim.csv","Version15.csv","Version 15","List 15","windshield",NA,427,5.826086957,422,0.328762048,428,"BOI","-","-","Please name all of the ways you could use this object. Keep in mind that one object can have many uses. Separate your responses with a comma.",NA,"y",22641,NA,NA,4315,20933,NA,NA,NA,"to protect from wind, as a mirror, ",1
"5c7093155ba5060001ce5f1a","ykvvozcfd1","Affordance Norms_Prolific",1,32,"2023-07-21T15:06:06+00:00",34.91092300415,15,"updated stim.csv","Version15.csv","Version 15","List 15","crossbow",NA,443,5.333333333,1504,0.414036557,444,"BOI","-","-","Please name all of the ways you could use this object. Keep in mind that one object can have many uses. Separate your responses with a comma.",NA,"y",34442,NA,NA,3574,28999,NA,NA,NA,"shot, to kill something, as target practise, ",1
"5c7093155ba5060001ce5f1a","ykvvozcfd1","Affordance Norms_Prolific",1,33,"2023-07-21T15:06:37+00:00",30.794629096985,15,"updated stim.csv","Version15.csv","Version 15","List 15","plug",NA,431,4.6,55,0.282470897,432,"BOI","-","-","Please name all of the ways you could use this object. Keep in mind that one object can have many uses. Separate your responses with a comma.",NA,"y",30081,NA,NA,2723,28267,NA,NA,NA,"for power, to block a sink, to block a hole, to put in ears to silence noice",1
"5c7093155ba5060001ce5f1a","ykvvozcfd1","Affordance Norms_Prolific",1,34,"2023-07-21T15:06:51+00:00",13.657727956772,15,"updated stim.csv","Version15.csv","Version 15","List 15","oxtail",NA,422,4.888888889,1367,0.47461087,423,"BOI","-","-","Please name all of the ways you could use this object. Keep in mind that one object can have many uses. Separate your responses with a comma.",NA,"y",13187,NA,NA,2339,12045,NA,NA,NA,"eaten, baked, flavour for soup",1
"5c7093155ba5060001ce5f1a","ykvvozcfd1","Affordance Norms_Prolific",1,35,"2023-07-21T15:07:13+00:00",22.693624019623,15,"updated stim.csv","Version15.csv","Version 15","List 15","quill",NA,447,4.772727273,1754,0.905080051,448,"BOI","-","-","Please name all of the ways you could use this object. Keep in mind that one object can have many uses. Separate your responses with a comma.",NA,"y",22225,NA,NA,1773,21201,NA,NA,NA,"to write with, to scratch an itch with, to decorate, as a gift",1
"5c7093155ba5060001ce5f1a","ykvvozcfd1","Affordance Norms_Prolific",1,36,"2023-07-21T15:07:31+00:00",18.011009931564,15,"updated stim.csv","Version15.csv","Version 15","List 15","hen",NA,430,4.44,1800,0.127937549,431,"BOI","-","-","Please name all of the ways you could use this object. Keep in mind that one object can have many uses. Separate your responses with a comma.",NA,"y",17536,NA,NA,1728,15974,NA,NA,NA,"to eat, to lay eggs from, to stroke, ",1
"5c7093155ba5060001ce5f1a","ykvvozcfd1","Affordance Norms_Prolific",1,37,"2023-07-21T15:08:03+00:00",31.747395992279,15,"updated stim.csv","Version15.csv","Version 15","List 15","spade",NA,434,5.275862069,2159,0.75962687,435,"BOI","-","-","Please name all of the ways you could use this object. Keep in mind that one object can have many uses. Separate your responses with a comma.",NA,"y",31279,NA,NA,1504,27214,NA,NA,NA,"to dig, to scratch your back, to hit something with",1
"5c7093155ba5060001ce5f1a","ykvvozcfd1","Affordance Norms_Prolific",1,38,"2023-07-21T15:08:15+00:00",11.620741128922,15,"updated stim.csv","Version15.csv","Version 15","List 15","theologian",NA,435,5.851851852,2152,0.017631805,436,"BOI","-","-","Please name all of the ways you could use this object. Keep in mind that one object can have many uses. Separate your responses with a comma.",NA,"y",11150,NA,NA,8304,10282,NA,NA,NA,"as a gift",1
"5c7093155ba5060001ce5f1a","ykvvozcfd1","Affordance Norms_Prolific",1,39,"2023-07-21T15:08:33+00:00",17.962656974792,15,"updated stim.csv","Version15.csv","Version 15","List 15","snowflake",NA,433,4.652173913,2420,0.469760498,434,"BOI","-","-","Please name all of the ways you could use this object. Keep in mind that one object can have many uses. Separate your responses with a comma.",NA,"y",17454,NA,NA,4129,16290,NA,NA,NA,"to make in to drinking water, to cool, to decorate",1
"5c7093155ba5060001ce5f1a","ykvvozcfd1","Affordance Norms_Prolific",1,40,"2023-07-21T15:09:04+00:00",31.513434886932,15,"updated stim.csv","Version15.csv","Version 15","List 15","environmentalist",NA,444,6.111111111,365,0.030114514,445,"BOI","-","-","Please name all of the ways you could use this object. Keep in mind that one object can have many uses. Separate your responses with a comma.",NA,"y",31007,NA,NA,2271,30260,NA,NA,NA,"to ask for advice, to help the enviroment with their knowledge",1
"5d13d6a2d4888600182efdd6","jeyl7j2g0i","Affordance Norms_Prolific",1,11,"2023-07-21T16:38:51+00:00",76.345575094223,11,"updated stim.csv","Version11.csv","Version 11","List 11","blanket",NA,304,4.916666667,1410,0.325157872,305,"BOI","-","-","Please name all of the ways you could use this object. Keep in mind that one object can have many uses. Separate your responses with a comma.",NA,"y",75540,NA,NA,4235,74189,NA,NA,NA,"bed covering, wrap around when cold, cover for a play fort, hide objects under it, use it to protect furniture",1
"5d13d6a2d4888600182efdd6","jeyl7j2g0i","Affordance Norms_Prolific",1,12,"2023-07-21T16:39:28+00:00",36.594722986221,11,"updated stim.csv","Version11.csv","Version 11","List 11","planner",NA,324,5.08,801,0.738677518,325,"BOI","-","-","Please name all of the ways you could use this object. Keep in mind that one object can have many uses. Separate your responses with a comma.",NA,"y",35831,NA,NA,9606,34218,NA,NA,NA,"to check days and dates, record meetings, organise daily schedule",1
"5d13d6a2d4888600182efdd6","jeyl7j2g0i","Affordance Norms_Prolific",1,13,"2023-07-21T16:41:12+00:00",104.17024207115,11,"updated stim.csv","Version11.csv","Version 11","List 11","pants",NA,322,4.4,2654,0.628822153,323,"BOI","-","-","Please name all of the ways you could use this object. Keep in mind that one object can have many uses. Separate your responses with a comma.",NA,"y",104189,NA,NA,5045,101865,NA,NA,NA,"for fashion, protective work wear, fill the legs with foam and use as pillow",1
"5d13d6a2d4888600182efdd6","jeyl7j2g0i","Affordance Norms_Prolific",1,14,"2023-07-21T16:41:53+00:00",40.774510860443,11,"updated stim.csv","Version11.csv","Version 11","List 11","automotive",NA,302,5.75,784,0.029470498,303,"BOI","-","-","Please name all of the ways you could use this object. Keep in mind that one object can have many uses. Separate your responses with a comma.",NA,"y",40010,NA,NA,5005,38526,NA,NA,NA,"drive it, sleep in it, store stuff inside it, use the headlights to illuminate stuff, use the heater to keep warm",1
"5d13d6a2d4888600182efdd6","jeyl7j2g0i","Affordance Norms_Prolific",1,15,"2023-07-21T16:42:42+00:00",49.766649007797,11,"updated stim.csv","Version11.csv","Version 11","List 11","noose",NA,321,4.44,2858,0.883973737,322,"BOI","-","-","Please name all of the ways you could use this object. Keep in mind that one object can have many uses. Separate your responses with a comma.",NA,"y",49045,NA,NA,7199,47851,NA,NA,NA,"tie up a boat, hang objects from the ceiling",1
"5d13d6a2d4888600182efdd6","jeyl7j2g0i","Affordance Norms_Prolific",1,16,"2023-07-21T16:43:05+00:00",22.772157907486,11,"updated stim.csv","Version11.csv","Version 11","List 11","prune",NA,325,5.954545455,2130,0.311146933,326,"BOI","-","-","Please name all of the ways you could use this object. Keep in mind that one object can have many uses. Separate your responses with a comma.",NA,"y",21977,NA,NA,4210,20934,NA,NA,NA,"eat for taste, laxative effect, in cakes, juice them",1
"5d13d6a2d4888600182efdd6","jeyl7j2g0i","Affordance Norms_Prolific",1,17,"2023-07-21T16:44:43+00:00",97.851094007492,11,"updated stim.csv","Version11.csv","Version 11","List 11","spyglass",NA,330,4.68,1066,0.954439673,331,"BOI","-","-","Please name all of the ways you could use this object. Keep in mind that one object can have many uses. Separate your responses with a comma.",NA,"y",14571,NA,NA,2121,13438,NA,NA,NA,"observe things far away, use it as a bat to bop stuff",1
"5d13d6a2d4888600182efdd6","jeyl7j2g0i","Affordance Norms_Prolific",1,18,"2023-07-21T16:45:27+00:00",43.645361185074,11,"updated stim.csv","Version11.csv","Version 11","List 11","brassiere",NA,306,5.555555556,1789,0.73002974,307,"BOI","-","-","Please name all of the ways you could use this object. Keep in mind that one object can have many uses. Separate your responses with a comma.",NA,"y",42803,NA,NA,6536,40472,NA,NA,NA,"hold tits in place, store oranges, swing for small rodents",1
"5d13d6a2d4888600182efdd6","jeyl7j2g0i","Affordance Norms_Prolific",1,19,"2023-07-21T16:46:26+00:00",59.285079956055,11,"updated stim.csv","Version11.csv","Version 11","List 11","paperhanger",NA,323,4.6,2622,0.044666984,324,"BOI","-","-","Please name all of the ways you could use this object. Keep in mind that one object can have many uses. Separate your responses with a comma.",NA,"y",58497,NA,NA,37055,47765,NA,NA,NA,"decorate a wall, cover graffiti",1
"5d13d6a2d4888600182efdd6","jeyl7j2g0i","Affordance Norms_Prolific",1,20,"2023-07-21T16:47:10+00:00",43.954293012619,11,"updated stim.csv","Version11.csv","Version 11","List 11","handrail",NA,315,5.24,1145,0.440329114,316,"BOI","-","-","Please name all of the ways you could use this object. Keep in mind that one object can have many uses. Separate your responses with a comma.",NA,"y",40182,NA,NA,2542,38783,NA,NA,NA,"hold for support, grind down it on a skateboard, slide down it on your front",1
"5d13d6a2d4888600182efdd6","jeyl7j2g0i","Affordance Norms_Prolific",1,21,"2023-07-21T16:47:59+00:00",49.102020025253,11,"updated stim.csv","Version11.csv","Version 11","List 11","masseur",NA,319,5.16,2776,0.22608946,320,"BOI","-","-","Please name all of the ways you could use this object. Keep in mind that one object can have many uses. Separate your responses with a comma.",NA,"y",48234,NA,NA,4994,29385,NA,NA,NA,"release muscle tension, provide fresh towels, ",1
"5d13d6a2d4888600182efdd6","jeyl7j2g0i","Affordance Norms_Prolific",1,22,"2023-07-21T16:49:18+00:00",79.461133003235,11,"updated stim.csv","Version11.csv","Version 11","List 11","blowgun",NA,305,5.88,452,0.300410442,306,"BOI","-","-","Please name all of the ways you could use this object. Keep in mind that one object can have many uses. Separate your responses with a comma.",NA,"y",78530,NA,NA,17251,77135,NA,NA,NA,"shoot darts, bop people with it, talk through it to distort voice, pretend it is a spy glass",1
"5d13d6a2d4888600182efdd6","jeyl7j2g0i","Affordance Norms_Prolific",1,23,"2023-07-21T16:49:59+00:00",40.642197847366,11,"updated stim.csv","Version11.csv","Version 11","List 11","condominium",NA,312,4.666666667,1284,0.898411228,313,"BOI","-","-","Please name all of the ways you could use this object. Keep in mind that one object can have many uses. Separate your responses with a comma.",NA,"y",39715,NA,NA,26778,38407,NA,NA,NA,"store stuff, host parties, cook food, sleep in",1
"5d13d6a2d4888600182efdd6","jeyl7j2g0i","Affordance Norms_Prolific",1,24,"2023-07-21T16:50:39+00:00",39.661194086075,11,"updated stim.csv","Version11.csv","Version 11","List 11","newsprint",NA,320,5,1675,0.906722331,321,"BOI","-","-","Please name all of the ways you could use this object. Keep in mind that one object can have many uses. Separate your responses with a comma.",NA,"y",39073,NA,NA,5564,37915,NA,NA,NA,"wrapper for takeaway food, read the news from it, burn it, scrunch it into paper balls and throw at people",1
"5d13d6a2d4888600182efdd6","jeyl7j2g0i","Affordance Norms_Prolific",1,25,"2023-07-21T16:51:53+00:00",73.918364048004,11,"updated stim.csv","Version11.csv","Version 11","List 11","buttercup",NA,309,4.851851852,56,0.982478451,310,"BOI","-","-","Please name all of the ways you could use this object. Keep in mind that one object can have many uses. Separate your responses with a comma.",NA,"y",73033,NA,NA,27810,71736,NA,NA,NA,"medicinal use, use for floral display, scatter the petals",1
"5d13d6a2d4888600182efdd6","jeyl7j2g0i","Affordance Norms_Prolific",1,26,"2023-07-21T16:52:54+00:00",61.185636997223,11,"updated stim.csv","Version11.csv","Version 11","List 11","camisole",NA,310,5.590909091,1004,0.687807092,311,"BOI","-","-","Please name all of the ways you could use this object. Keep in mind that one object can have many uses. Separate your responses with a comma.",NA,"y",60422,NA,NA,28767,59082,NA,NA,NA,"wear them, burn the material for heat",1
"5d13d6a2d4888600182efdd6","jeyl7j2g0i","Affordance Norms_Prolific",1,27,"2023-07-21T16:53:52+00:00",58.16149687767,11,"updated stim.csv","Version11.csv","Version 11","List 11","garbage",NA,314,5,1017,0.528229772,315,"BOI","-","-","Please name all of the ways you could use this object. Keep in mind that one object can have many uses. Separate your responses with a comma.",NA,"y",57303,NA,NA,25960,35689,NA,NA,NA,"burn it for heat, recycle it, ",1
"5d13d6a2d4888600182efdd6","jeyl7j2g0i","Affordance Norms_Prolific",1,28,"2023-07-21T16:55:26+00:00",94.32053399086,11,"updated stim.csv","Version11.csv","Version 11","List 11","publication",NA,326,6.409090909,1856,0.49712645,327,"BOI","-","-","Please name all of the ways you could use this object. Keep in mind that one object can have many uses. Separate your responses with a comma.",NA,"y",93468,NA,NA,6095,85887,NA,NA,NA,"write a book, post on social media, write a letter",1
"5d13d6a2d4888600182efdd6","jeyl7j2g0i","Affordance Norms_Prolific",1,29,"2023-07-21T16:56:07+00:00",41.175045013428,11,"updated stim.csv","Version11.csv","Version 11","List 11","barman",NA,303,5.125,716,0.683574325,304,"BOI","-","-","Please name all of the ways you could use this object. Keep in mind that one object can have many uses. Separate your responses with a comma.",NA,"y",40440,NA,NA,5898,38135,NA,NA,NA,"pour a drink, provide someone to speak to when drinking, make cocktails",1
"5d13d6a2d4888600182efdd6","jeyl7j2g0i","Affordance Norms_Prolific",1,30,"2023-07-21T16:56:30+00:00",23.062425136566,11,"updated stim.csv","Version11.csv","Version 11","List 11","cookhouse",NA,313,4.72,2525,0.735803548,314,"BOI","-","-","Please name all of the ways you could use this object. Keep in mind that one object can have many uses. Separate your responses with a comma.",NA,"y",22221,NA,NA,5878,20003,NA,NA,NA,"cook food, keep warm inside, store food in",1
"5d13d6a2d4888600182efdd6","jeyl7j2g0i","Affordance Norms_Prolific",1,31,"2023-07-21T16:58:04+00:00",93.881950855255,11,"updated stim.csv","Version11.csv","Version 11","List 11","yourself",NA,301,5.285714286,12,0.916607563,302,"BOI","-","-","Please name all of the ways you could use this object. Keep in mind that one object can have many uses. Separate your responses with a comma.",NA,"y",93018,NA,NA,8296,88039,NA,NA,NA,"carry out prolific surveys, use mind and body to make money, drive a car, jump up and down, run around, pedal a bike, pick things up, plant a tree",1
"5d13d6a2d4888600182efdd6","jeyl7j2g0i","Affordance Norms_Prolific",1,32,"2023-07-21T16:59:06+00:00",61.308379173279,11,"updated stim.csv","Version11.csv","Version 11","List 11","clips",NA,311,5.652173913,374,0.608581961,312,"BOI","-","-","Please name all of the ways you could use this object. Keep in mind that one object can have many uses. Separate your responses with a comma.",NA,"y",60508,NA,NA,2127,59408,NA,NA,NA,"hold paper in place, hold hair in place, pin back curtains",1
"5d13d6a2d4888600182efdd6","jeyl7j2g0i","Affordance Norms_Prolific",1,33,"2023-07-21T17:00:34+00:00",88.241878986359,11,"updated stim.csv","Version11.csv","Version 11","List 11","bread",NA,307,4.416666667,266,0.076800302,308,"BOI","-","-","Please name all of the ways you could use this object. Keep in mind that one object can have many uses. Separate your responses with a comma.",NA,"y",87490,NA,NA,2653,75121,NA,NA,NA,"eat it, cut a square and use as paint stamp, use it as a door stop, ",1
"5d13d6a2d4888600182efdd6","jeyl7j2g0i","Affordance Norms_Prolific",1,34,"2023-07-21T17:01:10+00:00",36.115882873535,11,"updated stim.csv","Version11.csv","Version 11","List 11","punter",NA,327,4.925925926,216,0.526458122,328,"BOI","-","-","Please name all of the ways you could use this object. Keep in mind that one object can have many uses. Separate your responses with a comma.",NA,"y",35324,NA,NA,21901,31464,NA,NA,NA,"run around, kick a ball, catch a ball",1
"5d13d6a2d4888600182efdd6","jeyl7j2g0i","Affordance Norms_Prolific",1,35,"2023-07-21T17:01:55+00:00",45.115284919739,11,"updated stim.csv","Version11.csv","Version 11","List 11","briefcase",NA,308,5.041666667,2150,0.369250805,309,"BOI","-","-","Please name all of the ways you could use this object. Keep in mind that one object can have many uses. Separate your responses with a comma.",NA,"y",44338,NA,NA,1848,39925,NA,NA,NA,"store paper work, store calculator, store clothes, hide confidential information inside, use as weapon against potential robbers",1
"5d13d6a2d4888600182efdd6","jeyl7j2g0i","Affordance Norms_Prolific",1,36,"2023-07-21T17:03:06+00:00",71.04914522171,11,"updated stim.csv","Version11.csv","Version 11","List 11","joint",NA,317,5.80952381,202,0.73583162,318,"BOI","-","-","Please name all of the ways you could use this object. Keep in mind that one object can have many uses. Separate your responses with a comma.",NA,"y",70032,NA,NA,3939,47125,NA,NA,NA,"smoke it, sell it, ",1
"5d13d6a2d4888600182efdd6","jeyl7j2g0i","Affordance Norms_Prolific",1,37,"2023-07-21T17:04:04+00:00",58.017223834991,11,"updated stim.csv","Version11.csv","Version 11","List 11","spine",NA,329,4.5,1679,0.318991097,330,"BOI","-","-","Please name all of the ways you could use this object. Keep in mind that one object can have many uses. Separate your responses with a comma.",NA,"y",57113,NA,NA,11889,55881,NA,NA,NA,"hold your body up straight, pick up objects, provide horsey back rides, piggy backs, leap frog platform",1
"5d13d6a2d4888600182efdd6","jeyl7j2g0i","Affordance Norms_Prolific",1,38,"2023-07-21T17:05:29+00:00",84.344220161438,11,"updated stim.csv","Version11.csv","Version 11","List 11","landlady",NA,318,4.304347826,1718,0.363544582,319,"BOI","-","-","Please name all of the ways you could use this object. Keep in mind that one object can have many uses. Separate your responses with a comma.",NA,"y",80399,NA,NA,58630,71173,NA,NA,NA,"to cook my meals, to provide accomodation, ",1
"5d13d6a2d4888600182efdd6","jeyl7j2g0i","Affordance Norms_Prolific",1,39,"2023-07-21T17:06:12+00:00",43.697535991669,11,"updated stim.csv","Version11.csv","Version 11","List 11","shellfish",NA,328,5.12,1870,0.759142375,329,"BOI","-","-","Please name all of the ways you could use this object. Keep in mind that one object can have many uses. Separate your responses with a comma.",NA,"y",42538,NA,NA,2797,41629,NA,NA,NA,"eat the animal inside, store stuff in the shell, make noise by banging the shell on something hard, use the shell for decorative purposes",1
"5d13d6a2d4888600182efdd6","jeyl7j2g0i","Affordance Norms_Prolific",1,40,"2023-07-21T17:06:44+00:00",31.616244792938,11,"updated stim.csv","Version11.csv","Version 11","List 11","hound",NA,316,6,644,0.631792512,317,"BOI","-","-","Please name all of the ways you could use this object. Keep in mind that one object can have many uses. Separate your responses with a comma.",NA,"y",29407,NA,NA,6272,27751,NA,NA,NA,"provide companionship, seek out prey, let it eat up left overs",1
"5d4fedfac088850017ec5bff","s7j0h6srlw","Affordance Norms_Prolific",1,11,"2023-07-21T14:36:47+00:00",25.914412975311,8,"updated stim.csv","Version8.csv","Version 8","List 8","submarine",NA,223,4.454545455,2571,0.678876617,224,"BOI","-","-","Please name all of the ways you could use this object. Keep in mind that one object can have many uses. Separate your responses with a comma.",NA,"y",24790,NA,NA,9438,23304,NA,NA,NA,"in the sea,toy to play with,live in",1
"5d4fedfac088850017ec5bff","s7j0h6srlw","Affordance Norms_Prolific",1,12,"2023-07-21T14:37:36+00:00",49.245886087418,8,"updated stim.csv","Version8.csv","Version 8","List 8","him",NA,211,5.375,852,0.400751294,212,"BOI","-","-","Please name all of the ways you could use this object. Keep in mind that one object can have many uses. Separate your responses with a comma.",NA,"y",48096,NA,NA,4673,46248,NA,NA,NA,"talking,as a partner, for help, employee, employer, dancing, flirting, running, hitting",1
"5d4fedfac088850017ec5bff","s7j0h6srlw","Affordance Norms_Prolific",1,13,"2023-07-21T14:38:04+00:00",27.547214031219,8,"updated stim.csv","Version8.csv","Version 8","List 8","shed",NA,219,4.64,2738,0.501435614,220,"BOI","-","-","Please name all of the ways you could use this object. Keep in mind that one object can have many uses. Separate your responses with a comma.",NA,"y",25777,NA,NA,3353,23072,NA,NA,NA,"for tools, to escape, to hide, to protect, to live, to shelter",1
"5d4fedfac088850017ec5bff","s7j0h6srlw","Affordance Norms_Prolific",1,14,"2023-07-21T14:38:20+00:00",16.358165979385,8,"updated stim.csv","Version8.csv","Version 8","List 8","piglet",NA,235,4.4,1625,0.181387363,236,"BOI","-","-","Please name all of the ways you could use this object. Keep in mind that one object can have many uses. Separate your responses with a comma.",NA,"y",15119,NA,NA,2291,13845,NA,NA,NA,"petting, eating, playing, looking at",1
"5d4fedfac088850017ec5bff","s7j0h6srlw","Affordance Norms_Prolific",1,15,"2023-07-21T14:38:45+00:00",25.17781496048,8,"updated stim.csv","Version8.csv","Version 8","List 8","lily",NA,233,5.545454545,1294,0.814565241,234,"BOI","-","-","Please name all of the ways you could use this object. Keep in mind that one object can have many uses. Separate your responses with a comma.",NA,"y",23496,NA,NA,1747,22104,NA,NA,NA,"looking at, cutting down, smelling, decorative",1
"5d4fedfac088850017ec5bff","s7j0h6srlw","Affordance Norms_Prolific",1,16,"2023-07-21T14:39:08+00:00",22.730700016022,8,"updated stim.csv","Version8.csv","Version 8","List 8","saloon",NA,237,4.571428571,82,0.707229995,238,"BOI","-","-","Please name all of the ways you could use this object. Keep in mind that one object can have many uses. Separate your responses with a comma.",NA,"y",21752,NA,NA,3695,18976,NA,NA,NA,"getting hair done, nails done, socialising",1
"5d4fedfac088850017ec5bff","s7j0h6srlw","Affordance Norms_Prolific",1,17,"2023-07-21T14:39:43+00:00",35.463418006897,8,"updated stim.csv","Version8.csv","Version 8","List 8","testicle",NA,224,4.409090909,925,0.140617165,225,"BOI","-","-","Please name all of the ways you could use this object. Keep in mind that one object can have many uses. Separate your responses with a comma.",NA,"y",34594,NA,NA,3142,32159,NA,NA,NA,"making children, touching, kicking,",1
"5d4fedfac088850017ec5bff","s7j0h6srlw","Affordance Norms_Prolific",1,18,"2023-07-21T14:40:31+00:00",47.936731100082,8,"updated stim.csv","Version8.csv","Version 8","List 8","stoneware",NA,222,4.333333333,1183,0.64899298,223,"BOI","-","-","Please name all of the ways you could use this object. Keep in mind that one object can have many uses. Separate your responses with a comma.",NA,"y",45435,NA,NA,17741,43856,NA,NA,NA,"eating, drinking, smashing, throwing, breaking, cooking",0.941
"5d4fedfac088850017ec5bff","s7j0h6srlw","Affordance Norms_Prolific",1,19,"2023-07-21T14:40:55+00:00",23.853672981262,8,"updated stim.csv","Version8.csv","Version 8","List 8","hedgehog",NA,229,4.48,1351,0.733873145,230,"BOI","-","-","Please name all of the ways you could use this object. Keep in mind that one object can have many uses. Separate your responses with a comma.",NA,"y",23212,NA,NA,3685,15362,NA,NA,NA,"petting, stroking, ",1
"5d4fedfac088850017ec5bff","s7j0h6srlw","Affordance Norms_Prolific",1,20,"2023-07-21T14:41:49+00:00",53.999082803726,8,"updated stim.csv","Version8.csv","Version 8","List 8","armpit",NA,227,5.826086957,5,0.076040939,228,"BOI","-","-","Please name all of the ways you could use this object. Keep in mind that one object can have many uses. Separate your responses with a comma.",NA,"y",52493,NA,NA,27386,51677,NA,NA,NA,"putting on deoderant, scratching, smelling, keeping hands warm",1
"5d4fedfac088850017ec5bff","s7j0h6srlw","Affordance Norms_Prolific",1,21,"2023-07-21T14:42:24+00:00",34.419944047928,8,"updated stim.csv","Version8.csv","Version 8","List 8","ladybug",NA,232,4.272727273,445,0.110016369,233,"BOI","-","-","Please name all of the ways you could use this object. Keep in mind that one object can have many uses. Separate your responses with a comma.",NA,"y",32317,NA,NA,3355,31683,NA,NA,NA,"looking at, crawling on you, to help teach children about wildlife",1
"5d4fedfac088850017ec5bff","s7j0h6srlw","Affordance Norms_Prolific",1,22,"2023-07-21T14:42:46+00:00",22.04542016983,8,"updated stim.csv","Version8.csv","Version 8","List 8","nettle",NA,212,4.44,2187,0.118404242,213,"BOI","-","-","Please name all of the ways you could use this object. Keep in mind that one object can have many uses. Separate your responses with a comma.",NA,"y",21221,NA,NA,2935,20566,NA,NA,NA,"stinging, tea, as a lesson",1
"5d4fedfac088850017ec5bff","s7j0h6srlw","Affordance Norms_Prolific",1,23,"2023-07-21T14:43:14+00:00",28.481638908386,8,"updated stim.csv","Version8.csv","Version 8","List 8","yolk",NA,226,4.35,1937,0.497580512,227,"BOI","-","-","Please name all of the ways you could use this object. Keep in mind that one object can have many uses. Separate your responses with a comma.",NA,"y",27501,NA,NA,4547,25974,NA,NA,NA,"in food/cooking, teaching about life, throwing, meringue ",1
"5d4fedfac088850017ec5bff","s7j0h6srlw","Affordance Norms_Prolific",1,24,"2023-07-21T14:43:52+00:00",37.765095949173,8,"updated stim.csv","Version8.csv","Version 8","List 8","baseboard",NA,239,4.52,691,0.967555981,240,"BOI","-","-","Please name all of the ways you could use this object. Keep in mind that one object can have many uses. Separate your responses with a comma.",NA,"y",36819,NA,NA,17340,35174,NA,NA,NA,"building, renovations, thorwing, kicking, hitting, hammering",0.931
"5d4fedfac088850017ec5bff","s7j0h6srlw","Affordance Norms_Prolific",1,25,"2023-07-21T14:44:20+00:00",28.3946621418,8,"updated stim.csv","Version8.csv","Version 8","List 8","woodcarver",NA,225,5.807692308,894,0.26688468,226,"BOI","-","-","Please name all of the ways you could use this object. Keep in mind that one object can have many uses. Separate your responses with a comma.",NA,"y",27622,NA,NA,2437,26568,NA,NA,NA,"woodwork, building, renovation, selling ",1
"5d4fedfac088850017ec5bff","s7j0h6srlw","Affordance Norms_Prolific",1,26,"2023-07-21T14:44:38+00:00",17.395001888275,8,"updated stim.csv","Version8.csv","Version 8","List 8","nipple",NA,213,4.92,76,0.32863745,214,"BOI","-","-","Please name all of the ways you could use this object. Keep in mind that one object can have many uses. Separate your responses with a comma.",NA,"y",16656,NA,NA,2931,12269,NA,NA,NA,"milk, piercing",1
"5d4fedfac088850017ec5bff","s7j0h6srlw","Affordance Norms_Prolific",1,27,"2023-07-21T14:45:10+00:00",32.474976062775,8,"updated stim.csv","Version8.csv","Version 8","List 8","sapling",NA,216,5.260869565,1860,0.771460967,217,"BOI","-","-","Please name all of the ways you could use this object. Keep in mind that one object can have many uses. Separate your responses with a comma.",NA,"y",30928,NA,NA,3365,30281,NA,NA,NA,"planting, teaching about life cycle, making plants",1
"5d4fedfac088850017ec5bff","s7j0h6srlw","Affordance Norms_Prolific",1,28,"2023-07-21T14:45:32+00:00",21.982092857361,8,"updated stim.csv","Version8.csv","Version 8","List 8","peel",NA,214,4.84,2302,0.90340916,215,"BOI","-","-","Please name all of the ways you could use this object. Keep in mind that one object can have many uses. Separate your responses with a comma.",NA,"y",18674,NA,NA,3829,17963,NA,NA,NA,"in baking/cooking, compost, scent/smelling",1
"5d4fedfac088850017ec5bff","s7j0h6srlw","Affordance Norms_Prolific",1,29,"2023-07-21T14:45:56+00:00",23.953732967377,8,"updated stim.csv","Version8.csv","Version 8","List 8","linoleum",NA,234,6.038461538,260,0.738290174,235,"BOI","-","-","Please name all of the ways you could use this object. Keep in mind that one object can have many uses. Separate your responses with a comma.",NA,"y",23314,NA,NA,2188,22604,NA,NA,NA,"walking on, dancing on, running on, jumping on, protecting wood flooring",1
"5d4fedfac088850017ec5bff","s7j0h6srlw","Affordance Norms_Prolific",1,30,"2023-07-21T14:46:11+00:00",15.372707128525,8,"updated stim.csv","Version8.csv","Version 8","List 8","bellboy",NA,240,5.47826087,2624,0.573904042,241,"BOI","-","-","Please name all of the ways you could use this object. Keep in mind that one object can have many uses. Separate your responses with a comma.",NA,"y",14356,NA,NA,2629,12621,NA,NA,NA,"help, carrying bags, talking",1
"5d4fedfac088850017ec5bff","s7j0h6srlw","Affordance Norms_Prolific",1,31,"2023-07-21T14:46:27+00:00",15.935662031174,8,"updated stim.csv","Version8.csv","Version 8","List 8","picnicker",NA,215,4.62962963,1519,0.262823842,216,"BOI","-","-","Please name all of the ways you could use this object. Keep in mind that one object can have many uses. Separate your responses with a comma.",NA,"y",15178,NA,NA,4266,13862,NA,NA,NA,"food, talking, help, friendship ",1
"5d4fedfac088850017ec5bff","s7j0h6srlw","Affordance Norms_Prolific",1,32,"2023-07-21T14:47:13+00:00",45.915225982666,8,"updated stim.csv","Version8.csv","Version 8","List 8","speakers",NA,221,4.48,1689,0.151002659,222,"BOI","-","-","Please name all of the ways you could use this object. Keep in mind that one object can have many uses. Separate your responses with a comma.",NA,"y",44828,NA,NA,2335,44213,NA,NA,NA,"listening to music, playing music, dj booth, party, get together",1
"5d4fedfac088850017ec5bff","s7j0h6srlw","Affordance Norms_Prolific",1,33,"2023-07-21T14:47:24+00:00",10.412703037262,8,"updated stim.csv","Version8.csv","Version 8","List 8","soybean",NA,220,6.24137931,103,0.11835624,221,"BOI","-","-","Please name all of the ways you could use this object. Keep in mind that one object can have many uses. Separate your responses with a comma.",NA,"y",9435,NA,NA,2186,8578,NA,NA,NA,"cooking, throwing, eating",1
"5d4fedfac088850017ec5bff","s7j0h6srlw","Affordance Norms_Prolific",1,34,"2023-07-21T14:47:38+00:00",14.036973953247,8,"updated stim.csv","Version8.csv","Version 8","List 8","lad",NA,231,4.545454545,558,0.033017559,232,"BOI","-","-","Please name all of the ways you could use this object. Keep in mind that one object can have many uses. Separate your responses with a comma.",NA,"y",13523,NA,NA,2755,12697,NA,NA,NA,"talking, helping, friendship, realtionship",1
"5d4fedfac088850017ec5bff","s7j0h6srlw","Affordance Norms_Prolific",1,35,"2023-07-21T14:47:56+00:00",18.645175933838,8,"updated stim.csv","Version8.csv","Version 8","List 8","insulin",NA,230,6,1060,0.931705867,231,"BOI","-","-","Please name all of the ways you could use this object. Keep in mind that one object can have many uses. Separate your responses with a comma.",NA,"y",17972,NA,NA,4187,17326,NA,NA,NA,"help with diabetes, helping others",1
"5d4fedfac088850017ec5bff","s7j0h6srlw","Affordance Norms_Prolific",1,36,"2023-07-21T14:48:20+00:00",23.602591991425,8,"updated stim.csv","Version8.csv","Version 8","List 8","sand",NA,238,5.62962963,2010,0.625895758,239,"BOI","-","-","Please name all of the ways you could use this object. Keep in mind that one object can have many uses. Separate your responses with a comma.",NA,"y",22837,NA,NA,2840,19181,NA,NA,NA,"sandcastles, throwing, running on, jumping on, walking on, laying on ",1
"5d4fedfac088850017ec5bff","s7j0h6srlw","Affordance Norms_Prolific",1,37,"2023-07-21T14:48:43+00:00",22.952706098557,8,"updated stim.csv","Version8.csv","Version 8","List 8","semen",NA,218,5.090909091,1863,0.914778388,219,"BOI","-","-","Please name all of the ways you could use this object. Keep in mind that one object can have many uses. Separate your responses with a comma.",NA,"y",21966,NA,NA,3331,15207,NA,NA,NA,"making children, donating,",1
"5d4fedfac088850017ec5bff","s7j0h6srlw","Affordance Norms_Prolific",1,38,"2023-07-21T14:49:16+00:00",33.470298051834,8,"updated stim.csv","Version8.csv","Version 8","List 8","bunion",NA,228,6.16,2535,0.473992945,229,"BOI","-","-","Please name all of the ways you could use this object. Keep in mind that one object can have many uses. Separate your responses with a comma.",NA,"y",31800,NA,NA,10551,31073,NA,NA,NA,"to scare people, to help medical professionals gain experience ",1
"5d4fedfac088850017ec5bff","s7j0h6srlw","Affordance Norms_Prolific",1,39,"2023-07-21T14:49:51+00:00",34.943182945251,8,"updated stim.csv","Version8.csv","Version 8","List 8","rosewater",NA,236,5.269230769,2335,0.866817871,237,"BOI","-","-","Please name all of the ways you could use this object. Keep in mind that one object can have many uses. Separate your responses with a comma.",NA,"y",33189,NA,NA,28631,32438,NA,NA,NA,"skincare, perfume",0.627
"5d4fedfac088850017ec5bff","s7j0h6srlw","Affordance Norms_Prolific",1,40,"2023-07-21T14:50:24+00:00",32.182635068893,8,"updated stim.csv","Version8.csv","Version 8","List 8","scalp",NA,217,5.714285714,189,0.160382134,218,"BOI","-","-","Please name all of the ways you could use this object. Keep in mind that one object can have many uses. Separate your responses with a comma.",NA,"y",31354,NA,NA,3471,22630,NA,NA,NA,"scratching, checking for sunburn,",1
"5d64426653ba680017d9f63a","t8fmg51350","Affordance Norms_Prolific",1,11,"2023-07-21T16:02:31+00:00",95.267518997192,1,"updated stim.csv","Version1.csv","Version 1","List 1","dipper",NA,25,4.333333333,252,0.347548191,26,"BOI","-","-","Please name all of the ways you could use this object. Keep in mind that one object can have many uses. Separate your responses with a comma.",NA,"y",94705,NA,NA,35023,92938,NA,NA,NA,"observe, watch, monitor, sight, photograph, film, enjoy",0.534
"5d64426653ba680017d9f63a","t8fmg51350","Affordance Norms_Prolific",1,12,"2023-07-21T16:04:05+00:00",94.59614610672,1,"updated stim.csv","Version1.csv","Version 1","List 1","marketeer",NA,15,4.666666667,1168,0.129741388,16,"BOI","-","-","Please name all of the ways you could use this object. Keep in mind that one object can have many uses. Separate your responses with a comma.",NA,"y",94028,NA,NA,30584,88070,NA,NA,NA,"buy, sell, talk, dialogue, communicate, exchange",0.416
"5d64426653ba680017d9f63a","t8fmg51350","Affordance Norms_Prolific",1,13,"2023-07-21T16:05:34+00:00",88.415408849716,1,"updated stim.csv","Version1.csv","Version 1","List 1","groin",NA,3,5.76,1666,0.330502966,4,"BOI","-","-","Please name all of the ways you could use this object. Keep in mind that one object can have many uses. Separate your responses with a comma.",NA,"y",87829,NA,NA,37277,77866,NA,NA,NA,"pain, strain, move",0.564
"5d64426653ba680017d9f63a","t8fmg51350","Affordance Norms_Prolific",1,14,"2023-07-21T16:07:16+00:00",102.14122796059,1,"updated stim.csv","Version1.csv","Version 1","List 1","seashore",NA,20,5.458333333,2953,0.249710528,21,"BOI","-","-","Please name all of the ways you could use this object. Keep in mind that one object can have many uses. Separate your responses with a comma.",NA,"y",101160,NA,NA,21675,93113,NA,NA,NA,"enjoy, relax, lie down, photograph, shoot, film ",0.457
"5d64426653ba680017d9f63a","t8fmg51350","Affordance Norms_Prolific",1,15,"2023-07-21T16:08:07+00:00",51.357932090759,1,"updated stim.csv","Version1.csv","Version 1","List 1","waistcoat",NA,10,6.25,323,0.73335018,11,"BOI","-","-","Please name all of the ways you could use this object. Keep in mind that one object can have many uses. Separate your responses with a comma.",NA,"y",50681,NA,NA,21700,46505,NA,NA,NA,"wear, buy, sell, enjoy",0.488
"5d64426653ba680017d9f63a","t8fmg51350","Affordance Norms_Prolific",1,16,"2023-07-21T16:08:47+00:00",39.246721982956,1,"updated stim.csv","Version1.csv","Version 1","List 1","stationary",NA,6,4.375,1389,0.172930083,7,"BOI","-","-","Please name all of the ways you could use this object. Keep in mind that one object can have many uses. Separate your responses with a comma.",NA,"y",38648,NA,NA,11365,37240,NA,NA,NA,"buy, sell, pick, select",0.613
"5d64426653ba680017d9f63a","t8fmg51350","Affordance Norms_Prolific",1,17,"2023-07-21T16:09:46+00:00",59.837577104568,1,"updated stim.csv","Version1.csv","Version 1","List 1","dye",NA,26,4.727272727,2510,0.797812576,27,"BOI","-","-","Please name all of the ways you could use this object. Keep in mind that one object can have many uses. Separate your responses with a comma.",NA,"y",59043,NA,NA,22190,57551,NA,NA,NA,"paint, decorate, change, mix",0.402
"5d64426653ba680017d9f63a","t8fmg51350","Affordance Norms_Prolific",1,18,"2023-07-21T16:10:30+00:00",43.458313941956,1,"updated stim.csv","Version1.csv","Version 1","List 1","mint",NA,17,5.481481481,1600,0.476399064,18,"BOI","-","-","Please name all of the ways you could use this object. Keep in mind that one object can have many uses. Separate your responses with a comma.",NA,"y",43142,NA,NA,3023,35840,NA,NA,NA,"drink, smell, inhale",0.528
"5d64426653ba680017d9f63a","t8fmg51350","Affordance Norms_Prolific",1,19,"2023-07-21T16:11:24+00:00",53.731672048569,1,"updated stim.csv","Version1.csv","Version 1","List 1","croquet",NA,24,5.347826087,469,0.48837589,25,"BOI","-","-","Please name all of the ways you could use this object. Keep in mind that one object can have many uses. Separate your responses with a comma.",NA,"y",53089,NA,NA,10717,14521,NA,NA,NA,"play, enjoy",0.406
"5d64426653ba680017d9f63a","t8fmg51350","Affordance Norms_Prolific",1,20,"2023-07-21T16:13:26+00:00",122.18334794044,1,"updated stim.csv","Version1.csv","Version 1","List 1","chow",NA,30,5.64,2491,0.148115672,31,"BOI","-","-","Please name all of the ways you could use this object. Keep in mind that one object can have many uses. Separate your responses with a comma.",NA,"y",121506,NA,NA,14287,120400,NA,NA,NA,"look after, take care, raise, enjoy, love, play, feed",0.4
"5d64426653ba680017d9f63a","t8fmg51350","Affordance Norms_Prolific",1,21,"2023-07-21T16:14:43+00:00",76.719107866287,1,"updated stim.csv","Version1.csv","Version 1","List 1","hosiery",NA,4,5.416666667,1464,0.391267155,5,"BOI","-","-","Please name all of the ways you could use this object. Keep in mind that one object can have many uses. Separate your responses with a comma.",NA,"y",76052,NA,NA,24957,63762,NA,NA,NA,"wear, put on, take off, throw",0.402
"5d64426653ba680017d9f63a","t8fmg51350","Affordance Norms_Prolific",1,22,"2023-07-21T16:15:42+00:00",59.307946205139,1,"updated stim.csv","Version1.csv","Version 1","List 1","workbox",NA,7,6.230769231,308,0.981109369,8,"BOI","-","-","Please name all of the ways you could use this object. Keep in mind that one object can have many uses. Separate your responses with a comma.",NA,"y",58656,NA,NA,23679,36250,NA,NA,NA,"sort, rank, tidy up, classify, ",0.497
"5d64426653ba680017d9f63a","t8fmg51350","Affordance Norms_Prolific",1,23,"2023-07-21T16:16:45+00:00",63.351172924042,1,"updated stim.csv","Version1.csv","Version 1","List 1","juror",NA,8,5.454545455,1935,0.125396232,9,"BOI","-","-","Please name all of the ways you could use this object. Keep in mind that one object can have many uses. Separate your responses with a comma.",NA,"y",62755,NA,NA,14454,61098,NA,NA,NA,"sentence, decide, determine, deliberate",0.631
"5d64426653ba680017d9f63a","t8fmg51350","Affordance Norms_Prolific",1,24,"2023-07-21T16:17:38+00:00",53.251236915588,1,"updated stim.csv","Version1.csv","Version 1","List 1","pew",NA,1,4.538461538,764,0.261476603,2,"BOI","-","-","Please name all of the ways you could use this object. Keep in mind that one object can have many uses. Separate your responses with a comma.",NA,"y",52682,NA,NA,21749,51555,NA,NA,NA,"sit down, kneel down, stand up",0.375
"5d64426653ba680017d9f63a","t8fmg51350","Affordance Norms_Prolific",1,25,"2023-07-21T16:18:49+00:00",70.608870029449,1,"updated stim.csv","Version1.csv","Version 1","List 1","workshop",NA,29,5.88,1967,0.018459114,30,"BOI","-","-","Please name all of the ways you could use this object. Keep in mind that one object can have many uses. Separate your responses with a comma.",NA,"y",69624,NA,NA,29720,68294,NA,NA,NA,"repair, manufacture, create, construct",0.547
"5d64426653ba680017d9f63a","t8fmg51350","Affordance Norms_Prolific",1,26,"2023-07-21T16:20:25+00:00",95.962889909744,1,"updated stim.csv","Version1.csv","Version 1","List 1","penknife",NA,18,4.666666667,1815,0.413937663,19,"BOI","-","-","Please name all of the ways you could use this object. Keep in mind that one object can have many uses. Separate your responses with a comma.",NA,"y",95388,NA,NA,20801,93812,NA,NA,NA,"cut, open, unscrew, file",0.306
"5d64426653ba680017d9f63a","t8fmg51350","Affordance Norms_Prolific",1,27,"2023-07-21T16:21:11+00:00",45.553755044937,1,"updated stim.csv","Version1.csv","Version 1","List 1","goulash",NA,27,5.434782609,1877,0.096670334,28,"BOI","-","-","Please name all of the ways you could use this object. Keep in mind that one object can have many uses. Separate your responses with a comma.",NA,"y",44810,NA,NA,22643,42984,NA,NA,NA,"cook, eat, smell, enjoy",0.427
"5d64426653ba680017d9f63a","t8fmg51350","Affordance Norms_Prolific",1,28,"2023-07-21T16:22:33+00:00",82.117290973663,1,"updated stim.csv","Version1.csv","Version 1","List 1","debris",NA,13,4.444444444,1011,0.860315666,14,"BOI","-","-","Please name all of the ways you could use this object. Keep in mind that one object can have many uses. Separate your responses with a comma.",NA,"y",81510,NA,NA,33343,79927,NA,NA,NA,"clean, wipe, clear out, remove, dispose of, take out",0.449
"5d64426653ba680017d9f63a","t8fmg51350","Affordance Norms_Prolific",1,29,"2023-07-21T16:23:39+00:00",66.432013034821,1,"updated stim.csv","Version1.csv","Version 1","List 1","tapioca",NA,9,4.875,2448,0.423270691,10,"BOI","-","-","Please name all of the ways you could use this object. Keep in mind that one object can have many uses. Separate your responses with a comma.",NA,"y",65816,NA,NA,13485,63606,NA,NA,NA,"eat, smell, cook, cultivate",0.397
"5d64426653ba680017d9f63a","t8fmg51350","Affordance Norms_Prolific",1,30,"2023-07-21T16:24:27+00:00",47.83726811409,1,"updated stim.csv","Version1.csv","Version 1","List 1","stockbroker",NA,22,4.826086957,1618,0.113902737,23,"BOI","-","-","Please name all of the ways you could use this object. Keep in mind that one object can have many uses. Separate your responses with a comma.",NA,"y",47174,NA,NA,14671,45762,NA,NA,NA,"buy, sell, talk, argue, scream, tense",0.737
"5d64426653ba680017d9f63a","t8fmg51350","Affordance Norms_Prolific",1,31,"2023-07-21T16:25:22+00:00",55.141787052155,1,"updated stim.csv","Version1.csv","Version 1","List 1","knickers",NA,14,4.958333333,2722,0.368202979,15,"BOI","-","-","Please name all of the ways you could use this object. Keep in mind that one object can have many uses. Separate your responses with a comma.",NA,"y",54336,NA,NA,19312,51346,NA,NA,NA,"put on, take off, buy, sell",0.485
"5d64426653ba680017d9f63a","t8fmg51350","Affordance Norms_Prolific",1,32,"2023-07-21T16:26:31+00:00",69.280305862427,1,"updated stim.csv","Version1.csv","Version 1","List 1","kazoo",NA,23,4.84,1448,0.448711971,24,"BOI","-","-","Please name all of the ways you could use this object. Keep in mind that one object can have many uses. Separate your responses with a comma.",NA,"y",68623,NA,NA,19124,66602,NA,NA,NA,"play, listen, throw, hold, take",0.529
"5d64426653ba680017d9f63a","t8fmg51350","Affordance Norms_Prolific",1,33,"2023-07-21T16:27:25+00:00",53.530169010162,1,"updated stim.csv","Version1.csv","Version 1","List 1","buckwheat",NA,11,5.92,2708,0.629763414,12,"BOI","-","-","Please name all of the ways you could use this object. Keep in mind that one object can have many uses. Separate your responses with a comma.",NA,"y",52841,NA,NA,27433,42728,NA,NA,NA,"cultivate, buy, sell, look ",0.516
"5d64426653ba680017d9f63a","t8fmg51350","Affordance Norms_Prolific",1,34,"2023-07-21T16:28:36+00:00",71.331421136856,1,"updated stim.csv","Version1.csv","Version 1","List 1","me",NA,16,5.565217391,1319,0.287274537,17,"BOI","-","-","Please name all of the ways you could use this object. Keep in mind that one object can have many uses. Separate your responses with a comma.",NA,"y",70684,NA,NA,17775,65256,NA,NA,NA,"look after, care, love, hate, look, ignore",0.627
"5d64426653ba680017d9f63a","t8fmg51350","Affordance Norms_Prolific",1,35,"2023-07-21T16:30:04+00:00",87.425284862518,1,"updated stim.csv","Version1.csv","Version 1","List 1","rook",NA,19,5.227272727,1241,0.629851612,20,"BOI","-","-","Please name all of the ways you could use this object. Keep in mind that one object can have many uses. Separate your responses with a comma.",NA,"y",86818,NA,NA,23415,84555,NA,NA,NA,"look, glance, watch, photograph, film, care, feed",0.602
"5d64426653ba680017d9f63a","t8fmg51350","Affordance Norms_Prolific",1,36,"2023-07-21T16:31:04+00:00",60.00754904747,1,"updated stim.csv","Version1.csv","Version 1","List 1","rucksack",NA,28,5.142857143,2618,0.332046282,29,"BOI","-","-","Please name all of the ways you could use this object. Keep in mind that one object can have many uses. Separate your responses with a comma.",NA,"y",58229,NA,NA,18130,32917,NA,NA,NA,"carry, pack",0.5
"5d64426653ba680017d9f63a","t8fmg51350","Affordance Norms_Prolific",1,37,"2023-07-21T16:31:40+00:00",36.114358901978,1,"updated stim.csv","Version1.csv","Version 1","List 1","coverall",NA,12,5.777777778,2235,0.168486135,13,"BOI","-","-","Please name all of the ways you could use this object. Keep in mind that one object can have many uses. Separate your responses with a comma.",NA,"y",34871,NA,NA,15718,32598,NA,NA,NA,"wear, put on, take off",0.389
"5d64426653ba680017d9f63a","t8fmg51350","Affordance Norms_Prolific",1,38,"2023-07-21T16:32:59+00:00",79.433999061584,1,"updated stim.csv","Version1.csv","Version 1","List 1","matchwood",NA,5,5.833333333,1647,0.48521541,6,"BOI","-","-","Please name all of the ways you could use this object. Keep in mind that one object can have many uses. Separate your responses with a comma.",NA,"y",78857,NA,NA,40861,76697,NA,NA,NA,"stick, see, look, throw, remove",0.385
"5d64426653ba680017d9f63a","t8fmg51350","Affordance Norms_Prolific",1,39,"2023-07-21T16:34:40+00:00",100.47837805748,1,"updated stim.csv","Version1.csv","Version 1","List 1","wigwam",NA,2,6.416666667,2301,0.945985105,3,"BOI","-","-","Please name all of the ways you could use this object. Keep in mind that one object can have many uses. Separate your responses with a comma.",NA,"y",99870,NA,NA,44698,90071,NA,NA,NA,"pitch, take down, see, look",0.376
"5d64426653ba680017d9f63a","t8fmg51350","Affordance Norms_Prolific",1,40,"2023-07-21T16:35:50+00:00",70.566477060318,1,"updated stim.csv","Version1.csv","Version 1","List 1","spool",NA,21,4.4,243,0.879020377,22,"BOI","-","-","Please name all of the ways you could use this object. Keep in mind that one object can have many uses. Separate your responses with a comma.",NA,"y",69805,NA,NA,53412,68713,NA,NA,NA,"use, utilize, throw",0.214
"5d6a924a9e02d2001514311a","w4ahitrur8","Affordance Norms_Prolific",1,11,"2023-07-21T15:24:42+00:00",13.421576976776,20,"updated stim.csv","Version20.csv","Version 20","List 20","enamel",NA,581,5,2673,0.209563183,582,"BOI","-","-","Please name all of the ways you could use this object. Keep in mind that one object can have many uses. Separate your responses with a comma.",NA,"y",13077,NA,NA,5340,12579,NA,NA,NA,"tooth protection",1
"5d6a924a9e02d2001514311a","w4ahitrur8","Affordance Norms_Prolific",1,12,"2023-07-21T15:24:55+00:00",12.850707054138,20,"updated stim.csv","Version20.csv","Version 20","List 20","alfalfa",NA,595,4.384615385,1753,0.636652588,596,"BOI","-","-","Please name all of the ways you could use this object. Keep in mind that one object can have many uses. Separate your responses with a comma.",NA,"y",12431,NA,NA,11200,12022,NA,NA,NA,"no idea",1
"5d6a924a9e02d2001514311a","w4ahitrur8","Affordance Norms_Prolific",1,13,"2023-07-21T15:25:04+00:00",8.9649419784546,20,"updated stim.csv","Version20.csv","Version 20","List 20","costumer",NA,580,4.583333333,1360,0.834414594,581,"BOI","-","-","Please name all of the ways you could use this object. Keep in mind that one object can have many uses. Separate your responses with a comma.",NA,"y",8616,NA,NA,5415,7959,NA,NA,NA,"dressing people",1
"5d6a924a9e02d2001514311a","w4ahitrur8","Affordance Norms_Prolific",1,14,"2023-07-21T15:25:17+00:00",13.364725112915,20,"updated stim.csv","Version20.csv","Version 20","List 20","feline",NA,584,4.909090909,1257,0.234929947,585,"BOI","-","-","Please name all of the ways you could use this object. Keep in mind that one object can have many uses. Separate your responses with a comma.",NA,"y",12999,NA,NA,12112,12407,NA,NA,NA,"cats",1
"5d6a924a9e02d2001514311a","w4ahitrur8","Affordance Norms_Prolific",1,15,"2023-07-21T15:25:30+00:00",13.106417894363,20,"updated stim.csv","Version20.csv","Version 20","List 20","racket",NA,592,5.833333333,2394,0.383818306,593,"BOI","-","-","Please name all of the ways you could use this object. Keep in mind that one object can have many uses. Separate your responses with a comma.",NA,"y",12751,NA,NA,3463,12214,NA,NA,NA,"playing tennis,badminton,squash",1
"5d6a924a9e02d2001514311a","w4ahitrur8","Affordance Norms_Prolific",1,16,"2023-07-21T15:25:49+00:00",18.697345018387,20,"updated stim.csv","Version20.csv","Version 20","List 20","shamrock",NA,572,5.545454545,795,0.224312152,573,"BOI","-","-","Please name all of the ways you could use this object. Keep in mind that one object can have many uses. Separate your responses with a comma.",NA,"y",18308,NA,NA,6835,15059,NA,NA,NA,"to look irish, decorating ",1
"5d6a924a9e02d2001514311a","w4ahitrur8","Affordance Norms_Prolific",1,17,"2023-07-21T15:26:12+00:00",22.777112007141,20,"updated stim.csv","Version20.csv","Version 20","List 20","geranium",NA,597,5.517241379,1093,0.914098667,598,"BOI","-","-","Please name all of the ways you could use this object. Keep in mind that one object can have many uses. Separate your responses with a comma.",NA,"y",22370,NA,NA,16378,21745,NA,NA,NA,"decorate, grow",1
"5d6a924a9e02d2001514311a","w4ahitrur8","Affordance Norms_Prolific",1,18,"2023-07-21T15:26:19+00:00",7.2109439373016,20,"updated stim.csv","Version20.csv","Version 20","List 20","document",NA,596,4.714285714,706,0.39617836,597,"BOI","-","-","Please name all of the ways you could use this object. Keep in mind that one object can have many uses. Separate your responses with a comma.",NA,"y",6829,NA,NA,4877,5372,NA,NA,NA,"read",1
"5d6a924a9e02d2001514311a","w4ahitrur8","Affordance Norms_Prolific",1,19,"2023-07-21T15:26:44+00:00",24.87477517128,20,"updated stim.csv","Version20.csv","Version 20","List 20","girlfriend",NA,598,5.04,1798,0.141308746,599,"BOI","-","-","Please name all of the ways you could use this object. Keep in mind that one object can have many uses. Separate your responses with a comma.",NA,"y",24485,NA,NA,9420,23588,NA,NA,NA,"talk to, kiss, cuddle, play",1
"5d6a924a9e02d2001514311a","w4ahitrur8","Affordance Norms_Prolific",1,20,"2023-07-21T15:26:50+00:00",6.4798188209534,20,"updated stim.csv","Version20.csv","Version 20","List 20","cheerleader",NA,579,5.916666667,2628,0.900070154,580,"BOI","-","-","Please name all of the ways you could use this object. Keep in mind that one object can have many uses. Separate your responses with a comma.",NA,"y",5795,NA,NA,3626,5610,NA,NA,NA,"entertainment",1
"5d6a924a9e02d2001514311a","w4ahitrur8","Affordance Norms_Prolific",1,21,"2023-07-21T15:27:04+00:00",13.601089000702,20,"updated stim.csv","Version20.csv","Version 20","List 20","strongbox",NA,574,5.625,589,0.771924307,575,"BOI","-","-","Please name all of the ways you could use this object. Keep in mind that one object can have many uses. Separate your responses with a comma.",NA,"y",13254,NA,NA,6213,12613,NA,NA,NA,"secure things, lock things away",1
"5d6a924a9e02d2001514311a","w4ahitrur8","Affordance Norms_Prolific",1,22,"2023-07-21T15:27:10+00:00",6.1103880405426,20,"updated stim.csv","Version20.csv","Version 20","List 20","gymnast",NA,587,4.538461538,47,0.730388709,588,"BOI","-","-","Please name all of the ways you could use this object. Keep in mind that one object can have many uses. Separate your responses with a comma.",NA,"y",5759,NA,NA,1831,5574,NA,NA,NA,"entertainment",1
"5d6a924a9e02d2001514311a","w4ahitrur8","Affordance Norms_Prolific",1,23,"2023-07-21T15:27:39+00:00",28.436837911606,20,"updated stim.csv","Version20.csv","Version 20","List 20","newsagent",NA,589,6.173913043,315,0.727607181,590,"BOI","-","-","Please name all of the ways you could use this object. Keep in mind that one object can have many uses. Separate your responses with a comma.",NA,"y",28091,NA,NA,4178,27986,NA,NA,NA,"buy newspapers, talk to, buy groceries",1
"5d6a924a9e02d2001514311a","w4ahitrur8","Affordance Norms_Prolific",1,24,"2023-07-21T15:27:42+00:00",3.5908260345459,20,"updated stim.csv","Version20.csv","Version 20","List 20","model",NA,588,4.916666667,344,0.678293363,589,"BOI","-","-","Please name all of the ways you could use this object. Keep in mind that one object can have many uses. Separate your responses with a comma.",NA,"y",3243,NA,NA,1691,2906,NA,NA,NA,"look at",1
"5d6a924a9e02d2001514311a","w4ahitrur8","Affordance Norms_Prolific",1,25,"2023-07-21T15:27:49+00:00",6.3789370059967,20,"updated stim.csv","Version20.csv","Version 20","List 20","hairline",NA,599,6.130434783,2527,0.499161262,600,"BOI","-","-","Please name all of the ways you could use this object. Keep in mind that one object can have many uses. Separate your responses with a comma.",NA,"y",6032,NA,NA,2040,5504,NA,NA,NA,"cut, style",1
"5d6a924a9e02d2001514311a","w4ahitrur8","Affordance Norms_Prolific",1,26,"2023-07-21T15:27:53+00:00",4.5604541301727,20,"updated stim.csv","Version20.csv","Version 20","List 20","programmer",NA,571,5.2,1000,0.795806976,572,"BOI","-","-","Please name all of the ways you could use this object. Keep in mind that one object can have many uses. Separate your responses with a comma.",NA,"y",4186,NA,NA,2666,3105,NA,NA,NA,"code",1
"5d6a924a9e02d2001514311a","w4ahitrur8","Affordance Norms_Prolific",1,27,"2023-07-21T15:28:05+00:00",12.105484962463,20,"updated stim.csv","Version20.csv","Version 20","List 20","enemy",NA,582,5.083333333,2309,0.909423363,583,"BOI","-","-","Please name all of the ways you could use this object. Keep in mind that one object can have many uses. Separate your responses with a comma.",NA,"y",11740,NA,NA,5811,11515,NA,NA,NA,"keep eye on, observe",1
"5d6a924a9e02d2001514311a","w4ahitrur8","Affordance Norms_Prolific",1,28,"2023-07-21T15:28:20+00:00",14.503392934799,20,"updated stim.csv","Version20.csv","Version 20","List 20","laboratory",NA,600,5.125,1803,0.545634211,601,"BOI","-","-","Please name all of the ways you could use this object. Keep in mind that one object can have many uses. Separate your responses with a comma.",NA,"y",14047,NA,NA,5951,13502,NA,NA,NA,"test, experiment, science",1
"5d6a924a9e02d2001514311a","w4ahitrur8","Affordance Norms_Prolific",1,29,"2023-07-21T15:28:25+00:00",4.7301650047302,20,"updated stim.csv","Version20.csv","Version 20","List 20","politician",NA,591,5.041666667,2186,0.950545873,592,"BOI","-","-","Please name all of the ways you could use this object. Keep in mind that one object can have many uses. Separate your responses with a comma.",NA,"y",4400,NA,NA,1760,2039,NA,NA,NA,"lie",1
"5d6a924a9e02d2001514311a","w4ahitrur8","Affordance Norms_Prolific",1,30,"2023-07-21T15:28:30+00:00",5.4831781387329,20,"updated stim.csv","Version20.csv","Version 20","List 20","viola",NA,576,5.347826087,2018,0.660986177,577,"BOI","-","-","Please name all of the ways you could use this object. Keep in mind that one object can have many uses. Separate your responses with a comma.",NA,"y",5014,NA,NA,1782,4837,NA,NA,NA,"play, make music",1
"5d6a924a9e02d2001514311a","w4ahitrur8","Affordance Norms_Prolific",1,31,"2023-07-21T15:28:38+00:00",7.6323208808899,20,"updated stim.csv","Version20.csv","Version 20","List 20","capes",NA,578,5.4,1783,0.135347184,579,"BOI","-","-","Please name all of the ways you could use this object. Keep in mind that one object can have many uses. Separate your responses with a comma.",NA,"y",7030,NA,NA,5853,6437,NA,NA,NA,"wear",1
"5d6a924a9e02d2001514311a","w4ahitrur8","Affordance Norms_Prolific",1,32,"2023-07-21T15:28:51+00:00",13.833971977234,20,"updated stim.csv","Version20.csv","Version 20","List 20","sarong",NA,594,5.08,2421,0.292298633,595,"BOI","-","-","Please name all of the ways you could use this object. Keep in mind that one object can have many uses. Separate your responses with a comma.",NA,"y",13480,NA,NA,2712,4392,NA,NA,NA,"wear, ",1
"5d6a924a9e02d2001514311a","w4ahitrur8","Affordance Norms_Prolific",1,33,"2023-07-21T15:29:02+00:00",10.440649986267,20,"updated stim.csv","Version20.csv","Version 20","List 20","wart",NA,577,5,2401,0.959116035,578,"BOI","-","-","Please name all of the ways you could use this object. Keep in mind that one object can have many uses. Separate your responses with a comma.",NA,"y",10052,NA,NA,2292,9595,NA,NA,NA,"freeze, remove",1
"5d6a924a9e02d2001514311a","w4ahitrur8","Affordance Norms_Prolific",1,34,"2023-07-21T15:29:11+00:00",8.9235260486603,20,"updated stim.csv","Version20.csv","Version 20","List 20","textile",NA,575,4.96,1073,0.507161058,576,"BOI","-","-","Please name all of the ways you could use this object. Keep in mind that one object can have many uses. Separate your responses with a comma.",NA,"y",8597,NA,NA,1909,8260,NA,NA,NA,"cut, fashion, style",1
"5d6a924a9e02d2001514311a","w4ahitrur8","Affordance Norms_Prolific",1,35,"2023-07-21T15:29:15+00:00",4.655580997467,20,"updated stim.csv","Version20.csv","Version 20","List 20","footboard",NA,585,4.833333333,679,0.422256989,586,"BOI","-","-","Please name all of the ways you could use this object. Keep in mind that one object can have many uses. Separate your responses with a comma.",NA,"y",4301,NA,NA,2749,3628,NA,NA,NA,"stand on",1
"5d6a924a9e02d2001514311a","w4ahitrur8","Affordance Norms_Prolific",1,36,"2023-07-21T15:29:27+00:00",11.922529935837,20,"updated stim.csv","Version20.csv","Version 20","List 20","receptionist",NA,593,5.72,987,0.915415576,594,"BOI","-","-","Please name all of the ways you could use this object. Keep in mind that one object can have many uses. Separate your responses with a comma.",NA,"y",11554,NA,NA,2285,10977,NA,NA,NA,"talk to, call, email",1
"5d6a924a9e02d2001514311a","w4ahitrur8","Affordance Norms_Prolific",1,37,"2023-07-21T15:29:43+00:00",15.250074148178,20,"updated stim.csv","Version20.csv","Version 20","List 20","steroids",NA,573,5.173913043,1372,0.856688434,574,"BOI","-","-","Please name all of the ways you could use this object. Keep in mind that one object can have many uses. Separate your responses with a comma.",NA,"y",14896,NA,NA,1665,2449,NA,NA,NA,"inject",1
"5d6a924a9e02d2001514311a","w4ahitrur8","Affordance Norms_Prolific",1,38,"2023-07-21T15:29:50+00:00",7.502984046936,20,"updated stim.csv","Version20.csv","Version 20","List 20","oilcloth",NA,590,6.086956522,1886,0.101584578,591,"BOI","-","-","Please name all of the ways you could use this object. Keep in mind that one object can have many uses. Separate your responses with a comma.",NA,"y",7127,NA,NA,2486,6765,NA,NA,NA,"wipe, lubricate",1
"5d6a924a9e02d2001514311a","w4ahitrur8","Affordance Norms_Prolific",1,39,"2023-07-21T15:29:57+00:00",6.3790528774261,20,"updated stim.csv","Version20.csv","Version 20","List 20","godfather",NA,586,5.565217391,2306,0.20374677,587,"BOI","-","-","Please name all of the ways you could use this object. Keep in mind that one object can have many uses. Separate your responses with a comma.",NA,"y",6027,NA,NA,2883,5650,NA,NA,NA,"christen",1
"5d6a924a9e02d2001514311a","w4ahitrur8","Affordance Norms_Prolific",1,40,"2023-07-21T15:30:04+00:00",7.6434299945831,20,"updated stim.csv","Version20.csv","Version 20","List 20","feather",NA,583,5.125,2317,0.345258516,584,"BOI","-","-","Please name all of the ways you could use this object. Keep in mind that one object can have many uses. Separate your responses with a comma.",NA,"y",7278,NA,NA,2462,6685,NA,NA,NA,"tickle, deorate",1
"5d7eae44272871001bf42e21","5ztp8dp222","Affordance Norms_Prolific",1,11,"2023-07-21T14:54:07+00:00",11.113160848618,14,"updated stim.csv","Version14.csv","Version 14","List 14","antibiotics",NA,416,4.296296296,1910,0.819706786,417,"BOI","-","-","Please name all of the ways you could use this object. Keep in mind that one object can have many uses. Separate your responses with a comma.",NA,"y",10591,NA,NA,1965,9837,NA,NA,NA,"getting well, giving to people",1
"5d7eae44272871001bf42e21","5ztp8dp222","Affordance Norms_Prolific",1,12,"2023-07-21T14:54:17+00:00",10.154762029648,14,"updated stim.csv","Version14.csv","Version 14","List 14","nameplate",NA,406,4.833333333,560,0.891548733,407,"BOI","-","-","Please name all of the ways you could use this object. Keep in mind that one object can have many uses. Separate your responses with a comma.",NA,"y",9327,NA,NA,1804,8396,NA,NA,NA,"putting on cars, identifying things",1
"5d7eae44272871001bf42e21","5ztp8dp222","Affordance Norms_Prolific",1,13,"2023-07-21T14:54:27+00:00",9.4824991226196,14,"updated stim.csv","Version14.csv","Version 14","List 14","newscaster",NA,407,4.5,552,0.773806135,408,"BOI","-","-","Please name all of the ways you could use this object. Keep in mind that one object can have many uses. Separate your responses with a comma.",NA,"y",8932,NA,NA,1981,7805,NA,NA,NA,"saying the news, informing people",1
"5d7eae44272871001bf42e21","5ztp8dp222","Affordance Norms_Prolific",1,14,"2023-07-21T14:54:32+00:00",5.5336530208588,14,"updated stim.csv","Version14.csv","Version 14","List 14","dispenser",NA,398,4.4,99,0.200635735,399,"BOI","-","-","Please name all of the ways you could use this object. Keep in mind that one object can have many uses. Separate your responses with a comma.",NA,"y",5003,NA,NA,2048,4152,NA,NA,NA,"giving things out",1
"5d7eae44272871001bf42e21","5ztp8dp222","Affordance Norms_Prolific",1,15,"2023-07-21T14:54:43+00:00",10.398592948914,14,"updated stim.csv","Version14.csv","Version 14","List 14","spike",NA,412,6.12,2802,0.422574159,413,"BOI","-","-","Please name all of the ways you could use this object. Keep in mind that one object can have many uses. Separate your responses with a comma.",NA,"y",9852,NA,NA,1736,9015,NA,NA,NA,"impaling people on, holding things",1
"5d7eae44272871001bf42e21","5ztp8dp222","Affordance Norms_Prolific",1,16,"2023-07-21T14:54:48+00:00",5.762130022049,14,"updated stim.csv","Version14.csv","Version 14","List 14","croissant",NA,417,5.68,809,0.103957311,418,"BOI","-","-","Please name all of the ways you could use this object. Keep in mind that one object can have many uses. Separate your responses with a comma.",NA,"y",5261,NA,NA,1063,4494,NA,NA,NA,"eating, making, baking",1
