Username,ID,ExperimentName,Session,Trial,Date,TimeDif,"Condition Number","Stimuli File","Order File","Condition Description","Condition Notes",Stimuli*Cue,Stimuli*Answer,Stimuli*Shuffle,"Stimuli*Stimuli Notes",Stimuli*Value,Stimuli*Rand,Procedure*Item,"Procedure*Trial Type","Procedure*Max Time","Procedure*Min Time",Procedure*Text,"Procedure*Procedure Notes",Procedure*Shuffle,Response*RT,Response*Response,Response*Accuracy,Response*RTfirst,Response*RTlast,Response*strictAcc,Response*lenientAcc,Response*focus,Response*JOL,Response*Focus
W10080760_mns,ubrqctebpr,"Affordance Norms_USM",1,1,2023-01-25T01:57:58+00:00,11.552896976471,35,"updated stim.csv",Version35.csv,"Version 35","List 35",,,,,,,0,Instruct,-,10,"In this section, you will be presented with a series of objects. Please name as many possible uses for this object as you can think of by typing them in the box below each object.",,Instruct1,11430,,,-1,-1,,,,,1
W10080760_mns,ubrqctebpr,"Affordance Norms_USM",1,2,2023-01-25T01:58:11+00:00,12.960137844086,35,"updated stim.csv",Version35.csv,"Version 35","List 35",,,,,,,0,Instruct,-,10,"Please keep in mind that a single object will have more than one use. For example, a ball can be thrown or can be bounced or even stepped on. When listing multiple uses for one object, please separate each use with a comma (i.e., thrown, bounced, stepped on)",,Instruct2,12803,,,-1,-1,,,,,1
W10080760_mns,ubrqctebpr,"Affordance Norms_USM",1,3,2023-01-25T01:58:17+00:00,5.9947741031647,35,"updated stim.csv",Version35.csv,"Version 35","List 35",,,,,,,0,Instruct,-,-,"Before starting the experiment, you will complete a short practice sesstion. Press ENTER when you are ready to begin.",,Instruct3,5844,,,-1,-1,,,,,1
W10080760_mns,ubrqctebpr,"Affordance Norms_USM",1,4,2023-01-25T01:58:42+00:00,25.107273101807,35,"updated stim.csv",Version35.csv,"Version 35","List 35",grain,,3004,5.217391304,1143,0.226863762,3005,BOI,-,-,"Please name all of the ways you could use this object. Keep in mind that one object can have many uses. Separate your responses with a comma.",,n,24956,,,3224,20717,,,,"boil, plant, eat, water",1
W10080760_mns,ubrqctebpr,"Affordance Norms_USM",1,5,2023-01-25T01:59:27+00:00,45.124391794205,35,"updated stim.csv",Version35.csv,"Version 35","List 35",shortening,,3002,4.92,2358,0.604328482,3003,BOI,-,-,"Please name all of the ways you could use this object. Keep in mind that one object can have many uses. Separate your responses with a comma.",,n,44452,,,4305,43258,,,,"spread, cook, eat, mix",1
W10080760_mns,ubrqctebpr,"Affordance Norms_USM",1,6,2023-01-25T02:00:01+00:00,34.024063110352,35,"updated stim.csv",Version35.csv,"Version 35","List 35",spaghetti,,3003,6,2461,0.090379998,3004,BOI,-,-,"Please name all of the ways you could use this object. Keep in mind that one object can have many uses. Separate your responses with a comma.",,n,33276,,,3098,32030,,,,"eat, cook, twirl, mix",1
W10080760_mns,ubrqctebpr,"Affordance Norms_USM",1,7,2023-01-25T02:00:29+00:00,27.852438926697,35,"updated stim.csv",Version35.csv,"Version 35","List 35",paperwork,,3001,5.625,1866,0.124284162,3002,BOI,-,-,"Please name all of the ways you could use this object. Keep in mind that one object can have many uses. Separate your responses with a comma.",,n,27591,,,2488,26418,,,,"grade, staple, shred, turn in, write on, read",1
W10080760_mns,ubrqctebpr,"Affordance Norms_USM",1,8,2023-01-25T02:00:53+00:00,24.231562137604,35,"updated stim.csv",Version35.csv,"Version 35","List 35",saucer,,3005,5.777777778,2249,0.304808074,3006,BOI,-,-,"Please name all of the ways you could use this object. Keep in mind that one object can have many uses. Separate your responses with a comma.",,n,24083,,,3046,18681,,,,"throw, spin",1
W10080760_mns,ubrqctebpr,"Affordance Norms_USM",1,9,2023-01-25T02:01:04+00:00,11.103499889374,35,"updated stim.csv",Version35.csv,"Version 35","List 35",,,,,,,0,Instruct,-,-,"You have completed this section. Press ENTER to continue",,"Instruct 5",10945,,,-1,-1,,,,,1
W10080760_mns,ubrqctebpr,"Affordance Norms_USM",1,10,2023-01-25T02:01:08+00:00,3.4307990074158,35,"updated stim.csv",Version35.csv,"Version 35","List 35",,,,,,,0,Instruct,-,-,"You will now start the full experiment. Press ENTER when you are ready to begin.",,,3274,,,-1,-1,,,,,1
W10080760_mns,ubrqctebpr,"Affordance Norms_USM",1,11,2023-01-25T02:01:58+00:00,50.969420909882,35,"updated stim.csv",Version35.csv,"Version 35","List 35",encyclopedia,,1042,6.16,906,0.733115728,1043,BOI,-,-,"Please name all of the ways you could use this object. Keep in mind that one object can have many uses. Separate your responses with a comma.",,y,50295,,,1739,49110,,,,"read, flip through, study, memorize",1
W10080760_mns,ubrqctebpr,"Affordance Norms_USM",1,12,2023-01-25T02:02:37+00:00,38.618006229401,35,"updated stim.csv",Version35.csv,"Version 35","List 35",watch,,1041,5.269230769,2905,0.235496905,1042,BOI,-,-,"Please name all of the ways you could use this object. Keep in mind that one object can have many uses. Separate your responses with a comma.",,y,37942,,,9244,36762,,,,"set time, look at, timer, alarm, touch",1
W10080760_mns,ubrqctebpr,"Affordance Norms_USM",1,13,2023-01-25T02:03:43+00:00,66.242333889008,35,"updated stim.csv",Version35.csv,"Version 35","List 35",genitalia,,1034,5.64,1096,0.737455521,1035,BOI,-,-,"Please name all of the ways you could use this object. Keep in mind that one object can have many uses. Separate your responses with a comma.",,y,65532,,,3572,62863,,,,"fondle, clean, wipe, penetrate, stroke, lick, suck, pee",1
W10080760_mns,ubrqctebpr,"Affordance Norms_USM",1,14,2023-01-25T02:05:24+00:00,101.08302307129,35,"updated stim.csv",Version35.csv,"Version 35","List 35",nurse,,1033,5.130434783,1786,0.42839703,1034,BOI,-,-,"Please name all of the ways you could use this object. Keep in mind that one object can have many uses. Separate your responses with a comma.",,y,100362,,,15996,98939,,,,"check up, talk to, hug, prescriptions, listen to my heart, hear my lungs, look at my ears, look in my throat",1
W10080760_mns,ubrqctebpr,"Affordance Norms_USM",1,15,2023-01-25T02:06:27+00:00,62.206297874451,35,"updated stim.csv",Version35.csv,"Version 35","List 35",fence,,1046,5.62962963,962,0.462536133,1047,BOI,-,-,"Please name all of the ways you could use this object. Keep in mind that one object can have many uses. Separate your responses with a comma.",,y,61518,,,2245,58052,,,,"hop, close, open, build, jump, climb, clean, paint, trap",1
W10080760_mns,ubrqctebpr,"Affordance Norms_USM",1,16,2023-01-25T02:06:37+00:00,10.633425951004,35,"updated stim.csv",Version35.csv,"Version 35","List 35",farmhand,,1026,4.4,948,0.830285329,1027,BOI,-,-,"Please name all of the ways you could use this object. Keep in mind that one object can have many uses. Separate your responses with a comma.",,y,10420,,,7669,9260,,,,plant,1
W10080760_mns,ubrqctebpr,"Affordance Norms_USM",1,17,2023-01-25T02:07:18+00:00,40.345784187317,35,"updated stim.csv",Version35.csv,"Version 35","List 35",patrolman,,1044,4.814814815,1888,0.383790265,1045,BOI,-,-,"Please name all of the ways you could use this object. Keep in mind that one object can have many uses. Separate your responses with a comma.",,y,39675,,,9744,31189,,,,"keep watch, write tickets",1
W10080760_mns,ubrqctebpr,"Affordance Norms_USM",1,18,2023-01-25T02:07:47+00:00,29.127034902573,35,"updated stim.csv",Version35.csv,"Version 35","List 35",workbook,,1029,5.703703704,2969,0.59413977,1030,BOI,-,-,"Please name all of the ways you could use this object. Keep in mind that one object can have many uses. Separate your responses with a comma.",,y,28462,,,2444,25245,,,,"write, read, plan, carry, doodle, keep track",1
W10080760_mns,ubrqctebpr,"Affordance Norms_USM",1,19,2023-01-25T02:07:56+00:00,9.2691240310669,35,"updated stim.csv",Version35.csv,"Version 35","List 35",slipcover,,1036,5.409090909,2415,0.202075766,1037,BOI,-,-,"Please name all of the ways you could use this object. Keep in mind that one object can have many uses. Separate your responses with a comma.",,y,9119,,,2963,6296,,,,"fold, wash",1
W10080760_mns,ubrqctebpr,"Affordance Norms_USM",1,20,2023-01-25T02:08:25+00:00,28.518926858902,35,"updated stim.csv",Version35.csv,"Version 35","List 35",caseworker,,1039,4.32,447,0.044631855,1040,BOI,-,-,"Please name all of the ways you could use this object. Keep in mind that one object can have many uses. Separate your responses with a comma.",,y,28297,,,11497,23339,,,,"talk to, cry to, report",1
W10080760_mns,ubrqctebpr,"Affordance Norms_USM",1,21,2023-01-25T02:09:25+00:00,60.808074235916,35,"updated stim.csv",Version35.csv,"Version 35","List 35",creamer,,1047,5.24,689,0.976952276,1048,BOI,-,-,"Please name all of the ways you could use this object. Keep in mind that one object can have many uses. Separate your responses with a comma.",,y,59857,,,3806,58218,,,,"mix, stir, shake, flavor, drink, throw away, buy, sell, smell, drop",1
W10080760_mns,ubrqctebpr,"Affordance Norms_USM",1,22,2023-01-25T02:10:13+00:00,47.421340942383,35,"updated stim.csv",Version35.csv,"Version 35","List 35",scar,,1025,4.608695652,2266,0.369745255,1026,BOI,-,-,"Please name all of the ways you could use this object. Keep in mind that one object can have many uses. Separate your responses with a comma.",,y,46688,,,3826,43934,,,,"bandage, pick at, hide, cover",1
W10080760_mns,ubrqctebpr,"Affordance Norms_USM",1,23,2023-01-25T02:12:10+00:00,117.11429905891,35,"updated stim.csv",Version35.csv,"Version 35","List 35",corvette,,1043,5.875,654,0.484986472,1044,BOI,-,-,"Please name all of the ways you could use this object. Keep in mind that one object can have many uses. Separate your responses with a comma.",,y,87541,,,4269,77230,,,,"drive, wreck, sell, race, wash, vacuum, paint, change oil, sit in, park, steal,",1
W10080760_mns,ubrqctebpr,"Affordance Norms_USM",1,24,2023-01-25T02:12:43+00:00,33.347448825836,35,"updated stim.csv",Version35.csv,"Version 35","List 35",receipt,,1028,5.28,2143,0.827374267,1029,BOI,-,-,"Please name all of the ways you could use this object. Keep in mind that one object can have many uses. Separate your responses with a comma.",,y,32591,,,2242,23909,,,,"throw away, ball up, save, scan, return",1
W10080760_mns,ubrqctebpr,"Affordance Norms_USM",1,25,2023-01-25T02:13:34+00:00,50.490596055984,35,"updated stim.csv",Version35.csv,"Version 35","List 35",neck,,1032,6.12,1738,0.15096981,1033,BOI,-,-,"Please name all of the ways you could use this object. Keep in mind that one object can have many uses. Separate your responses with a comma.",,y,49813,,,1642,48407,,,,"rub, swallow, slice, clean, massage, sprain, break",1
W10080760_mns,ubrqctebpr,"Affordance Norms_USM",1,26,2023-01-25T02:14:19+00:00,45.027508974075,35,"updated stim.csv",Version35.csv,"Version 35","List 35",coke,,1023,6.2,596,0.089822276,1024,BOI,-,-,"Please name all of the ways you could use this object. Keep in mind that one object can have many uses. Separate your responses with a comma.",,y,44353,,,1727,42809,,,,"drink, snort, shake, pour out, sell, buy, trade, gargle",1
W10080760_mns,ubrqctebpr,"Affordance Norms_USM",1,27,2023-01-25T02:14:42+00:00,23.184828996658,35,"updated stim.csv",Version35.csv,"Version 35","List 35",cream,,1035,5.153846154,688,0.561859435,1036,BOI,-,-,"Please name all of the ways you could use this object. Keep in mind that one object can have many uses. Separate your responses with a comma.",,y,23034,,,2625,17273,,,,"stir, mix, add, store",1
W10080760_mns,ubrqctebpr,"Affordance Norms_USM",1,28,2023-01-25T02:14:55+00:00,12.988088130951,35,"updated stim.csv",Version35.csv,"Version 35","List 35",stethoscope,,1031,5.8,2533,0.032379282,1032,BOI,-,-,"Please name all of the ways you could use this object. Keep in mind that one object can have many uses. Separate your responses with a comma.",,y,12603,,,2668,6611,,,,"look through,",1
W10080760_mns,ubrqctebpr,"Affordance Norms_USM",1,29,2023-01-25T02:15:24+00:00,28.580612897873,35,"updated stim.csv",Version35.csv,"Version 35","List 35",goat,,1045,4.8,1122,0.331985791,1046,BOI,-,-,"Please name all of the ways you could use this object. Keep in mind that one object can have many uses. Separate your responses with a comma.",,y,28419,,,2681,15115,,,,"pet, feed, eat, cook, hunt, ",1
W10080760_mns,ubrqctebpr,"Affordance Norms_USM",1,30,2023-01-25T02:15:40+00:00,16.043389081955,35,"updated stim.csv",Version35.csv,"Version 35","List 35",watchmaker,,1050,4.56,2908,0.381450512,1051,BOI,-,-,"Please name all of the ways you could use this object. Keep in mind that one object can have many uses. Separate your responses with a comma.",,y,15891,,,10332,14542,,,,"make a watch",1
W10080760_mns,ubrqctebpr,"Affordance Norms_USM",1,31,2023-01-25T02:15:52+00:00,12.940415859222,35,"updated stim.csv",Version35.csv,"Version 35","List 35",crumpet,,1021,5.136363636,715,0.332334364,1022,BOI,-,-,"Please name all of the ways you could use this object. Keep in mind that one object can have many uses. Separate your responses with a comma.",,y,12784,,,10800,11664,,,,eat,1
W10080760_mns,ubrqctebpr,"Affordance Norms_USM",1,32,2023-01-25T02:16:09+00:00,16.492097139359,35,"updated stim.csv",Version35.csv,"Version 35","List 35",broom,,1022,6.416666667,332,0.112184071,1023,BOI,-,-,"Please name all of the ways you could use this object. Keep in mind that one object can have many uses. Separate your responses with a comma.",,y,16343,,,1490,8449,,,,"sweep, swat, ",1
W10080760_mns,ubrqctebpr,"Affordance Norms_USM",1,33,2023-01-25T02:16:18+00:00,9.2717308998108,35,"updated stim.csv",Version35.csv,"Version 35","List 35",toboggan,,1027,5.68,2713,0.731617262,1028,BOI,-,-,"Please name all of the ways you could use this object. Keep in mind that one object can have many uses. Separate your responses with a comma.",,y,9123,,,2158,7943,,,,"ride, buy, sell",1
W10080760_mns,ubrqctebpr,"Affordance Norms_USM",1,34,2023-01-25T02:16:43+00:00,24.341387033463,35,"updated stim.csv",Version35.csv,"Version 35","List 35",tobacco,,1038,5.666666667,2712,0.348773592,1039,BOI,-,-,"Please name all of the ways you could use this object. Keep in mind that one object can have many uses. Separate your responses with a comma.",,y,24177,,,1466,23011,,,,"chew, smoke, flavor, crush",1
W10080760_mns,ubrqctebpr,"Affordance Norms_USM",1,35,2023-01-25T02:17:13+00:00,30.726208925247,35,"updated stim.csv",Version35.csv,"Version 35","List 35",partner,,1037,5.230769231,1879,0.171448302,1038,BOI,-,-,"Please name all of the ways you could use this object. Keep in mind that one object can have many uses. Separate your responses with a comma.",,y,30571,,,2150,29443,,,,"dnce, play catch, marry, have kids, tennis doubles",1
W10080760_mns,ubrqctebpr,"Affordance Norms_USM",1,36,2023-01-25T02:17:38+00:00,24.222203969955,35,"updated stim.csv",Version35.csv,"Version 35","List 35",Toilet,,1024,6.368918919,2719,0.789000486,1025,BOI,-,-,"Please name all of the ways you could use this object. Keep in mind that one object can have many uses. Separate your responses with a comma.",,y,24073,,,2532,17511,,,,"flush, clean, sit on, plunge,",1
W10080760_mns,ubrqctebpr,"Affordance Norms_USM",1,37,2023-01-25T02:17:47+00:00,9.4345641136169,35,"updated stim.csv",Version35.csv,"Version 35","List 35",shortcake,,1030,5.846153846,2357,0.658470232,1031,BOI,-,-,"Please name all of the ways you could use this object. Keep in mind that one object can have many uses. Separate your responses with a comma.",,y,9266,,,4484,8067,,,,"eat, cook",1
W10080760_mns,ubrqctebpr,"Affordance Norms_USM",1,38,2023-01-25T02:18:01+00:00,13.52997303009,35,"updated stim.csv",Version35.csv,"Version 35","List 35",lint,,1048,5.04,1520,0.72200839,1049,BOI,-,-,"Please name all of the ways you could use this object. Keep in mind that one object can have many uses. Separate your responses with a comma.",,y,13368,,,3111,11760,,,,"pluck, throw away",1
W10080760_mns,ubrqctebpr,"Affordance Norms_USM",1,39,2023-01-25T02:18:10+00:00,9.090852022171,35,"updated stim.csv",Version35.csv,"Version 35","List 35",machetes,,1040,5.260869565,1566,0.890397938,1041,BOI,-,-,"Please name all of the ways you could use this object. Keep in mind that one object can have many uses. Separate your responses with a comma.",,y,8948,,,2747,7320,,,,"swing, kill,",1
W10080760_mns,ubrqctebpr,"Affordance Norms_USM",1,40,2023-01-25T02:18:30+00:00,20.744283914566,35,"updated stim.csv",Version35.csv,"Version 35","List 35",fountain,,1049,5.208333333,1050,0.633891842,1050,BOI,-,-,"Please name all of the ways you could use this object. Keep in mind that one object can have many uses. Separate your responses with a comma.",,y,20593,,,3490,19316,,,,"drink, flip a coin in, wash hands",1
W10080760_mns,ubrqctebpr,"Affordance Norms_USM",1,41,2023-01-25T02:18:35+00:00,4.1742660999298,35,"updated stim.csv",Version35.csv,"Version 35","List 35",,,,,,,0,Instruct,,,"You will now be asked a few questions about your experience today.",,"Instruct 4",4020,,,-1,-1,,,,,1
