Username,ID,ExperimentName,Session,Trial,Date,TimeDif,"Condition Number","Stimuli File","Order File","Condition Description","Condition Notes",Stimuli*Cue,Stimuli*Answer,Stimuli*Shuffle,"Stimuli*Stimuli Notes",Stimuli*Value,Stimuli*Rand,Procedure*Item,"Procedure*Trial Type","Procedure*Max Time","Procedure*Min Time",Procedure*Text,"Procedure*Procedure Notes",Procedure*Shuffle,Response*RT,Response*Response,Response*Accuracy,Response*RTfirst,Response*RTlast,Response*strictAcc,Response*lenientAcc,Response*focus,Response*JOL,Response*Focus
w10138102_rab,0mnyrr1001,"Affordance Norms_USM",1,1,2023-01-29T17:18:09+00:00,10.570623874664,45,"updated stim.csv",Version45.csv,"Version 45","List 45",,,,,,,0,Instruct,-,10,"In this section, you will be presented with a series of objects. Please name as many possible uses for this object as you can think of by typing them in the box below each object.",,Instruct1,10251,,,-1,-1,,,,,1
w10138102_rab,0mnyrr1001,"Affordance Norms_USM",1,2,2023-01-29T17:18:21+00:00,11.664782047272,45,"updated stim.csv",Version45.csv,"Version 45","List 45",,,,,,,0,Instruct,-,10,"Please keep in mind that a single object will have more than one use. For example, a ball can be thrown or can be bounced or even stepped on. When listing multiple uses for one object, please separate each use with a comma (i.e., thrown, bounced, stepped on)",,Instruct2,11221,,,-1,-1,,,,,1
w10138102_rab,0mnyrr1001,"Affordance Norms_USM",1,3,2023-01-29T17:18:29+00:00,8.1593699455261,45,"updated stim.csv",Version45.csv,"Version 45","List 45",,,,,,,0,Instruct,-,-,"Before starting the experiment, you will complete a short practice sesstion. Press ENTER when you are ready to begin.",,Instruct3,7814,,,-1,-1,,,,,1
w10138102_rab,0mnyrr1001,"Affordance Norms_USM",1,4,2023-01-29T17:20:23+00:00,114.01185917854,45,"updated stim.csv",Version45.csv,"Version 45","List 45",spaghetti,,3003,6,2461,0.090379998,3004,BOI,-,-,"Please name all of the ways you could use this object. Keep in mind that one object can have many uses. Separate your responses with a comma.",,n,113156,,,9041,101563,,,,"boiled, cooked, eaten, stirred, mixed, stored away, gifted, frozen, heated, thrown away, digested",1
w10138102_rab,0mnyrr1001,"Affordance Norms_USM",1,5,2023-01-29T17:21:18+00:00,55.344522953033,45,"updated stim.csv",Version45.csv,"Version 45","List 45",grain,,3004,5.217391304,1143,0.226863762,3005,BOI,-,-,"Please name all of the ways you could use this object. Keep in mind that one object can have many uses. Separate your responses with a comma.",,n,54429,,,10725,53136,,,,"make bread, grow in farms, plowed, watered, farmed, crushed",1
w10138102_rab,0mnyrr1001,"Affordance Norms_USM",1,6,2023-01-29T17:22:32+00:00,73.316184997559,45,"updated stim.csv",Version45.csv,"Version 45","List 45",paperwork,,3001,5.625,1866,0.124284162,3002,BOI,-,-,"Please name all of the ways you could use this object. Keep in mind that one object can have many uses. Separate your responses with a comma.",,n,72331,,,7136,37040,,,,"to write on, to file, fill out, to shred, to throw away, to review",1
w10138102_rab,0mnyrr1001,"Affordance Norms_USM",1,7,2023-01-29T17:23:08+00:00,36.522716999054,45,"updated stim.csv",Version45.csv,"Version 45","List 45",shortening,,3002,4.92,2358,0.604328482,3003,BOI,-,-,"Please name all of the ways you could use this object. Keep in mind that one object can have many uses. Separate your responses with a comma.",,n,35580,,,13280,30547,,,,"to use in baking, to be mixed",1
w10138102_rab,0mnyrr1001,"Affordance Norms_USM",1,8,2023-01-29T17:24:48+00:00,99.999477863312,45,"updated stim.csv",Version45.csv,"Version 45","List 45",saucer,,3005,5.777777778,2249,0.304808074,3006,BOI,-,-,"Please name all of the ways you could use this object. Keep in mind that one object can have many uses. Separate your responses with a comma.",,n,99116,,,39651,97024,,,,"to eat off of, to hold your drink, to be washed, to be cleaned, to be shined, to be stored away, used for dinner, used for breakfast, used for parties",1
w10138102_rab,0mnyrr1001,"Affordance Norms_USM",1,9,2023-01-29T17:24:53+00:00,4.5545630455017,45,"updated stim.csv",Version45.csv,"Version 45","List 45",,,,,,,0,Instruct,-,-,"You have completed this section. Press ENTER to continue",,"Instruct 5",4132,,,-1,-1,,,,,1
w10138102_rab,0mnyrr1001,"Affordance Norms_USM",1,10,2023-01-29T17:24:57+00:00,4.6308951377869,45,"updated stim.csv",Version45.csv,"Version 45","List 45",,,,,,,0,Instruct,-,-,"You will now start the full experiment. Press ENTER when you are ready to begin.",,,4248,,,-1,-1,,,,,1
w10138102_rab,0mnyrr1001,"Affordance Norms_USM",1,11,2023-01-29T17:25:51+00:00,53.956582784653,45,"updated stim.csv",Version45.csv,"Version 45","List 45",grass,,1321,5.454545455,1160,0.341243592,1322,BOI,-,-,"Please name all of the ways you could use this object. Keep in mind that one object can have many uses. Separate your responses with a comma.",,y,53089,,,7078,42655,,,,"walked on, fed to animals, cut, watered, rolled around on, built upon",1
w10138102_rab,0mnyrr1001,"Affordance Norms_USM",1,12,2023-01-29T17:26:22+00:00,30.227807044983,45,"updated stim.csv",Version45.csv,"Version 45","List 45",hypnotist,,1326,4.44,1343,0.831744842,1327,BOI,-,-,"Please name all of the ways you could use this object. Keep in mind that one object can have many uses. Separate your responses with a comma.",,y,29695,,,7594,28858,,,,"to trick someone, to see their subconscious thoughtss",1
w10138102_rab,0mnyrr1001,"Affordance Norms_USM",1,13,2023-01-29T17:27:24+00:00,62.185103178024,45,"updated stim.csv",Version45.csv,"Version 45","List 45",barnacle,,1342,4.260869565,152,0.220068311,1343,BOI,-,-,"Please name all of the ways you could use this object. Keep in mind that one object can have many uses. Separate your responses with a comma.",,y,61232,,,4803,59351,,,,"step on it, scrape it, throw it away",1
w10138102_rab,0mnyrr1001,"Affordance Norms_USM",1,14,2023-01-29T17:28:00+00:00,36.680004835129,45,"updated stim.csv",Version45.csv,"Version 45","List 45",statue,,1322,4.777777778,2513,0.836451101,1323,BOI,-,-,"Please name all of the ways you could use this object. Keep in mind that one object can have many uses. Separate your responses with a comma.",,y,35745,,,10806,34812,,,,"admire it, look at it, touch it, recreate it, carve it, paint it, praise it",1
w10138102_rab,0mnyrr1001,"Affordance Norms_USM",1,15,2023-01-29T17:28:26+00:00,25.830851078033,45,"updated stim.csv",Version45.csv,"Version 45","List 45",hook,,1346,5,1307,0.480270417,1347,BOI,-,-,"Please name all of the ways you could use this object. Keep in mind that one object can have many uses. Separate your responses with a comma.",,y,25407,,,5923,23783,,,,"on a fishing line, as decoration, as a start to a book",1
w10138102_rab,0mnyrr1001,"Affordance Norms_USM",1,16,2023-01-29T17:29:31+00:00,64.777286052704,45,"updated stim.csv",Version45.csv,"Version 45","List 45",guest,,1336,4.857142857,1188,0.312985953,1337,BOI,-,-,"Please name all of the ways you could use this object. Keep in mind that one object can have many uses. Separate your responses with a comma.",,y,63819,,,6846,62995,,,,"let them in my home, gift them, show them to my friends",1
w10138102_rab,0mnyrr1001,"Affordance Norms_USM",1,17,2023-01-29T17:30:12+00:00,41.122769832611,45,"updated stim.csv",Version45.csv,"Version 45","List 45",streetcar,,1345,4.791666667,2564,0.154551188,1346,BOI,-,-,"Please name all of the ways you could use this object. Keep in mind that one object can have many uses. Separate your responses with a comma.",,y,40685,,,2729,35890,,,,"ride in it, walk inside it, sit down in it, look out its window, follow it, run after it",1
w10138102_rab,0mnyrr1001,"Affordance Norms_USM",1,18,2023-01-29T17:31:03+00:00,50.96271109581,45,"updated stim.csv",Version45.csv,"Version 45","List 45",swab,,1339,4.76,2601,0.498997742,1340,BOI,-,-,"Please name all of the ways you could use this object. Keep in mind that one object can have many uses. Separate your responses with a comma.",,y,50556,,,22977,49120,,,,"to clean, to wipe, to rub against",1
w10138102_rab,0mnyrr1001,"Affordance Norms_USM",1,19,2023-01-29T17:31:30+00:00,26.598197937012,45,"updated stim.csv",Version45.csv,"Version 45","List 45",sourdough,,1338,5.12,2455,0.31710827,1339,BOI,-,-,"Please name all of the ways you could use this object. Keep in mind that one object can have many uses. Separate your responses with a comma.",,y,26226,,,9516,25366,,,,"in bread, in my burger buns, in hot dog buns",1
w10138102_rab,0mnyrr1001,"Affordance Norms_USM",1,20,2023-01-29T17:31:51+00:00,21.497779130936,45,"updated stim.csv",Version45.csv,"Version 45","List 45",hangnail,,1350,5.814814815,1246,0.424814296,1351,BOI,-,-,"Please name all of the ways you could use this object. Keep in mind that one object can have many uses. Separate your responses with a comma.",,y,21093,,,3328,20177,,,,"remove it, bite it, tear it, cry about it",1
w10138102_rab,0mnyrr1001,"Affordance Norms_USM",1,21,2023-01-29T17:32:14+00:00,23.185184001923,45,"updated stim.csv",Version45.csv,"Version 45","List 45",schoolgirl,,1347,4.625,2271,0.147247376,1348,BOI,-,-,"Please name all of the ways you could use this object. Keep in mind that one object can have many uses. Separate your responses with a comma.",,y,22761,,,3490,21475,,,,"be friends with her, help her with her homework, be nice to her",1
w10138102_rab,0mnyrr1001,"Affordance Norms_USM",1,22,2023-01-29T17:33:22+00:00,67.422796010971,45,"updated stim.csv",Version45.csv,"Version 45","List 45",intern,,1327,4.791666667,1364,0.237677901,1328,BOI,-,-,"Please name all of the ways you could use this object. Keep in mind that one object can have many uses. Separate your responses with a comma.",,y,66983,,,6416,65933,,,,"file paperwork, do odd jobs, shred documents, have conversations with",1
w10138102_rab,0mnyrr1001,"Affordance Norms_USM",1,23,2023-01-29T17:33:59+00:00,37.14709687233,45,"updated stim.csv",Version45.csv,"Version 45","List 45",vinegar,,1330,5.291666667,2862,0.063434032,1331,BOI,-,-,"Please name all of the ways you could use this object. Keep in mind that one object can have many uses. Separate your responses with a comma.",,y,36723,,,4482,19457,,,,"mix, pour, stir, cook with",1
w10138102_rab,0mnyrr1001,"Affordance Norms_USM",1,24,2023-01-29T17:34:43+00:00,44.486402988434,45,"updated stim.csv",Version45.csv,"Version 45","List 45",buttock,,1323,5.25,379,0.755797204,1324,BOI,-,-,"Please name all of the ways you could use this object. Keep in mind that one object can have many uses. Separate your responses with a comma.",,y,43907,,,7657,42853,,,,"sit on, exercise",1
w10138102_rab,0mnyrr1001,"Affordance Norms_USM",1,25,2023-01-29T17:35:15+00:00,31.9935131073,45,"updated stim.csv",Version45.csv,"Version 45","List 45",sprinkler,,1349,4.962962963,2489,0.337074846,1350,BOI,-,-,"Please name all of the ways you could use this object. Keep in mind that one object can have many uses. Separate your responses with a comma.",,y,31556,,,1782,29188,,,,"run through, spray others, water grass, make yourself wet",1
w10138102_rab,0mnyrr1001,"Affordance Norms_USM",1,26,2023-01-29T17:35:58+00:00,42.301338911057,45,"updated stim.csv",Version45.csv,"Version 45","List 45",scorpion,,1343,4.32,2280,0.70423546,1344,BOI,-,-,"Please name all of the ways you could use this object. Keep in mind that one object can have many uses. Separate your responses with a comma.",,y,41913,,,13208,27151,,,,"step on it, catch it",1
w10138102_rab,0mnyrr1001,"Affordance Norms_USM",1,27,2023-01-29T17:36:34+00:00,36.089344024658,45,"updated stim.csv",Version45.csv,"Version 45","List 45",cymbal,,1348,5.958333333,741,0.275181889,1349,BOI,-,-,"Please name all of the ways you could use this object. Keep in mind that one object can have many uses. Separate your responses with a comma.",,y,35651,,,29067,34698,,,,"bang, shatter, crush",1
w10138102_rab,0mnyrr1001,"Affordance Norms_USM",1,28,2023-01-29T17:36:46+00:00,12.275810956955,45,"updated stim.csv",Version45.csv,"Version 45","List 45",vinaigrette,,1331,5.363636364,2860,0.824753001,1332,BOI,-,-,"Please name all of the ways you could use this object. Keep in mind that one object can have many uses. Separate your responses with a comma.",,y,11863,,,4508,8971,,,,"mix, drink",1
w10138102_rab,0mnyrr1001,"Affordance Norms_USM",1,29,2023-01-29T17:37:25+00:00,39.183640003204,45,"updated stim.csv",Version45.csv,"Version 45","List 45",vinyl,,1324,4.6,2863,0.275628372,1325,BOI,-,-,"Please name all of the ways you could use this object. Keep in mind that one object can have many uses. Separate your responses with a comma.",,y,38840,,,1577,36978,,,,"spin, listen to, stick to",1
w10138102_rab,0mnyrr1001,"Affordance Norms_USM",1,30,2023-01-29T17:38:05+00:00,39.739665031433,45,"updated stim.csv",Version45.csv,"Version 45","List 45",watchdog,,1337,4.333333333,2907,0.995875018,1338,BOI,-,-,"Please name all of the ways you could use this object. Keep in mind that one object can have many uses. Separate your responses with a comma.",,y,39348,,,6661,38284,,,,"guard the house, to bark at people, for protection",1
w10138102_rab,0mnyrr1001,"Affordance Norms_USM",1,31,2023-01-29T17:38:27+00:00,22.087656974792,45,"updated stim.csv",Version45.csv,"Version 45","List 45",peanuts,,1335,6.12,1894,0.27524458,1336,BOI,-,-,"Please name all of the ways you could use this object. Keep in mind that one object can have many uses. Separate your responses with a comma.",,y,21727,,,3037,16624,,,,"smashed, mixed, creamed, eaten, thrown,",1
w10138102_rab,0mnyrr1001,"Affordance Norms_USM",1,32,2023-01-29T17:38:39+00:00,12.00497508049,45,"updated stim.csv",Version45.csv,"Version 45","List 45",goatskin,,1340,4.44,1124,0.721864889,1341,BOI,-,-,"Please name all of the ways you could use this object. Keep in mind that one object can have many uses. Separate your responses with a comma.",,y,11640,,,3922,10059,,,,"put on a wall, throw away",1
w10138102_rab,0mnyrr1001,"Affordance Norms_USM",1,33,2023-01-29T17:38:56+00:00,16.755682945251,45,"updated stim.csv",Version45.csv,"Version 45","List 45",teenager,,1329,5.08,2657,0.195872862,1330,BOI,-,-,"Please name all of the ways you could use this object. Keep in mind that one object can have many uses. Separate your responses with a comma.",,y,16363,,,3809,14937,,,,"be friends, help clean, make communication",1
w10138102_rab,0mnyrr1001,"Affordance Norms_USM",1,34,2023-01-29T17:39:14+00:00,18.18757390976,45,"updated stim.csv",Version45.csv,"Version 45","List 45",darkroom,,1333,4.416666667,757,0.80684247,1334,BOI,-,-,"Please name all of the ways you could use this object. Keep in mind that one object can have many uses. Separate your responses with a comma.",,y,17760,,,3234,16845,,,,"for parties, for events, for halloween",1
w10138102_rab,0mnyrr1001,"Affordance Norms_USM",1,35,2023-01-29T17:40:09+00:00,55.209110021591,45,"updated stim.csv",Version45.csv,"Version 45","List 45",palm,,1332,5.44,1854,0.645505331,1333,BOI,-,-,"Please name all of the ways you could use this object. Keep in mind that one object can have many uses. Separate your responses with a comma.",,y,54802,,,7491,53616,,,,"for rubbing, for resting on something, for catching your fall",1
w10138102_rab,0mnyrr1001,"Affordance Norms_USM",1,36,2023-01-29T17:40:29+00:00,19.966191053391,45,"updated stim.csv",Version45.csv,"Version 45","List 45",cookbook,,1344,5.68,631,0.148044152,1345,BOI,-,-,"Please name all of the ways you could use this object. Keep in mind that one object can have many uses. Separate your responses with a comma.",,y,19635,,,3134,18761,,,,"for making new foods, for reading, for writing in",1
w10138102_rab,0mnyrr1001,"Affordance Norms_USM",1,37,2023-01-29T17:40:58+00:00,28.329631090164,45,"updated stim.csv",Version45.csv,"Version 45","List 45",eel,,1328,4.653846154,891,0.847576001,1329,BOI,-,-,"Please name all of the ways you could use this object. Keep in mind that one object can have many uses. Separate your responses with a comma.",,y,27978,,,4876,27112,,,,"putting in a tank, looking at it, feed it",1
w10138102_rab,0mnyrr1001,"Affordance Norms_USM",1,38,2023-01-29T17:41:23+00:00,25.822501897812,45,"updated stim.csv",Version45.csv,"Version 45","List 45",slime,,1334,4.37037037,2412,0.89658343,1335,BOI,-,-,"Please name all of the ways you could use this object. Keep in mind that one object can have many uses. Separate your responses with a comma.",,y,25438,,,3718,17059,,,,"stretch it, pull it, throw it",1
w10138102_rab,0mnyrr1001,"Affordance Norms_USM",1,39,2023-01-29T17:41:43+00:00,19.93900513649,45,"updated stim.csv",Version45.csv,"Version 45","List 45",curb,,1341,4.72,728,0.315185935,1342,BOI,-,-,"Please name all of the ways you could use this object. Keep in mind that one object can have many uses. Separate your responses with a comma.",,y,19541,,,2633,18441,,,,"walk on it, stand on it, wait by it, hit it with your car",1
w10138102_rab,0mnyrr1001,"Affordance Norms_USM",1,40,2023-01-29T17:42:05+00:00,21.260217905045,45,"updated stim.csv",Version45.csv,"Version 45","List 45",feast,,1325,4.384615385,955,0.002328921,1326,BOI,-,-,"Please name all of the ways you could use this object. Keep in mind that one object can have many uses. Separate your responses with a comma.",,y,20863,,,3970,19208,,,,"eat it, devour it, drink it, share it",1
w10138102_rab,0mnyrr1001,"Affordance Norms_USM",1,41,2023-01-29T17:42:08+00:00,3.7239758968353,45,"updated stim.csv",Version45.csv,"Version 45","List 45",,,,,,,0,Instruct,,,"You will now be asked a few questions about your experience today.",,"Instruct 4",3356,,,-1,-1,,,,,1
