Username,ID,ExperimentName,Session,Trial,Date,TimeDif,"Condition Number","Stimuli File","Order File","Condition Description","Condition Notes",Stimuli*Cue,Stimuli*Answer,Stimuli*Shuffle,"Stimuli*Stimuli Notes",Stimuli*Value,Stimuli*Rand,Procedure*Item,"Procedure*Trial Type","Procedure*Max Time","Procedure*Min Time",Procedure*Text,"Procedure*Procedure Notes",Procedure*Shuffle,Response*RT,Response*Response,Response*Accuracy,Response*RTfirst,Response*RTlast,Response*strictAcc,Response*lenientAcc,Response*focus,Response*JOL,Response*Focus
w10128066LC,6p90qsm8tf,"Affordance Norms_USM",1,1,2023-01-25T17:39:30+00:00,12.625100135803,36,"updated stim.csv",Version36.csv,"Version 36","List 36",,,,,,,0,Instruct,-,10,"In this section, you will be presented with a series of objects. Please name as many possible uses for this object as you can think of by typing them in the box below each object.",,Instruct1,12479,,,-1,-1,,,,,1
w10128066LC,6p90qsm8tf,"Affordance Norms_USM",1,2,2023-01-25T17:39:42+00:00,11.332325935364,36,"updated stim.csv",Version36.csv,"Version 36","List 36",,,,,,,0,Instruct,-,10,"Please keep in mind that a single object will have more than one use. For example, a ball can be thrown or can be bounced or even stepped on. When listing multiple uses for one object, please separate each use with a comma (i.e., thrown, bounced, stepped on)",,Instruct2,11134,,,-1,-1,,,,,1
w10128066LC,6p90qsm8tf,"Affordance Norms_USM",1,3,2023-01-25T17:39:47+00:00,5.393285036087,36,"updated stim.csv",Version36.csv,"Version 36","List 36",,,,,,,0,Instruct,-,-,"Before starting the experiment, you will complete a short practice sesstion. Press ENTER when you are ready to begin.",,Instruct3,5183,,,-1,-1,,,,,1
w10128066LC,6p90qsm8tf,"Affordance Norms_USM",1,4,2023-01-25T17:40:30+00:00,42.945046901703,36,"updated stim.csv",Version36.csv,"Version 36","List 36",paperwork,,3001,5.625,1866,0.124284162,3002,BOI,-,-,"Please name all of the ways you could use this object. Keep in mind that one object can have many uses. Separate your responses with a comma.",,n,42215,,,9214,27795,,,,"filed, shredded, research, ",1
w10128066LC,6p90qsm8tf,"Affordance Norms_USM",1,5,2023-01-25T17:41:11+00:00,41.241168022156,36,"updated stim.csv",Version36.csv,"Version 36","List 36",shortening,,3002,4.92,2358,0.604328482,3003,BOI,-,-,"Please name all of the ways you could use this object. Keep in mind that one object can have many uses. Separate your responses with a comma.",,n,40507,,,25366,32104,,,,"baking, cooking, ",0.919
w10128066LC,6p90qsm8tf,"Affordance Norms_USM",1,6,2023-01-25T17:41:48+00:00,36.750194072723,36,"updated stim.csv",Version36.csv,"Version 36","List 36",saucer,,3005,5.777777778,2249,0.304808074,3006,BOI,-,-,"Please name all of the ways you could use this object. Keep in mind that one object can have many uses. Separate your responses with a comma.",,n,36033,,,9048,33290,,,,"holding food, decoration, ",0.945
w10128066LC,6p90qsm8tf,"Affordance Norms_USM",1,7,2023-01-25T17:42:07+00:00,19.209002017975,36,"updated stim.csv",Version36.csv,"Version 36","List 36",grain,,3004,5.217391304,1143,0.226863762,3005,BOI,-,-,"Please name all of the ways you could use this object. Keep in mind that one object can have many uses. Separate your responses with a comma.",,n,18965,,,5329,17222,,,,"cattle, cooking, farming",1
w10128066LC,6p90qsm8tf,"Affordance Norms_USM",1,8,2023-01-25T17:43:09+00:00,61.452715873718,36,"updated stim.csv",Version36.csv,"Version 36","List 36",spaghetti,,3003,6,2461,0.090379998,3004,BOI,-,-,"Please name all of the ways you could use this object. Keep in mind that one object can have many uses. Separate your responses with a comma.",,n,60724,,,4867,56394,,,,"cooking, eating",0.818
w10128066LC,6p90qsm8tf,"Affordance Norms_USM",1,9,2023-01-25T17:43:11+00:00,2.7961480617523,36,"updated stim.csv",Version36.csv,"Version 36","List 36",,,,,,,0,Instruct,-,-,"You have completed this section. Press ENTER to continue",,"Instruct 5",2612,,,-1,-1,,,,,1
w10128066LC,6p90qsm8tf,"Affordance Norms_USM",1,10,2023-01-25T17:43:14+00:00,2.6942920684814,36,"updated stim.csv",Version36.csv,"Version 36","List 36",,,,,,,0,Instruct,-,-,"You will now start the full experiment. Press ENTER when you are ready to begin.",,,2524,,,-1,-1,,,,,1
w10128066LC,6p90qsm8tf,"Affordance Norms_USM",1,11,2023-01-25T17:43:51+00:00,37.301892995834,36,"updated stim.csv",Version36.csv,"Version 36","List 36",male,,1057,5.5,1581,0.27446193,1058,BOI,-,-,"Please name all of the ways you could use this object. Keep in mind that one object can have many uses. Separate your responses with a comma.",,y,36601,,,10912,35433,,,,"working, cleaning, teaching",1
w10128066LC,6p90qsm8tf,"Affordance Norms_USM",1,12,2023-01-25T17:44:11+00:00,19.88774394989,36,"updated stim.csv",Version36.csv,"Version 36","List 36",laxative,,1052,5.206896552,1476,0.827402237,1053,BOI,-,-,"Please name all of the ways you could use this object. Keep in mind that one object can have many uses. Separate your responses with a comma.",,y,19676,,,4198,18378,,,,"pooping, pranks, health",1
w10128066LC,6p90qsm8tf,"Affordance Norms_USM",1,13,2023-01-25T17:44:23+00:00,12.157705068588,36,"updated stim.csv",Version36.csv,"Version 36","List 36",telescope,,1059,5.916666667,2659,0.548611427,1060,BOI,-,-,"Please name all of the ways you could use this object. Keep in mind that one object can have many uses. Separate your responses with a comma.",,y,11967,,,2882,9633,,,,"sightseeing, stargazing",1
w10128066LC,6p90qsm8tf,"Affordance Norms_USM",1,14,2023-01-25T17:45:17+00:00,53.618499994278,36,"updated stim.csv",Version36.csv,"Version 36","List 36",manicure,,1080,4.730769231,1590,0.1995438,1081,BOI,-,-,"Please name all of the ways you could use this object. Keep in mind that one object can have many uses. Separate your responses with a comma.",,y,52896,,,34629,49873,,,,"nail health",1
w10128066LC,6p90qsm8tf,"Affordance Norms_USM",1,15,2023-01-25T17:45:38+00:00,20.848215818405,36,"updated stim.csv",Version36.csv,"Version 36","List 36",ductwork,,1056,4.52173913,862,0.409527308,1057,BOI,-,-,"Please name all of the ways you could use this object. Keep in mind that one object can have many uses. Separate your responses with a comma.",,y,20646,,,6804,19199,,,,"air conditioning, work",1
w10128066LC,6p90qsm8tf,"Affordance Norms_USM",1,16,2023-01-25T17:46:07+00:00,28.974362134933,36,"updated stim.csv",Version36.csv,"Version 36","List 36",ornament,,1062,6.181818182,1823,0.998707225,1063,BOI,-,-,"Please name all of the ways you could use this object. Keep in mind that one object can have many uses. Separate your responses with a comma.",,y,28747,,,2135,27164,,,,"christmas, holidays, decoration",1
w10128066LC,6p90qsm8tf,"Affordance Norms_USM",1,17,2023-01-25T17:46:24+00:00,16.61697602272,36,"updated stim.csv",Version36.csv,"Version 36","List 36",saltshaker,,1058,6,2228,0.087603339,1059,BOI,-,-,"Please name all of the ways you could use this object. Keep in mind that one object can have many uses. Separate your responses with a comma.",,y,16414,,,2529,14984,,,,"salt storage, food seasoning",1
w10128066LC,6p90qsm8tf,"Affordance Norms_USM",1,18,2023-01-25T17:46:33+00:00,9.2524688243866,36,"updated stim.csv",Version36.csv,"Version 36","List 36",tombstone,,1072,5.043478261,2725,0.273275065,1073,BOI,-,-,"Please name all of the ways you could use this object. Keep in mind that one object can have many uses. Separate your responses with a comma.",,y,9075,,,4562,6652,,,,"a grave, ",1
w10128066LC,6p90qsm8tf,"Affordance Norms_USM",1,19,2023-01-25T17:46:44+00:00,11.146421194077,36,"updated stim.csv",Version36.csv,"Version 36","List 36",teardrop,,1064,4.695652174,2651,0.380138083,1065,BOI,-,-,"Please name all of the ways you could use this object. Keep in mind that one object can have many uses. Separate your responses with a comma.",,y,10958,,,3017,9423,,,,"crying, tattoo",1
w10128066LC,6p90qsm8tf,"Affordance Norms_USM",1,20,2023-01-25T17:46:53+00:00,9.3513629436493,36,"updated stim.csv",Version36.csv,"Version 36","List 36",harmonica,,1061,6.416666667,1251,0.845063225,1062,BOI,-,-,"Please name all of the ways you could use this object. Keep in mind that one object can have many uses. Separate your responses with a comma.",,y,9148,,,3150,8032,,,,"music, cowboys, ",1
w10128066LC,6p90qsm8tf,"Affordance Norms_USM",1,21,2023-01-25T17:47:04+00:00,10.875329017639,36,"updated stim.csv",Version36.csv,"Version 36","List 36",leftovers,,1070,5.625,1485,0.349934709,1071,BOI,-,-,"Please name all of the ways you could use this object. Keep in mind that one object can have many uses. Separate your responses with a comma.",,y,10677,,,1472,9485,,,,"eating, cooking",1
w10128066LC,6p90qsm8tf,"Affordance Norms_USM",1,22,2023-01-25T17:47:13+00:00,8.5890598297119,36,"updated stim.csv",Version36.csv,"Version 36","List 36",llama,,1054,4.75,1530,0.940050955,1055,BOI,-,-,"Please name all of the ways you could use this object. Keep in mind that one object can have many uses. Separate your responses with a comma.",,y,8402,,,2797,7027,,,,"riding, petting",1
w10128066LC,6p90qsm8tf,"Affordance Norms_USM",1,23,2023-01-25T17:47:35+00:00,22.209608078003,36,"updated stim.csv",Version36.csv,"Version 36","List 36",switchboard,,1074,4.777777778,2610,0.925747236,1075,BOI,-,-,"Please name all of the ways you could use this object. Keep in mind that one object can have many uses. Separate your responses with a comma.",,y,22024,,,15819,20402,,,,communications,0.895
w10128066LC,6p90qsm8tf,"Affordance Norms_USM",1,24,2023-01-25T17:47:41+00:00,6.0181591510773,36,"updated stim.csv",Version36.csv,"Version 36","List 36",curler,,1068,4.454545455,730,0.741093099,1069,BOI,-,-,"Please name all of the ways you could use this object. Keep in mind that one object can have many uses. Separate your responses with a comma.",,y,5830,,,3168,3639,,,,"hair ",1
w10128066LC,6p90qsm8tf,"Affordance Norms_USM",1,25,2023-01-25T17:47:48+00:00,7.4731450080872,36,"updated stim.csv",Version36.csv,"Version 36","List 36",barber,,1060,4.958333333,147,0.779479627,1061,BOI,-,-,"Please name all of the ways you could use this object. Keep in mind that one object can have many uses. Separate your responses with a comma.",,y,7283,,,1813,5580,,,,"haircut, work",1
w10128066LC,6p90qsm8tf,"Affordance Norms_USM",1,26,2023-01-25T17:48:08+00:00,19.648051977158,36,"updated stim.csv",Version36.csv,"Version 36","List 36",screwdriver,,1069,6.52173913,2287,0.220320709,1070,BOI,-,-,"Please name all of the ways you could use this object. Keep in mind that one object can have many uses. Separate your responses with a comma.",,y,19448,,,2123,5578,,,,"screws, ",1
w10128066LC,6p90qsm8tf,"Affordance Norms_USM",1,27,2023-01-25T17:48:22+00:00,13.601187944412,36,"updated stim.csv",Version36.csv,"Version 36","List 36",rain,,1067,4.958333333,2129,0.893890864,1068,BOI,-,-,"Please name all of the ways you could use this object. Keep in mind that one object can have many uses. Separate your responses with a comma.",,y,13415,,,3362,11953,,,,"play, water plants",1
w10128066LC,6p90qsm8tf,"Affordance Norms_USM",1,28,2023-01-25T17:49:09+00:00,47.082038879395,36,"updated stim.csv",Version36.csv,"Version 36","List 36",flashbulb,,1076,4.375,1001,0.629683234,1077,BOI,-,-,"Please name all of the ways you could use this object. Keep in mind that one object can have many uses. Separate your responses with a comma.",,y,46380,,,9650,45445,,,,light,1
w10128066LC,6p90qsm8tf,"Affordance Norms_USM",1,29,2023-01-25T17:49:19+00:00,10.639503002167,36,"updated stim.csv",Version36.csv,"Version 36","List 36",vitamins,,1077,5.12,2870,0.952358959,1078,BOI,-,-,"Please name all of the ways you could use this object. Keep in mind that one object can have many uses. Separate your responses with a comma.",,y,10448,,,4307,8569,,,,"health, organs",1
w10128066LC,6p90qsm8tf,"Affordance Norms_USM",1,30,2023-01-25T17:49:29+00:00,9.7529861927032,36,"updated stim.csv",Version36.csv,"Version 36","List 36",engine,,1065,5.333333333,908,0.128914388,1066,BOI,-,-,"Please name all of the ways you could use this object. Keep in mind that one object can have many uses. Separate your responses with a comma.",,y,9575,,,1700,8010,,,,"car, plane, boat, train",1
w10128066LC,6p90qsm8tf,"Affordance Norms_USM",1,31,2023-01-25T17:49:36+00:00,7.2241158485413,36,"updated stim.csv",Version36.csv,"Version 36","List 36",mentor,,1053,4.347826087,1645,0.570505968,1054,BOI,-,-,"Please name all of the ways you could use this object. Keep in mind that one object can have many uses. Separate your responses with a comma.",,y,7032,,,1593,6007,,,,"study, teach",1
w10128066LC,6p90qsm8tf,"Affordance Norms_USM",1,32,2023-01-25T17:49:43+00:00,6.2121870517731,36,"updated stim.csv",Version36.csv,"Version 36","List 36",evergreen,,1078,4.444444444,923,0.294521341,1079,BOI,-,-,"Please name all of the ways you could use this object. Keep in mind that one object can have many uses. Separate your responses with a comma.",,y,6004,,,4436,4994,,,,song,1
w10128066LC,6p90qsm8tf,"Affordance Norms_USM",1,33,2023-01-25T17:49:56+00:00,12.938034057617,36,"updated stim.csv",Version36.csv,"Version 36","List 36",alfalfa,,1073,5.045454545,26,0.1332912,1074,BOI,-,-,"Please name all of the ways you could use this object. Keep in mind that one object can have many uses. Separate your responses with a comma.",,y,12751,,,3203,10113,,,,"horses, ",1
w10128066LC,6p90qsm8tf,"Affordance Norms_USM",1,34,2023-01-25T17:50:03+00:00,7.2576348781586,36,"updated stim.csv",Version36.csv,"Version 36","List 36",houseboat,,1071,4.956521739,1327,0.078689969,1072,BOI,-,-,"Please name all of the ways you could use this object. Keep in mind that one object can have many uses. Separate your responses with a comma.",,y,7065,,,2859,5922,,,,"water, home",1
w10128066LC,6p90qsm8tf,"Affordance Norms_USM",1,35,2023-01-25T17:50:21+00:00,18.644289970398,36,"updated stim.csv",Version36.csv,"Version 36","List 36",beagle,,1075,5.2,179,0.616805077,1076,BOI,-,-,"Please name all of the ways you could use this object. Keep in mind that one object can have many uses. Separate your responses with a comma.",,y,18457,,,2317,16818,,,,"hunting, animal, companion",1
w10128066LC,6p90qsm8tf,"Affordance Norms_USM",1,36,2023-01-25T17:50:36+00:00,14.159545183182,36,"updated stim.csv",Version36.csv,"Version 36","List 36",lambskin,,1055,4.416666667,1454,0.690896227,1056,BOI,-,-,"Please name all of the ways you could use this object. Keep in mind that one object can have many uses. Separate your responses with a comma.",,y,13974,,,3572,13388,,,,"clothing, decoration",1
w10128066LC,6p90qsm8tf,"Affordance Norms_USM",1,37,2023-01-25T17:50:48+00:00,12.845853805542,36,"updated stim.csv",Version36.csv,"Version 36","List 36",drugstore,,1079,5.260869565,853,0.581825983,1080,BOI,-,-,"Please name all of the ways you could use this object. Keep in mind that one object can have many uses. Separate your responses with a comma.",,y,12656,,,2152,11855,,,,"medicine, groceries",1
w10128066LC,6p90qsm8tf,"Affordance Norms_USM",1,38,2023-01-25T17:51:04+00:00,15.30934715271,36,"updated stim.csv",Version36.csv,"Version 36","List 36",motorcycle,,1066,5.555555556,1696,0.62938025,1067,BOI,-,-,"Please name all of the ways you could use this object. Keep in mind that one object can have many uses. Separate your responses with a comma.",,y,15126,,,4367,13996,,,,"bikers, helmet, riding",1
w10128066LC,6p90qsm8tf,"Affordance Norms_USM",1,39,2023-01-25T17:51:15+00:00,11.124090909958,36,"updated stim.csv",Version36.csv,"Version 36","List 36",edibles,,1063,5.428571429,888,0.341038926,1064,BOI,-,-,"Please name all of the ways you could use this object. Keep in mind that one object can have many uses. Separate your responses with a comma.",,y,10934,,,7421,10061,,,,"eat, drink",1
w10128066LC,6p90qsm8tf,"Affordance Norms_USM",1,40,2023-01-25T17:51:27+00:00,11.836259126663,36,"updated stim.csv",Version36.csv,"Version 36","List 36",woodshed,,1051,5.25,2964,0.210010171,1052,BOI,-,-,"Please name all of the ways you could use this object. Keep in mind that one object can have many uses. Separate your responses with a comma.",,y,11634,,,3226,10928,,,,"storage, safety",1
w10128066LC,6p90qsm8tf,"Affordance Norms_USM",1,41,2023-01-25T17:51:31+00:00,4.2953238487244,36,"updated stim.csv",Version36.csv,"Version 36","List 36",,,,,,,0,Instruct,,,"You will now be asked a few questions about your experience today.",,"Instruct 4",4117,,,-1,-1,,,,,1
