Username,ID,ExperimentName,Session,Trial,Date,TimeDif,"Condition Number","Stimuli File","Order File","Condition Description","Condition Notes",Stimuli*Cue,Stimuli*Answer,Stimuli*Shuffle,"Stimuli*Stimuli Notes",Stimuli*Value,Stimuli*Rand,Procedure*Item,"Procedure*Trial Type","Procedure*Max Time","Procedure*Min Time",Procedure*Text,"Procedure*Procedure Notes",Procedure*Shuffle,Response*RT,Response*Response,Response*Accuracy,Response*RTfirst,Response*RTlast,Response*strictAcc,Response*lenientAcc,Response*focus,Response*JOL,Response*Focus
w10139038_kgm,2h4ksgruln,"Affordance Norms_USM",1,1,2023-01-04T17:13:50+00:00,14.951443910599,3,"updated stim.csv",Version3.csv,"Version 3","List 3",,,,,,,0,Instruct,-,10,"In this section, you will be presented with a series of objects. Please name as many possible uses for this object as you can think of by typing them in the box below each object.",,Instruct1,14444,,,-1,-1,,,,,1
w10139038_kgm,2h4ksgruln,"Affordance Norms_USM",1,2,2023-01-04T17:14:04+00:00,14.192486047745,3,"updated stim.csv",Version3.csv,"Version 3","List 3",,,,,,,0,Instruct,-,10,"Please keep in mind that a single object will have more than one use. For example, a ball can be thrown or can be bounced or even stepped on. When listing multiple uses for one object, please separate each use with a comma (i.e., thrown, bounced, stepped on)",,Instruct2,13911,,,-1,-1,,,,,1
w10139038_kgm,2h4ksgruln,"Affordance Norms_USM",1,3,2023-01-04T17:14:09+00:00,5.5671088695526,3,"updated stim.csv",Version3.csv,"Version 3","List 3",,,,,,,0,Instruct,-,-,"Before starting the experiment, you will complete a short practice sesstion. Press ENTER when you are ready to begin.",,Instruct3,5276,,,-1,-1,,,,,1
w10139038_kgm,2h4ksgruln,"Affordance Norms_USM",1,4,2023-01-04T17:16:23+00:00,133.52960205078,3,"updated stim.csv",Version3.csv,"Version 3","List 3",grain,,3004,5.217391304,1143,0.226863762,3005,BOI,-,-,"Please name all of the ways you could use this object. Keep in mind that one object can have many uses. Separate your responses with a comma.",,n,132696,,,4254,129141,,,,"bread, cereal, livestock food, breakfast food, tortillas, papusas, popcorn",1
w10139038_kgm,2h4ksgruln,"Affordance Norms_USM",1,5,2023-01-04T17:19:23+00:00,179.9528939724,3,"updated stim.csv",Version3.csv,"Version 3","List 3",shortening,,3002,4.92,2358,0.604328482,3003,BOI,-,-,"Please name all of the ways you could use this object. Keep in mind that one object can have many uses. Separate your responses with a comma.",,n,179640,,,7145,162897,,,,"pie crust, cakes, cupcakes, baking, puff pastry, butter substitute",1
w10139038_kgm,2h4ksgruln,"Affordance Norms_USM",1,6,2023-01-04T17:21:38+00:00,134.93098497391,3,"updated stim.csv",Version3.csv,"Version 3","List 3",paperwork,,3001,5.625,1866,0.124284162,3002,BOI,-,-,"Please name all of the ways you could use this object. Keep in mind that one object can have many uses. Separate your responses with a comma.",,n,134649,,,9939,132396,,,,"filing, taxes, homework, hospital release form, personal information, passport, college",1
w10139038_kgm,2h4ksgruln,"Affordance Norms_USM",1,7,2023-01-04T17:24:01+00:00,143.56736922264,3,"updated stim.csv",Version3.csv,"Version 3","List 3",spaghetti,,3003,6,2461,0.090379998,3004,BOI,-,-,"Please name all of the ways you could use this object. Keep in mind that one object can have many uses. Separate your responses with a comma.",,n,142749,,,7299,129649,,,,"eat, throw, plate, display, noodle pie, spaghetti and meatballs, italian dishes, noddles can be used to build model bridges",1
w10139038_kgm,2h4ksgruln,"Affordance Norms_USM",1,8,2023-01-04T17:26:26+00:00,145.12857079506,3,"updated stim.csv",Version3.csv,"Version 3","List 3",saucer,,3005,5.777777778,2249,0.304808074,3006,BOI,-,-,"Please name all of the ways you could use this object. Keep in mind that one object can have many uses. Separate your responses with a comma.",,n,144338,,,4591,141851,,,,"circle tracer, to place a cup on, hold sauce, place for spoon, small amounts of food can be placed on it, dessert presentation plate, display in china cabinet, break it, clean it, use it in art, tap it, as a jewelry holder",1
w10139038_kgm,2h4ksgruln,"Affordance Norms_USM",1,9,2023-01-04T17:26:29+00:00,2.5175271034241,3,"updated stim.csv",Version3.csv,"Version 3","List 3",,,,,,,0,Instruct,-,-,"You have completed this section. Press ENTER to continue",,"Instruct 5",2279,,,-1,-1,,,,,1
w10139038_kgm,2h4ksgruln,"Affordance Norms_USM",1,10,2023-01-04T17:26:31+00:00,2.2345578670502,3,"updated stim.csv",Version3.csv,"Version 3","List 3",,,,,,,0,Instruct,-,-,"You will now start the full experiment. Press ENTER when you are ready to begin.",,,2012,,,-1,-1,,,,,1
w10139038_kgm,2h4ksgruln,"Affordance Norms_USM",1,11,2023-01-04T17:30:02+00:00,210.35770606995,3,"updated stim.csv",Version3.csv,"Version 3","List 3",litter,,75,5.034482759,1526,0.130915448,76,BOI,-,-,"Please name all of the ways you could use this object. Keep in mind that one object can have many uses. Separate your responses with a comma.",,y,209513,,,18350,174539,,,,"as a place for cats to do their business, describe a group of cats, to describe trash thrown on ground, used to pick up spilled oil, for compost piles",1
w10139038_kgm,2h4ksgruln,"Affordance Norms_USM",1,12,2023-01-04T17:32:01+00:00,119.71606302261,3,"updated stim.csv",Version3.csv,"Version 3","List 3",fastener,,82,4.347826087,950,0.481228199,83,BOI,-,-,"Please name all of the ways you could use this object. Keep in mind that one object can have many uses. Separate your responses with a comma.",,y,118913,,,5777,116652,,,,"to hold something in place, hold somethings together, to nail something together, to screw something together, to hold something up on the ceiling or wall",1
w10139038_kgm,2h4ksgruln,"Affordance Norms_USM",1,13,2023-01-04T17:33:03+00:00,61.271807909012,3,"updated stim.csv",Version3.csv,"Version 3","List 3",footplate,,90,4.875,1038,0.590943274,91,BOI,-,-,"Please name all of the ways you could use this object. Keep in mind that one object can have many uses. Separate your responses with a comma.",,y,60488,,,4136,54392,,,,"place to put your foot, to stand on, to step on, to sit on, to place things on",1
w10139038_kgm,2h4ksgruln,"Affordance Norms_USM",1,14,2023-01-04T17:34:23+00:00,80.110818147659,3,"updated stim.csv",Version3.csv,"Version 3","List 3",sash,,79,4.916666667,2244,0.813802173,80,BOI,-,-,"Please name all of the ways you could use this object. Keep in mind that one object can have many uses. Separate your responses with a comma.",,y,79306,,,1649,77761,,,,"to tie something together, for fashion, to show a winner of a contest, to bind something, to sew to a dress, to be part of a hair style, to be a part of art, to throw, to rip, to sew, to cut into pieces",1
w10139038_kgm,2h4ksgruln,"Affordance Norms_USM",1,15,2023-01-04T17:35:54+00:00,90.822120904922,3,"updated stim.csv",Version3.csv,"Version 3","List 3",stone,,67,5.875,2545,0.16935575,68,BOI,-,-,"Please name all of the ways you could use this object. Keep in mind that one object can have many uses. Separate your responses with a comma.",,y,89951,,,1291,88348,,,,"to throw, to strike, to break, to chisel, to defend oneself, for building materials, for decoration, for people who believe in witchcraft, for a firpit, for sitting on, for standing on, for climbing on",1
w10139038_kgm,2h4ksgruln,"Affordance Norms_USM",1,16,2023-01-04T17:36:54+00:00,60.668178081512,3,"updated stim.csv",Version3.csv,"Version 3","List 3",rink,,71,4.333333333,2171,0.641556175,72,BOI,-,-,"Please name all of the ways you could use this object. Keep in mind that one object can have many uses. Separate your responses with a comma.",,y,59857,,,1468,54364,,,,"to skate in, to play hockey in, to film a movie on, to fall on, to compete on",1
w10139038_kgm,2h4ksgruln,"Affordance Norms_USM",1,17,2023-01-04T17:38:03+00:00,68.405124902725,3,"updated stim.csv",Version3.csv,"Version 3","List 3",dogcatcher,,74,4.72,812,0.011096937,75,BOI,-,-,"Please name all of the ways you could use this object. Keep in mind that one object can have many uses. Separate your responses with a comma.",,y,67594,,,1911,61539,,,,"to find dogs, to capture dogs, to take dogs to shelter, to find lost dogs, to return dogs to owners",1
w10139038_kgm,2h4ksgruln,"Affordance Norms_USM",1,18,2023-01-04T17:39:46+00:00,103.25939106941,3,"updated stim.csv",Version3.csv,"Version 3","List 3",postmaster,,64,5.2,2045,0.553054431,65,BOI,-,-,"Please name all of the ways you could use this object. Keep in mind that one object can have many uses. Separate your responses with a comma.",,y,102321,,,8213,100257,,,,"to lead a post office, to seperate mail, to send mail, to enforce the rules",1
w10139038_kgm,2h4ksgruln,"Affordance Norms_USM",1,19,2023-01-04T17:41:10+00:00,83.950140953064,3,"updated stim.csv",Version3.csv,"Version 3","List 3",plow,,68,5,2008,0.897588843,69,BOI,-,-,"Please name all of the ways you could use this object. Keep in mind that one object can have many uses. Separate your responses with a comma.",,y,83149,,,1171,75651,,,,"to dig up dirt, to move thru a crowd, to be attached to oxen, to be used to dig up old plants, to make new farmland",1
w10139038_kgm,2h4ksgruln,"Affordance Norms_USM",1,20,2023-01-04T17:42:42+00:00,91.840415000916,3,"updated stim.csv",Version3.csv,"Version 3","List 3",limestone,,81,4.565217391,1515,0.357597243,82,BOI,-,-,"Please name all of the ways you could use this object. Keep in mind that one object can have many uses. Separate your responses with a comma.",,y,91031,,,3550,76722,,,,"as a building material, to throw, to chisel, to break, to sit on, to stand on, to walk on, to lay on, to climb on, to cut out of a mountain or quarry ",1
w10139038_kgm,2h4ksgruln,"Affordance Norms_USM",1,21,2023-01-04T17:43:55+00:00,72.86830997467,3,"updated stim.csv",Version3.csv,"Version 3","List 3",businesswoman,,86,5.08,371,0.22831517,87,BOI,-,-,"Please name all of the ways you could use this object. Keep in mind that one object can have many uses. Separate your responses with a comma.",,y,72068,,,4425,70461,,,,"to lead, to conduct business, to make presentations, to talk to customers or interested parties, to negotiate, to vote on laws, to be a part of the economy",1
w10139038_kgm,2h4ksgruln,"Affordance Norms_USM",1,22,2023-01-04T17:45:30+00:00,95.743803977966,3,"updated stim.csv",Version3.csv,"Version 3","List 3",police,,72,4.739130435,2021,0.71377516,73,BOI,-,-,"Please name all of the ways you could use this object. Keep in mind that one object can have many uses. Separate your responses with a comma.",,y,94959,,,1325,91620,,,,"to provide protection, to arrest people, to lead funerals, to guide traffic, to enfore the laws, to investigate crimes, to head to emergencies like fires and crashes to provide support",1
w10139038_kgm,2h4ksgruln,"Affordance Norms_USM",1,23,2023-01-04T17:46:40+00:00,70.145691156387,3,"updated stim.csv",Version3.csv,"Version 3","List 3",backbone,,65,4.64,113,0.193301397,66,BOI,-,-,"Please name all of the ways you could use this object. Keep in mind that one object can have many uses. Separate your responses with a comma.",,y,69324,,,1198,59293,,,,"to hold up the body, to protect the nerve cord, to be a part of the skeleton, to break, to have surgery on, to be shattered, to fracture",1
w10139038_kgm,2h4ksgruln,"Affordance Norms_USM",1,24,2023-01-04T17:47:55+00:00,74.355501890182,3,"updated stim.csv",Version3.csv,"Version 3","List 3",stuff,,77,4.391304348,2574,0.106746219,78,BOI,-,-,"Please name all of the ways you could use this object. Keep in mind that one object can have many uses. Separate your responses with a comma.",,y,73532,,,2201,71350,,,,"to have, to buy, to sell, to throw out, to donate, to trade, to throw, to break, to replace, to sit on, to lay on, to stand on, to exercise with, to play with, to listen with, to clean with",1
w10139038_kgm,2h4ksgruln,"Affordance Norms_USM",1,25,2023-01-04T17:49:03+00:00,68.198651075363,3,"updated stim.csv",Version3.csv,"Version 3","List 3",postage,,83,4.32,2041,0.504174346,84,BOI,-,-,"Please name all of the ways you could use this object. Keep in mind that one object can have many uses. Separate your responses with a comma.",,y,67368,,,1457,57654,,,,"to send with, to buy, to have, to recieve",1
w10139038_kgm,2h4ksgruln,"Affordance Norms_USM",1,26,2023-01-04T17:51:15+00:00,131.64401888847,3,"updated stim.csv",Version3.csv,"Version 3","List 3",rack,,73,4.68,2119,0.859929905,74,BOI,-,-,"Please name all of the ways you could use this object. Keep in mind that one object can have many uses. Separate your responses with a comma.",,y,130825,,,1260,121201,,,,"to hold objects, to hang objects, a name to call a portion of ribs, for decoration, for storage ",1
w10139038_kgm,2h4ksgruln,"Affordance Norms_USM",1,27,2023-01-04T17:53:10+00:00,115.70831012726,3,"updated stim.csv",Version3.csv,"Version 3","List 3",spit,,76,4.391304348,2476,0.828123751,77,BOI,-,-,"Please name all of the ways you could use this object. Keep in mind that one object can have many uses. Separate your responses with a comma.",,y,114860,,,5381,91379,,,,"to spit out of mouth, to show anger, to spit out tobacco, to help dissolve food, to keep mouth moist, to use to keep goggles from fogging up underwater, to use in a handshake",1
w10139038_kgm,2h4ksgruln,"Affordance Norms_USM",1,28,2023-01-04T17:54:25+00:00,75.124063014984,3,"updated stim.csv",Version3.csv,"Version 3","List 3",crumb,,89,4.45,714,0.473160418,90,BOI,-,-,"Please name all of the ways you could use this object. Keep in mind that one object can have many uses. Separate your responses with a comma.",,y,74343,,,5650,73041,,,,"to give to animals, to dirty a kitchen, to be used in recipes, to break into pieces, to throw, to eat, to burn, to wipe away",1
w10139038_kgm,2h4ksgruln,"Affordance Norms_USM",1,29,2023-01-04T17:55:31+00:00,66.033421039581,3,"updated stim.csv",Version3.csv,"Version 3","List 3",tights,,63,5.956521739,2696,0.229279242,64,BOI,-,-,"Please name all of the ways you could use this object. Keep in mind that one object can have many uses. Separate your responses with a comma.",,y,65207,,,5358,63651,,,,"to be a fashion item, to hold in heat, to allow flexibility, to be worn, to be ripped, to be thrown out, to be sewn, to be set on fire, to be donated",1
w10139038_kgm,2h4ksgruln,"Affordance Norms_USM",1,30,2023-01-04T17:57:11+00:00,99.312527894974,3,"updated stim.csv",Version3.csv,"Version 3","List 3",plastics,,61,5,1995,0.297611551,62,BOI,-,-,"Please name all of the ways you could use this object. Keep in mind that one object can have many uses. Separate your responses with a comma.",,y,98516,,,1315,93405,,,,"to be used for holding food and drink, to be recycled, to be used for toys, to be used for decoration, to be used to produce may items, to be broken, to be melted, to be thrown out, to be donated, to be sat on",1
w10139038_kgm,2h4ksgruln,"Affordance Norms_USM",1,31,2023-01-04T17:58:34+00:00,83.431152105331,3,"updated stim.csv",Version3.csv,"Version 3","List 3",stake,,66,4.36,2503,0.391571319,67,BOI,-,-,"Please name all of the ways you could use this object. Keep in mind that one object can have many uses. Separate your responses with a comma.",,y,82594,,,1149,81193,,,,"to be used to hold up a tent or blowup, to be used to hold a dog lease, to be used to cook food, to be burned, to be used in horseshoes, to be used as a defense tool, to be broken, to be a ground marker",1
w10139038_kgm,2h4ksgruln,"Affordance Norms_USM",1,32,2023-01-04T17:59:48+00:00,73.613808870316,3,"updated stim.csv",Version3.csv,"Version 3","List 3",lumber,,88,5.217391304,1557,0.027089463,89,BOI,-,-,"Please name all of the ways you could use this object. Keep in mind that one object can have many uses. Separate your responses with a comma.",,y,72818,,,1128,70932,,,,"to be building material, to set on fire, to cut, to shape, to make into furniture, to nail and screw togther, to throw, to make toys, to make bows",1
w10139038_kgm,2h4ksgruln,"Affordance Norms_USM",1,33,2023-01-04T18:00:54+00:00,66.338413000107,3,"updated stim.csv",Version3.csv,"Version 3","List 3",pinecone,,62,5.821428571,1972,0.647636876,63,BOI,-,-,"Please name all of the ways you could use this object. Keep in mind that one object can have many uses. Separate your responses with a comma.",,y,65549,,,1156,53593,,,,"to be a seed, to use with peanut butter to be a bird feeder, to be decoration, to set on fire, to throw, to break, to make into woodchips",1
w10139038_kgm,2h4ksgruln,"Affordance Norms_USM",1,34,2023-01-04T18:02:08+00:00,74.333835124969,3,"updated stim.csv",Version3.csv,"Version 3","List 3",sportswriter,,69,4.32,2484,0.788241169,70,BOI,-,-,"Please name all of the ways you could use this object. Keep in mind that one object can have many uses. Separate your responses with a comma.",,y,73500,,,2144,70941,,,,"to write about sports, to observe sports, to predict sports, to research sports, to talk to sports team members",1
w10139038_kgm,2h4ksgruln,"Affordance Norms_USM",1,35,2023-01-04T18:03:29+00:00,80.353134870529,3,"updated stim.csv",Version3.csv,"Version 3","List 3",perfume,,78,4.96,1926,0.460539621,79,BOI,-,-,"Please name all of the ways you could use this object. Keep in mind that one object can have many uses. Separate your responses with a comma.",,y,79542,,,2245,74087,,,,"to smell nice, to be a part of the women readying process, to overwhelm people with sentsitive noses, to throw, to break, to spill, to buy, to sell",1
w10139038_kgm,2h4ksgruln,"Affordance Norms_USM",1,36,2023-01-04T18:04:21+00:00,52.240247964859,3,"updated stim.csv",Version3.csv,"Version 3","List 3",delicatessen,,87,4.347826087,768,0.964513541,88,BOI,-,-,"Please name all of the ways you could use this object. Keep in mind that one object can have many uses. Separate your responses with a comma.",,y,51436,,,43884,45408,,,,"as a store",1
w10139038_kgm,2h4ksgruln,"Affordance Norms_USM",1,37,2023-01-04T18:05:45+00:00,83.650161981583,3,"updated stim.csv",Version3.csv,"Version 3","List 3",curtain,,84,5.875,732,0.795847806,85,BOI,-,-,"Please name all of the ways you could use this object. Keep in mind that one object can have many uses. Separate your responses with a comma.",,y,82803,,,1218,81543,,,,"to be decoration, to block light, to sew, to rip, to burn, to cover plants in the winter, to lay on",1
w10139038_kgm,2h4ksgruln,"Affordance Norms_USM",1,38,2023-01-04T18:06:44+00:00,59.027636051178,3,"updated stim.csv",Version3.csv,"Version 3","List 3",cart,,70,5.4,442,0.978148159,71,BOI,-,-,"Please name all of the ways you could use this object. Keep in mind that one object can have many uses. Separate your responses with a comma.",,y,58236,,,1170,56497,,,,"to use in a grocery store, to hold children, to transport",1
w10139038_kgm,2h4ksgruln,"Affordance Norms_USM",1,39,2023-01-04T18:07:21+00:00,37.638904094696,3,"updated stim.csv",Version3.csv,"Version 3","List 3",overcoat,,85,6.52,1832,0.794942896,86,BOI,-,-,"Please name all of the ways you could use this object. Keep in mind that one object can have many uses. Separate your responses with a comma.",,y,36849,,,1119,34504,,,,"to go over an outfit or another coat, to be hung up, to keep one warm and dry, to be washed",1
w10139038_kgm,2h4ksgruln,"Affordance Norms_USM",1,40,2023-01-04T18:08:18+00:00,56.724841833115,3,"updated stim.csv",Version3.csv,"Version 3","List 3",lilac,,80,5,1508,0.204621036,81,BOI,-,-,"Please name all of the ways you could use this object. Keep in mind that one object can have many uses. Separate your responses with a comma.",,y,55918,,,1293,54296,,,,"to plant, to help cause relaxation, to be put in perfumes, to be a scent in bath objects, to be a color",1
w10139038_kgm,2h4ksgruln,"Affordance Norms_USM",1,41,2023-01-04T18:08:21+00:00,2.9970932006836,3,"updated stim.csv",Version3.csv,"Version 3","List 3",,,,,,,0,Instruct,,,"You will now be asked a few questions about your experience today.",,"Instruct 4",2769,,,-1,-1,,,,,1
