Username,ID,ExperimentName,Session,Trial,Date,TimeDif,"Condition Number","Stimuli File","Order File","Condition Description","Condition Notes",Stimuli*Cue,Stimuli*Answer,Stimuli*Shuffle,"Stimuli*Stimuli Notes",Stimuli*Value,Stimuli*Rand,Procedure*Item,"Procedure*Trial Type","Procedure*Max Time","Procedure*Min Time",Procedure*Text,"Procedure*Procedure Notes",Procedure*Shuffle,Response*RT,Response*Response,Response*Accuracy,Response*RTfirst,Response*RTlast,Response*strictAcc,Response*lenientAcc,Response*focus,Response*JOL,Response*Focus
w10126620ZN,bkt7vid8v3,"Affordance Norms_USM",1,1,2023-01-24T04:44:08+00:00,11.845749139786,33,"updated stim.csv",Version33.csv,"Version 33","List 33",,,,,,,0,Instruct,-,10,"In this section, you will be presented with a series of objects. Please name as many possible uses for this object as you can think of by typing them in the box below each object.",,Instruct1,11731,,,-1,-1,,,,,1
w10126620ZN,bkt7vid8v3,"Affordance Norms_USM",1,2,2023-01-24T04:44:23+00:00,15.172178030014,33,"updated stim.csv",Version33.csv,"Version 33","List 33",,,,,,,0,Instruct,-,10,"Please keep in mind that a single object will have more than one use. For example, a ball can be thrown or can be bounced or even stepped on. When listing multiple uses for one object, please separate each use with a comma (i.e., thrown, bounced, stepped on)",,Instruct2,15011,,,-1,-1,,,,,1
w10126620ZN,bkt7vid8v3,"Affordance Norms_USM",1,3,2023-01-24T04:44:24+00:00,0.73228001594543,33,"updated stim.csv",Version33.csv,"Version 33","List 33",,,,,,,0,Instruct,-,-,"Before starting the experiment, you will complete a short practice sesstion. Press ENTER when you are ready to begin.",,Instruct3,570,,,-1,-1,,,,,1
w10126620ZN,bkt7vid8v3,"Affordance Norms_USM",1,4,2023-01-24T04:45:08+00:00,44.421328783035,33,"updated stim.csv",Version33.csv,"Version 33","List 33",shortening,,3002,4.92,2358,0.604328482,3003,BOI,-,-,"Please name all of the ways you could use this object. Keep in mind that one object can have many uses. Separate your responses with a comma.",,n,43742,,,42122,42627,,,,10,1
w10126620ZN,bkt7vid8v3,"Affordance Norms_USM",1,5,2023-01-24T04:45:49+00:00,40.785401105881,33,"updated stim.csv",Version33.csv,"Version 33","List 33",paperwork,,3001,5.625,1866,0.124284162,3002,BOI,-,-,"Please name all of the ways you could use this object. Keep in mind that one object can have many uses. Separate your responses with a comma.",,n,40053,,,38999,39156,,,,12,1
w10126620ZN,bkt7vid8v3,"Affordance Norms_USM",1,6,2023-01-24T04:45:52+00:00,3.0879859924316,33,"updated stim.csv",Version33.csv,"Version 33","List 33",saucer,,3005,5.777777778,2249,0.304808074,3006,BOI,-,-,"Please name all of the ways you could use this object. Keep in mind that one object can have many uses. Separate your responses with a comma.",,n,2822,,,2416,2416,,,,5,1
w10126620ZN,bkt7vid8v3,"Affordance Norms_USM",1,7,2023-01-24T04:45:54+00:00,2.0913610458374,33,"updated stim.csv",Version33.csv,"Version 33","List 33",grain,,3004,5.217391304,1143,0.226863762,3005,BOI,-,-,"Please name all of the ways you could use this object. Keep in mind that one object can have many uses. Separate your responses with a comma.",,n,1940,,,1142,1142,,,,1,1
w10126620ZN,bkt7vid8v3,"Affordance Norms_USM",1,8,2023-01-24T04:45:56+00:00,1.6604499816895,33,"updated stim.csv",Version33.csv,"Version 33","List 33",spaghetti,,3003,6,2461,0.090379998,3004,BOI,-,-,"Please name all of the ways you could use this object. Keep in mind that one object can have many uses. Separate your responses with a comma.",,n,1511,,,1142,1142,,,,3,1
w10126620ZN,bkt7vid8v3,"Affordance Norms_USM",1,9,2023-01-24T04:45:58+00:00,2.2269380092621,33,"updated stim.csv",Version33.csv,"Version 33","List 33",,,,,,,0,Instruct,-,-,"You have completed this section. Press ENTER to continue",,"Instruct 5",2074,,,-1,-1,,,,,1
w10126620ZN,bkt7vid8v3,"Affordance Norms_USM",1,10,2023-01-24T04:45:59+00:00,0.67392706871033,33,"updated stim.csv",Version33.csv,"Version 33","List 33",,,,,,,0,Instruct,-,-,"You will now start the full experiment. Press ENTER when you are ready to begin.",,,519,,,-1,-1,,,,,1
w10126620ZN,bkt7vid8v3,"Affordance Norms_USM",1,11,2023-01-24T04:46:00+00:00,1.9490718841553,33,"updated stim.csv",Version33.csv,"Version 33","List 33",film,,962,4.32,976,0.691653447,963,BOI,-,-,"Please name all of the ways you could use this object. Keep in mind that one object can have many uses. Separate your responses with a comma.",,y,1785,,,1069,1069,,,,3,1
w10126620ZN,bkt7vid8v3,"Affordance Norms_USM",1,12,2023-01-24T04:46:02+00:00,1.1851871013641,33,"updated stim.csv",Version33.csv,"Version 33","List 33",straw,,979,6,2560,0.877814982,980,BOI,-,-,"Please name all of the ways you could use this object. Keep in mind that one object can have many uses. Separate your responses with a comma.",,y,1020,,,618,618,,,,4,1
w10126620ZN,bkt7vid8v3,"Affordance Norms_USM",1,13,2023-01-24T04:46:03+00:00,1.2069029808044,33,"updated stim.csv",Version33.csv,"Version 33","List 33",outlet,,987,4.541666667,1830,0.619429366,988,BOI,-,-,"Please name all of the ways you could use this object. Keep in mind that one object can have many uses. Separate your responses with a comma.",,y,1026,,,605,605,,,,4,1
w10126620ZN,bkt7vid8v3,"Affordance Norms_USM",1,14,2023-01-24T04:46:04+00:00,1.0361318588257,33,"updated stim.csv",Version33.csv,"Version 33","List 33",balloon,,965,5.523809524,130,0.32616005,966,BOI,-,-,"Please name all of the ways you could use this object. Keep in mind that one object can have many uses. Separate your responses with a comma.",,y,877,,,464,464,,,,2,1
w10126620ZN,bkt7vid8v3,"Affordance Norms_USM",1,15,2023-01-24T04:46:05+00:00,1.0061841011047,33,"updated stim.csv",Version33.csv,"Version 33","List 33",hairpiece,,985,5.956521739,1215,0.297195839,986,BOI,-,-,"Please name all of the ways you could use this object. Keep in mind that one object can have many uses. Separate your responses with a comma.",,y,858,,,498,498,,,,5,1
w10126620ZN,bkt7vid8v3,"Affordance Norms_USM",1,16,2023-01-24T04:46:06+00:00,1.070277929306,33,"updated stim.csv",Version33.csv,"Version 33","List 33",sculpture,,977,5.782608696,2292,0.174656033,978,BOI,-,-,"Please name all of the ways you could use this object. Keep in mind that one object can have many uses. Separate your responses with a comma.",,y,911,,,494,494,,,,3,1
w10126620ZN,bkt7vid8v3,"Affordance Norms_USM",1,17,2023-01-24T04:46:07+00:00,1.0721590518951,33,"updated stim.csv",Version33.csv,"Version 33","List 33",cowskin,,983,4.652173913,673,0.642496907,984,BOI,-,-,"Please name all of the ways you could use this object. Keep in mind that one object can have many uses. Separate your responses with a comma.",,y,917,,,560,560,,,,4,1
w10126620ZN,bkt7vid8v3,"Affordance Norms_USM",1,18,2023-01-24T04:46:08+00:00,1.1387689113617,33,"updated stim.csv",Version33.csv,"Version 33","List 33",bobsleigh,,972,5.64,258,0.346646786,973,BOI,-,-,"Please name all of the ways you could use this object. Keep in mind that one object can have many uses. Separate your responses with a comma.",,y,934,,,497,497,,,,5,1
w10126620ZN,bkt7vid8v3,"Affordance Norms_USM",1,19,2023-01-24T04:46:09+00:00,1.1186800003052,33,"updated stim.csv",Version33.csv,"Version 33","List 33",appraiser,,980,4.428571429,64,0.495272772,981,BOI,-,-,"Please name all of the ways you could use this object. Keep in mind that one object can have many uses. Separate your responses with a comma.",,y,964,,,494,505,,,,21,1
w10126620ZN,bkt7vid8v3,"Affordance Norms_USM",1,20,2023-01-24T04:46:10+00:00,1.1779260635376,33,"updated stim.csv",Version33.csv,"Version 33","List 33",termite,,970,4.32,2666,0.766142266,971,BOI,-,-,"Please name all of the ways you could use this object. Keep in mind that one object can have many uses. Separate your responses with a comma.",,y,1023,,,597,597,,,,2,1
w10126620ZN,bkt7vid8v3,"Affordance Norms_USM",1,21,2023-01-24T04:46:12+00:00,1.0919680595398,33,"updated stim.csv",Version33.csv,"Version 33","List 33",bedroom,,989,5.708333333,187,0.811979773,990,BOI,-,-,"Please name all of the ways you could use this object. Keep in mind that one object can have many uses. Separate your responses with a comma.",,y,937,,,552,552,,,,1,1
w10126620ZN,bkt7vid8v3,"Affordance Norms_USM",1,22,2023-01-24T04:46:13+00:00,0.97674584388733,33,"updated stim.csv",Version33.csv,"Version 33","List 33",buoy,,990,5.125,364,0.101508321,991,BOI,-,-,"Please name all of the ways you could use this object. Keep in mind that one object can have many uses. Separate your responses with a comma.",,y,828,,,452,452,,,,2,1
w10126620ZN,bkt7vid8v3,"Affordance Norms_USM",1,23,2023-01-24T04:46:14+00:00,0.97553014755249,33,"updated stim.csv",Version33.csv,"Version 33","List 33",mannequin,,982,4.48,1592,0.825405394,983,BOI,-,-,"Please name all of the ways you could use this object. Keep in mind that one object can have many uses. Separate your responses with a comma.",,y,817,,,494,494,,,,3,1
w10126620ZN,bkt7vid8v3,"Affordance Norms_USM",1,24,2023-01-24T04:46:15+00:00,1.7064950466156,33,"updated stim.csv",Version33.csv,"Version 33","List 33",mango,,967,6.24,1588,0.256269143,968,BOI,-,-,"Please name all of the ways you could use this object. Keep in mind that one object can have many uses. Separate your responses with a comma.",,y,1540,,,455,455,,,,4,1
w10126620ZN,bkt7vid8v3,"Affordance Norms_USM",1,25,2023-01-24T04:46:16+00:00,1.1710188388824,33,"updated stim.csv",Version33.csv,"Version 33","List 33",baseball,,975,6.037037037,157,0.250866821,976,BOI,-,-,"Please name all of the ways you could use this object. Keep in mind that one object can have many uses. Separate your responses with a comma.",,y,1009,,,487,488,,,,4,1
w10126620ZN,bkt7vid8v3,"Affordance Norms_USM",1,26,2023-01-24T04:46:17+00:00,1.0437390804291,33,"updated stim.csv",Version33.csv,"Version 33","List 33",bonbon,,974,4.807692308,265,0.720253571,975,BOI,-,-,"Please name all of the ways you could use this object. Keep in mind that one object can have many uses. Separate your responses with a comma.",,y,894,,,549,549,,,,4,1
w10126620ZN,bkt7vid8v3,"Affordance Norms_USM",1,27,2023-01-24T04:46:19+00:00,1.1545178890228,33,"updated stim.csv",Version33.csv,"Version 33","List 33",luggage,,971,5.304347826,1556,0.552694425,972,BOI,-,-,"Please name all of the ways you could use this object. Keep in mind that one object can have many uses. Separate your responses with a comma.",,y,997,,,593,593,,,,3,1
w10126620ZN,bkt7vid8v3,"Affordance Norms_USM",1,28,2023-01-24T04:46:20+00:00,1.0361671447754,33,"updated stim.csv",Version33.csv,"Version 33","List 33",sage,,984,4.375,2215,0.070534829,985,BOI,-,-,"Please name all of the ways you could use this object. Keep in mind that one object can have many uses. Separate your responses with a comma.",,y,869,,,514,514,,,,2,1
w10126620ZN,bkt7vid8v3,"Affordance Norms_USM",1,29,2023-01-24T04:46:21+00:00,1.3043849468231,33,"updated stim.csv",Version33.csv,"Version 33","List 33",hose,,969,5.565217391,1318,0.912685591,970,BOI,-,-,"Please name all of the ways you could use this object. Keep in mind that one object can have many uses. Separate your responses with a comma.",,y,1077,,,549,549,,,,3,1
w10126620ZN,bkt7vid8v3,"Affordance Norms_USM",1,30,2023-01-24T04:46:22+00:00,1.0424060821533,33,"updated stim.csv",Version33.csv,"Version 33","List 33",washcloth,,961,6.192307692,2898,0.782628597,962,BOI,-,-,"Please name all of the ways you could use this object. Keep in mind that one object can have many uses. Separate your responses with a comma.",,y,892,,,526,526,,,,4,1
w10126620ZN,bkt7vid8v3,"Affordance Norms_USM",1,31,2023-01-24T04:46:23+00:00,1.0367498397827,33,"updated stim.csv",Version33.csv,"Version 33","List 33",fabric,,964,6.08,939,0.480559359,965,BOI,-,-,"Please name all of the ways you could use this object. Keep in mind that one object can have many uses. Separate your responses with a comma.",,y,881,,,492,492,,,,4,1
w10126620ZN,bkt7vid8v3,"Affordance Norms_USM",1,32,2023-01-24T04:46:24+00:00,1.0971441268921,33,"updated stim.csv",Version33.csv,"Version 33","List 33",drawing,,966,4.695652174,841,0.486801587,967,BOI,-,-,"Please name all of the ways you could use this object. Keep in mind that one object can have many uses. Separate your responses with a comma.",,y,944,,,544,544,,,,3,1
w10126620ZN,bkt7vid8v3,"Affordance Norms_USM",1,33,2023-01-24T04:46:25+00:00,1.0259809494019,33,"updated stim.csv",Version33.csv,"Version 33","List 33",pajama,,963,5.962962963,1850,0.132262758,964,BOI,-,-,"Please name all of the ways you could use this object. Keep in mind that one object can have many uses. Separate your responses with a comma.",,y,869,,,481,481,,,,2,1
w10126620ZN,bkt7vid8v3,"Affordance Norms_USM",1,34,2023-01-24T04:46:26+00:00,1.0265679359436,33,"updated stim.csv",Version33.csv,"Version 33","List 33",reindeer,,976,4.5,2153,0.273020093,977,BOI,-,-,"Please name all of the ways you could use this object. Keep in mind that one object can have many uses. Separate your responses with a comma.",,y,870,,,480,480,,,,4,1
w10126620ZN,bkt7vid8v3,"Affordance Norms_USM",1,35,2023-01-24T04:46:27+00:00,0.97330808639526,33,"updated stim.csv",Version33.csv,"Version 33","List 33",magician,,973,4.5,1571,0.777633307,974,BOI,-,-,"Please name all of the ways you could use this object. Keep in mind that one object can have many uses. Separate your responses with a comma.",,y,807,,,395,395,,,,5,1
w10126620ZN,bkt7vid8v3,"Affordance Norms_USM",1,36,2023-01-24T04:46:28+00:00,1.0353579521179,33,"updated stim.csv",Version33.csv,"Version 33","List 33",handshake,,981,5.636363636,1243,0.723474875,982,BOI,-,-,"Please name all of the ways you could use this object. Keep in mind that one object can have many uses. Separate your responses with a comma.",,y,884,,,441,441,,,,2,1
w10126620ZN,bkt7vid8v3,"Affordance Norms_USM",1,37,2023-01-24T04:46:29+00:00,0.9457700252533,33,"updated stim.csv",Version33.csv,"Version 33","List 33",cadet,,986,4.291666667,394,0.738216719,987,BOI,-,-,"Please name all of the ways you could use this object. Keep in mind that one object can have many uses. Separate your responses with a comma.",,y,784,,,425,425,,,,1,1
w10126620ZN,bkt7vid8v3,"Affordance Norms_USM",1,38,2023-01-24T04:46:30+00:00,0.88429093360901,33,"updated stim.csv",Version33.csv,"Version 33","List 33",dime,,978,6.083333333,793,0.390549244,979,BOI,-,-,"Please name all of the ways you could use this object. Keep in mind that one object can have many uses. Separate your responses with a comma.",,y,723,,,367,367,,,,2,1
w10126620ZN,bkt7vid8v3,"Affordance Norms_USM",1,39,2023-01-24T04:46:31+00:00,0.87616920471191,33,"updated stim.csv",Version33.csv,"Version 33","List 33",gazebo,,968,5.25,1090,0.458250717,969,BOI,-,-,"Please name all of the ways you could use this object. Keep in mind that one object can have many uses. Separate your responses with a comma.",,y,715,,,324,324,,,,3,1
w10126620ZN,bkt7vid8v3,"Affordance Norms_USM",1,40,2023-01-24T04:46:32+00:00,0.83147478103638,33,"updated stim.csv",Version33.csv,"Version 33","List 33",senorita,,988,4.391304348,2311,0.764869834,989,BOI,-,-,"Please name all of the ways you could use this object. Keep in mind that one object can have many uses. Separate your responses with a comma.",,y,666,,,313,313,,,,4,1
w10126620ZN,bkt7vid8v3,"Affordance Norms_USM",1,41,2023-01-24T04:46:33+00:00,1.7209751605988,33,"updated stim.csv",Version33.csv,"Version 33","List 33",,,,,,,0,Instruct,,,"You will now be asked a few questions about your experience today.",,"Instruct 4",1554,,,387,387,,,,,1
