"Username","ID","ExperimentName","Session","Trial","Date","TimeDif","Condition.Number","Stimuli.File","Order.File","Condition.Description","Condition.Notes","Stimuli.Cue","Stimuli.Answer","Stimuli.Shuffle","Stimuli.Stimuli.Notes","Stimuli.Value","Stimuli.Rand","Procedure.Item","Procedure.Trial.Type","Procedure.Max.Time","Procedure.Min.Time","Procedure.Text","Procedure.Procedure.Notes","Procedure.Shuffle","Response.RT","Response.Response","Response.Accuracy","Response.RTfirst","Response.RTlast","Response.strictAcc","Response.lenientAcc","Response.focus","Response.JOL","Response.Focus"
"10117172LL","7dlbs92855","Affordance Norms_USM",1,11,"2023-01-12T21:29:49+00:00",17.144692897797,17,"updated stim.csv","Version17.csv","Version 17","List 17","kid",NA,496,5.68,1414,0.836964408,497,"BOI","-","-","Please name all of the ways you could use this object. Keep in mind that one object can have many uses. Separate your responses with a comma.",NA,"y",16941,NA,NA,10738,14353,NA,NA,NA,"happiness",1
"10117172LL","7dlbs92855","Affordance Norms_USM",1,12,"2023-01-12T21:29:54+00:00",5.4732730388641,17,"updated stim.csv","Version17.csv","Version 17","List 17","feline",NA,494,5.458333333,959,0.291234004,495,"BOI","-","-","Please name all of the ways you could use this object. Keep in mind that one object can have many uses. Separate your responses with a comma.",NA,"y",5267,NA,NA,4122,4566,NA,NA,NA,"cat",1
"10117172LL","7dlbs92855","Affordance Norms_USM",1,13,"2023-01-12T21:29:58+00:00",3.9822020530701,17,"updated stim.csv","Version17.csv","Version 17","List 17","doorknob",NA,508,6.518518519,824,0.694713047,509,"BOI","-","-","Please name all of the ways you could use this object. Keep in mind that one object can have many uses. Separate your responses with a comma.",NA,"y",3825,NA,NA,2560,2907,NA,NA,NA,"open",1
"10117172LL","7dlbs92855","Affordance Norms_USM",1,14,"2023-01-12T21:30:02+00:00",3.4832310676575,17,"updated stim.csv","Version17.csv","Version 17","List 17","headphones",NA,486,6.083333333,1269,0.257158523,487,"BOI","-","-","Please name all of the ways you could use this object. Keep in mind that one object can have many uses. Separate your responses with a comma.",NA,"y",3328,NA,NA,1974,2538,NA,NA,NA,"music",1
"10117172LL","7dlbs92855","Affordance Norms_USM",1,15,"2023-01-12T21:30:04+00:00",2.4366178512573,17,"updated stim.csv","Version17.csv","Version 17","List 17","bubble",NA,495,4.64,339,0.446014369,496,"BOI","-","-","Please name all of the ways you could use this object. Keep in mind that one object can have many uses. Separate your responses with a comma.",NA,"y",2286,NA,NA,1139,1371,NA,NA,NA,"pop",1
"10117172LL","7dlbs92855","Affordance Norms_USM",1,16,"2023-01-12T21:30:11+00:00",6.9524130821228,17,"updated stim.csv","Version17.csv","Version 17","List 17","memorabilia",NA,490,4.434782609,1643,0.578632093,491,"BOI","-","-","Please name all of the ways you could use this object. Keep in mind that one object can have many uses. Separate your responses with a comma.",NA,"y",6754,NA,NA,3704,6109,NA,NA,NA,"memorize",1
"10117172LL","7dlbs92855","Affordance Norms_USM",1,17,"2023-01-12T21:30:17+00:00",6.078017950058,17,"updated stim.csv","Version17.csv","Version 17","List 17","parka",NA,481,5.875,1876,0.805264649,482,"BOI","-","-","Please name all of the ways you could use this object. Keep in mind that one object can have many uses. Separate your responses with a comma.",NA,"y",5872,NA,NA,3072,5087,NA,NA,NA,"eat",1
"10117172LL","7dlbs92855","Affordance Norms_USM",1,18,"2023-01-12T21:30:21+00:00",3.9967329502106,17,"updated stim.csv","Version17.csv","Version 17","List 17","mincemeat",NA,504,5.083333333,1662,0.960305963,505,"BOI","-","-","Please name all of the ways you could use this object. Keep in mind that one object can have many uses. Separate your responses with a comma.",NA,"y",3836,NA,NA,2736,3264,NA,NA,NA,"feed",1
"10117172LL","7dlbs92855","Affordance Norms_USM",1,19,"2023-01-12T21:30:24+00:00",2.6904921531677,17,"updated stim.csv","Version17.csv","Version 17","List 17","chapel",NA,497,4.52,494,0.136839401,498,"BOI","-","-","Please name all of the ways you could use this object. Keep in mind that one object can have many uses. Separate your responses with a comma.",NA,"y",2533,NA,NA,1301,1774,NA,NA,NA,"pray",1
"10117172LL","7dlbs92855","Affordance Norms_USM",1,20,"2023-01-12T21:30:29+00:00",5.4723038673401,17,"updated stim.csv","Version17.csv","Version 17","List 17","wastebasket",NA,484,6.217391304,2904,0.952578602,485,"BOI","-","-","Please name all of the ways you could use this object. Keep in mind that one object can have many uses. Separate your responses with a comma.",NA,"y",5273,NA,NA,3834,4455,NA,NA,NA,"away",1
"10117172LL","7dlbs92855","Affordance Norms_USM",1,21,"2023-01-12T21:30:33+00:00",3.9395880699158,17,"updated stim.csv","Version17.csv","Version 17","List 17","washerwoman",NA,510,4.55,2900,0.585234567,511,"BOI","-","-","Please name all of the ways you could use this object. Keep in mind that one object can have many uses. Separate your responses with a comma.",NA,"y",3775,NA,NA,2273,2909,NA,NA,NA,"clean",1
"10117172LL","7dlbs92855","Affordance Norms_USM",1,22,"2023-01-12T21:30:36+00:00",3.1170859336853,17,"updated stim.csv","Version17.csv","Version 17","List 17","rum",NA,491,5.64,2206,0.418822922,492,"BOI","-","-","Please name all of the ways you could use this object. Keep in mind that one object can have many uses. Separate your responses with a comma.",NA,"y",2962,NA,NA,1291,2141,NA,NA,NA,"drink",1
"10117172LL","7dlbs92855","Affordance Norms_USM",1,23,"2023-01-12T21:30:46+00:00",9.4610981941223,17,"updated stim.csv","Version17.csv","Version 17","List 17","kitten",NA,492,6.4,1428,0.954803536,493,"BOI","-","-","Please name all of the ways you could use this object. Keep in mind that one object can have many uses. Separate your responses with a comma.",NA,"y",9257,NA,NA,7438,8431,NA,NA,NA,"save",1
"10117172LL","7dlbs92855","Affordance Norms_USM",1,24,"2023-01-12T21:30:49+00:00",2.8213438987732,17,"updated stim.csv","Version17.csv","Version 17","List 17","nutshell",NA,500,4.375,1793,0.66125809,501,"BOI","-","-","Please name all of the ways you could use this object. Keep in mind that one object can have many uses. Separate your responses with a comma.",NA,"y",2660,NA,NA,1145,1979,NA,NA,NA,"crack",1
"10117172LL","7dlbs92855","Affordance Norms_USM",1,25,"2023-01-12T21:30:53+00:00",3.9355530738831,17,"updated stim.csv","Version17.csv","Version 17","List 17","jacket",NA,493,6.333333333,1370,0.521573786,494,"BOI","-","-","Please name all of the ways you could use this object. Keep in mind that one object can have many uses. Separate your responses with a comma.",NA,"y",3780,NA,NA,2074,3083,NA,NA,NA,"put on",1
"10117172LL","7dlbs92855","Affordance Norms_USM",1,26,"2023-01-12T21:30:55+00:00",2.1789259910583,17,"updated stim.csv","Version17.csv","Version 17","List 17","sleigh",NA,507,4.84,2410,0.204229314,508,"BOI","-","-","Please name all of the ways you could use this object. Keep in mind that one object can have many uses. Separate your responses with a comma.",NA,"y",2029,NA,NA,1050,1489,NA,NA,NA,"ride",1
"10117172LL","7dlbs92855","Affordance Norms_USM",1,27,"2023-01-12T21:31:00+00:00",4.978343963623,17,"updated stim.csv","Version17.csv","Version 17","List 17","groom",NA,482,5,1181,0.795382639,483,"BOI","-","-","Please name all of the ways you could use this object. Keep in mind that one object can have many uses. Separate your responses with a comma.",NA,"y",4780,NA,NA,3435,4245,NA,NA,NA,"bride",1
"10117172LL","7dlbs92855","Affordance Norms_USM",1,28,"2023-01-12T21:31:04+00:00",4.7013268470764,17,"updated stim.csv","Version17.csv","Version 17","List 17","leech",NA,498,4.291666667,1484,0.291119552,499,"BOI","-","-","Please name all of the ways you could use this object. Keep in mind that one object can have many uses. Separate your responses with a comma.",NA,"y",4500,NA,NA,1974,3980,NA,NA,NA,"take off",1
"10117172LL","7dlbs92855","Affordance Norms_USM",1,29,"2023-01-12T21:31:09+00:00",4.5117301940918,17,"updated stim.csv","Version17.csv","Version 17","List 17","wart",NA,503,4.56,2894,0.169280994,504,"BOI","-","-","Please name all of the ways you could use this object. Keep in mind that one object can have many uses. Separate your responses with a comma.",NA,"y",4310,NA,NA,2685,3606,NA,NA,NA,"fall off",1
"10117172LL","7dlbs92855","Affordance Norms_USM",1,30,"2023-01-12T21:31:13+00:00",3.7520070075989,17,"updated stim.csv","Version17.csv","Version 17","List 17","caddy",NA,489,4.913043478,393,0.357783512,490,"BOI","-","-","Please name all of the ways you could use this object. Keep in mind that one object can have many uses. Separate your responses with a comma.",NA,"y",3600,NA,NA,2018,2844,NA,NA,NA,"catch",1
"10117172LL","7dlbs92855","Affordance Norms_USM",1,31,"2023-01-12T21:31:18+00:00",5.4120008945465,17,"updated stim.csv","Version17.csv","Version 17","List 17","drill",NA,485,5.739130435,848,0.55221895,486,"BOI","-","-","Please name all of the ways you could use this object. Keep in mind that one object can have many uses. Separate your responses with a comma.",NA,"y",5222,NA,NA,2950,4159,NA,NA,NA,"a hole",1
"10117172LL","7dlbs92855","Affordance Norms_USM",1,32,"2023-01-12T21:31:22+00:00",3.6468369960785,17,"updated stim.csv","Version17.csv","Version 17","List 17","fingerboard",NA,506,5.15,978,0.460991121,507,"BOI","-","-","Please name all of the ways you could use this object. Keep in mind that one object can have many uses. Separate your responses with a comma.",NA,"y",3487,NA,NA,1870,2319,NA,NA,NA,"ride",1
"10117172LL","7dlbs92855","Affordance Norms_USM",1,33,"2023-01-12T21:31:26+00:00",3.766576051712,17,"updated stim.csv","Version17.csv","Version 17","List 17","handbook",NA,499,5.782608696,1231,0.767395268,500,"BOI","-","-","Please name all of the ways you could use this object. Keep in mind that one object can have many uses. Separate your responses with a comma.",NA,"y",3615,NA,NA,1493,2410,NA,NA,NA,"read",1
"10117172LL","7dlbs92855","Affordance Norms_USM",1,34,"2023-01-12T21:31:29+00:00",3.5209140777588,17,"updated stim.csv","Version17.csv","Version 17","List 17","spice",NA,509,5.125,2470,0.414376322,510,"BOI","-","-","Please name all of the ways you could use this object. Keep in mind that one object can have many uses. Separate your responses with a comma.",NA,"y",3361,NA,NA,2198,2780,NA,NA,NA,"food",1
"10117172LL","7dlbs92855","Affordance Norms_USM",1,35,"2023-01-12T21:31:33+00:00",3.7766168117523,17,"updated stim.csv","Version17.csv","Version 17","List 17","frame",NA,502,4.956521739,1053,0.823962679,503,"BOI","-","-","Please name all of the ways you could use this object. Keep in mind that one object can have many uses. Separate your responses with a comma.",NA,"y",3625,NA,NA,1969,2835,NA,NA,NA,"open",1
"10117172LL","7dlbs92855","Affordance Norms_USM",1,36,"2023-01-12T21:31:35+00:00",2.4553971290588,17,"updated stim.csv","Version17.csv","Version 17","List 17","gearbox",NA,487,5.041666667,1092,0.483566212,488,"BOI","-","-","Please name all of the ways you could use this object. Keep in mind that one object can have many uses. Separate your responses with a comma.",NA,"y",2304,NA,NA,1433,1728,NA,NA,NA,"use",1
"10117172LL","7dlbs92855","Affordance Norms_USM",1,37,"2023-01-12T21:31:38+00:00",2.5865118503571,17,"updated stim.csv","Version17.csv","Version 17","List 17","gingersnap",NA,488,4.703703704,1106,0.844195125,489,"BOI","-","-","Please name all of the ways you could use this object. Keep in mind that one object can have many uses. Separate your responses with a comma.",NA,"y",2442,NA,NA,1449,1818,NA,NA,NA,"eat",1
"10117172LL","7dlbs92855","Affordance Norms_USM",1,38,"2023-01-12T21:31:43+00:00",4.9057641029358,17,"updated stim.csv","Version17.csv","Version 17","List 17","aftershave",NA,505,5.375,18,0.348121216,506,"BOI","-","-","Please name all of the ways you could use this object. Keep in mind that one object can have many uses. Separate your responses with a comma.",NA,"y",4707,NA,NA,3792,4104,NA,NA,NA,"use",1
"10117172LL","7dlbs92855","Affordance Norms_USM",1,39,"2023-01-12T21:31:48+00:00",4.9478359222412,17,"updated stim.csv","Version17.csv","Version 17","List 17","colander",NA,501,6,598,0.920044528,502,"BOI","-","-","Please name all of the ways you could use this object. Keep in mind that one object can have many uses. Separate your responses with a comma.",NA,"y",4745,NA,NA,1489,4038,NA,NA,NA,"smell",1
"10117172LL","7dlbs92855","Affordance Norms_USM",1,40,"2023-01-12T21:31:57+00:00",9.2373640537262,17,"updated stim.csv","Version17.csv","Version 17","List 17","bookseller",NA,483,5,278,0.987732434,484,"BOI","-","-","Please name all of the ways you could use this object. Keep in mind that one object can have many uses. Separate your responses with a comma.",NA,"y",9028,NA,NA,7694,8103,NA,NA,NA,"sell",1
"10128215BC","d7dvbjrkfu","Affordance Norms_USM",1,11,"2023-01-19T20:55:56+00:00",9.2013909816742,19,"updated stim.csv","Version19.csv","Version 19","List 19","barley",NA,546,4.541666667,149,0.391499549,547,"BOI","-","-","Please name all of the ways you could use this object. Keep in mind that one object can have many uses. Separate your responses with a comma.",NA,"y",8837,NA,NA,-1,-1,NA,NA,NA,"",1
"10128215BC","d7dvbjrkfu","Affordance Norms_USM",1,12,"2023-01-19T20:56:04+00:00",7.900603055954,19,"updated stim.csv","Version19.csv","Version 19","List 19","raft",NA,564,5.36,2125,0.368001778,565,"BOI","-","-","Please name all of the ways you could use this object. Keep in mind that one object can have many uses. Separate your responses with a comma.",NA,"y",7573,NA,NA,2191,6855,NA,NA,NA,"float, steer",1
"10128215BC","d7dvbjrkfu","Affordance Norms_USM",1,13,"2023-01-19T20:56:14+00:00",9.7706871032715,19,"updated stim.csv","Version19.csv","Version 19","List 19","vulva",NA,561,5.16,2876,0.286824315,562,"BOI","-","-","Please name all of the ways you could use this object. Keep in mind that one object can have many uses. Separate your responses with a comma.",NA,"y",9459,NA,NA,6326,7807,NA,NA,NA,"please",1
"10128215BC","d7dvbjrkfu","Affordance Norms_USM",1,14,"2023-01-19T20:56:24+00:00",9.9274418354034,19,"updated stim.csv","Version19.csv","Version 19","List 19","cookie",NA,567,6.5,633,0.354504033,568,"BOI","-","-","Please name all of the ways you could use this object. Keep in mind that one object can have many uses. Separate your responses with a comma.",NA,"y",9586,NA,NA,1710,4485,NA,NA,NA,"eat, give",1
"10128215BC","d7dvbjrkfu","Affordance Norms_USM",1,15,"2023-01-19T20:56:32+00:00",8.4236631393433,19,"updated stim.csv","Version19.csv","Version 19","List 19","couch",NA,544,6.260869565,661,0.619410451,545,"BOI","-","-","Please name all of the ways you could use this object. Keep in mind that one object can have many uses. Separate your responses with a comma.",NA,"y",8096,NA,NA,1757,7355,NA,NA,NA,"sit, lounge, sleep",1
"10128215BC","d7dvbjrkfu","Affordance Norms_USM",1,16,"2023-01-19T20:56:36+00:00",3.9285118579865,19,"updated stim.csv","Version19.csv","Version 19","List 19","goose",NA,553,5.260869565,1138,0.494045205,554,"BOI","-","-","Please name all of the ways you could use this object. Keep in mind that one object can have many uses. Separate your responses with a comma.",NA,"y",3317,NA,NA,2053,2537,NA,NA,NA,"pet",1
"10128215BC","d7dvbjrkfu","Affordance Norms_USM",1,17,"2023-01-19T20:56:58+00:00",21.646619081497,19,"updated stim.csv","Version19.csv","Version 19","List 19","woodcutter",NA,560,4.44,2960,0.152234376,561,"BOI","-","-","Please name all of the ways you could use this object. Keep in mind that one object can have many uses. Separate your responses with a comma.",NA,"y",21249,NA,NA,2236,20377,NA,NA,NA,"use, cut",1
"10128215BC","d7dvbjrkfu","Affordance Norms_USM",1,18,"2023-01-19T20:57:10+00:00",12.386662960052,19,"updated stim.csv","Version19.csv","Version 19","List 19","bagpipes",NA,550,5,124,0.570726592,551,"BOI","-","-","Please name all of the ways you could use this object. Keep in mind that one object can have many uses. Separate your responses with a comma.",NA,"y",11748,NA,NA,5112,11045,NA,NA,NA,"play, listen, see",1
"10128215BC","d7dvbjrkfu","Affordance Norms_USM",1,19,"2023-01-19T20:57:17+00:00",6.687824010849,19,"updated stim.csv","Version19.csv","Version 19","List 19","letterbox",NA,559,4.56,1496,0.230726376,560,"BOI","-","-","Please name all of the ways you could use this object. Keep in mind that one object can have many uses. Separate your responses with a comma.",NA,"y",6328,NA,NA,2059,5577,NA,NA,NA,"place, opem",1
"10128215BC","d7dvbjrkfu","Affordance Norms_USM",1,20,"2023-01-19T20:57:23+00:00",5.5789349079132,19,"updated stim.csv","Version19.csv","Version 19","List 19","silkworm",NA,570,5.208333333,2382,0.564942119,571,"BOI","-","-","Please name all of the ways you could use this object. Keep in mind that one object can have many uses. Separate your responses with a comma.",NA,"y",5249,NA,NA,2849,4598,NA,NA,NA,"watch",1
"10128215BC","d7dvbjrkfu","Affordance Norms_USM",1,21,"2023-01-19T20:57:37+00:00",14.749301195145,19,"updated stim.csv","Version19.csv","Version 19","List 19","tear",NA,556,4.44,2650,0.64593677,557,"BOI","-","-","Please name all of the ways you could use this object. Keep in mind that one object can have many uses. Separate your responses with a comma.",NA,"y",14188,NA,NA,2857,12319,NA,NA,NA,"cry, wipe",1
"10128215BC","d7dvbjrkfu","Affordance Norms_USM",1,22,"2023-01-19T20:57:43+00:00",5.8612070083618,19,"updated stim.csv","Version19.csv","Version 19","List 19","kitchen",NA,566,5.625,1425,0.900817788,567,"BOI","-","-","Please name all of the ways you could use this object. Keep in mind that one object can have many uses. Separate your responses with a comma.",NA,"y",5528,NA,NA,2010,4491,NA,NA,NA,"use, clean",1
"10128215BC","d7dvbjrkfu","Affordance Norms_USM",1,23,"2023-01-19T20:58:05+00:00",21.821853876114,19,"updated stim.csv","Version19.csv","Version 19","List 19","backpack",NA,555,5.72,116,0.596868112,556,"BOI","-","-","Please name all of the ways you could use this object. Keep in mind that one object can have many uses. Separate your responses with a comma.",NA,"y",21178,NA,NA,1834,20161,NA,NA,NA,"wear, open",1
"10128215BC","d7dvbjrkfu","Affordance Norms_USM",1,24,"2023-01-19T20:58:17+00:00",11.554350137711,19,"updated stim.csv","Version19.csv","Version 19","List 19","toe",NA,565,5.954545455,2715,0.055815318,566,"BOI","-","-","Please name all of the ways you could use this object. Keep in mind that one object can have many uses. Separate your responses with a comma.",NA,"y",11093,NA,NA,5307,7022,NA,NA,NA,"paint",1
"10128215BC","d7dvbjrkfu","Affordance Norms_USM",1,25,"2023-01-19T20:58:22+00:00",5.3422269821167,19,"updated stim.csv","Version19.csv","Version 19","List 19","enamel",NA,552,4.652173913,905,0.497490187,553,"BOI","-","-","Please name all of the ways you could use this object. Keep in mind that one object can have many uses. Separate your responses with a comma.",NA,"y",4985,NA,NA,2582,4196,NA,NA,NA,"brush",1
"10128215BC","d7dvbjrkfu","Affordance Norms_USM",1,26,"2023-01-19T20:58:30+00:00",8.5411260128021,19,"updated stim.csv","Version19.csv","Version 19","List 19","godparent",NA,551,5.260869565,1129,0.144202147,552,"BOI","-","-","Please name all of the ways you could use this object. Keep in mind that one object can have many uses. Separate your responses with a comma.",NA,"y",8191,NA,NA,5949,6890,NA,NA,NA,"love",1
"10128215BC","d7dvbjrkfu","Affordance Norms_USM",1,27,"2023-01-19T20:58:39+00:00",8.1538519859314,19,"updated stim.csv","Version19.csv","Version 19","List 19","cage",NA,562,5.291666667,398,0.458861103,563,"BOI","-","-","Please name all of the ways you could use this object. Keep in mind that one object can have many uses. Separate your responses with a comma.",NA,"y",7762,NA,NA,2179,7011,NA,NA,NA,"trap, rattle",1
"10128215BC","d7dvbjrkfu","Affordance Norms_USM",1,28,"2023-01-19T20:58:46+00:00",7.4752860069275,19,"updated stim.csv","Version19.csv","Version 19","List 19","saltwater",NA,545,5.192307692,2229,0.240965939,546,"BOI","-","-","Please name all of the ways you could use this object. Keep in mind that one object can have many uses. Separate your responses with a comma.",NA,"y",7057,NA,NA,2567,6253,NA,NA,NA,"swim, watch",1
"10128215BC","d7dvbjrkfu","Affordance Norms_USM",1,29,"2023-01-19T20:58:51+00:00",4.5511689186096,19,"updated stim.csv","Version19.csv","Version 19","List 19","yardstick",NA,569,5.956521739,2990,0.862814499,570,"BOI","-","-","Please name all of the ways you could use this object. Keep in mind that one object can have many uses. Separate your responses with a comma.",NA,"y",4202,NA,NA,2135,3483,NA,NA,NA,"measure",1
"10128215BC","d7dvbjrkfu","Affordance Norms_USM",1,30,"2023-01-19T20:59:12+00:00",21.284040927887,19,"updated stim.csv","Version19.csv","Version 19","List 19","lubrication",NA,549,4.333333333,1555,0.460781999,550,"BOI","-","-","Please name all of the ways you could use this object. Keep in mind that one object can have many uses. Separate your responses with a comma.",NA,"y",20945,NA,NA,19794,20276,NA,NA,NA,"use",1
"10128215BC","d7dvbjrkfu","Affordance Norms_USM",1,31,"2023-01-19T20:59:17+00:00",4.5908141136169,19,"updated stim.csv","Version19.csv","Version 19","List 19","steak",NA,554,5.75,2515,0.944862222,555,"BOI","-","-","Please name all of the ways you could use this object. Keep in mind that one object can have many uses. Separate your responses with a comma.",NA,"y",4265,NA,NA,1611,3463,NA,NA,NA,"eat, cut",1
"10128215BC","d7dvbjrkfu","Affordance Norms_USM",1,32,"2023-01-19T20:59:21+00:00",4.4677979946136,19,"updated stim.csv","Version19.csv","Version 19","List 19","lantern",NA,558,5.653846154,1463,0.56962793,559,"BOI","-","-","Please name all of the ways you could use this object. Keep in mind that one object can have many uses. Separate your responses with a comma.",NA,"y",4022,NA,NA,2436,3121,NA,NA,NA,"watch",1
"10128215BC","d7dvbjrkfu","Affordance Norms_USM",1,33,"2023-01-19T20:59:25+00:00",4.0072228908539,19,"updated stim.csv","Version19.csv","Version 19","List 19","plaster",NA,542,4.4,1993,0.665997379,543,"BOI","-","-","Please name all of the ways you could use this object. Keep in mind that one object can have many uses. Separate your responses with a comma.",NA,"y",3595,NA,NA,2459,2875,NA,NA,NA,"use",1
"10128215BC","d7dvbjrkfu","Affordance Norms_USM",1,34,"2023-01-19T20:59:31+00:00",6.1323499679565,19,"updated stim.csv","Version19.csv","Version 19","List 19","splinter",NA,563,4.652173913,2478,0.624463816,564,"BOI","-","-","Please name all of the ways you could use this object. Keep in mind that one object can have many uses. Separate your responses with a comma.",NA,"y",5815,NA,NA,2630,5077,NA,NA,NA,"pull, hurt",1
"10128215BC","d7dvbjrkfu","Affordance Norms_USM",1,35,"2023-01-19T20:59:35+00:00",3.7392060756683,19,"updated stim.csv","Version19.csv","Version 19","List 19","kerchief",NA,541,5.666666667,1406,0.493496181,542,"BOI","-","-","Please name all of the ways you could use this object. Keep in mind that one object can have many uses. Separate your responses with a comma.",NA,"y",3390,NA,NA,2252,2702,NA,NA,NA,"wear",1
"10128215BC","d7dvbjrkfu","Affordance Norms_USM",1,36,"2023-01-19T20:59:41+00:00",5.8280129432678,19,"updated stim.csv","Version19.csv","Version 19","List 19","switchblade",NA,557,5.869565217,2609,0.252814962,558,"BOI","-","-","Please name all of the ways you could use this object. Keep in mind that one object can have many uses. Separate your responses with a comma.",NA,"y",5492,NA,NA,2840,4756,NA,NA,NA,"use, cut",1
"10128215BC","d7dvbjrkfu","Affordance Norms_USM",1,37,"2023-01-19T21:00:05+00:00",23.832501173019,19,"updated stim.csv","Version19.csv","Version 19","List 19","treadmill",NA,568,6,2769,0.114264323,569,"BOI","-","-","Please name all of the ways you could use this object. Keep in mind that one object can have many uses. Separate your responses with a comma.",NA,"y",23534,NA,NA,22116,22699,NA,NA,NA,"walk",1
"10128215BC","d7dvbjrkfu","Affordance Norms_USM",1,38,"2023-01-19T21:00:11+00:00",6.0265219211578,19,"updated stim.csv","Version19.csv","Version 19","List 19","tray",NA,547,5.166666667,2768,0.711278044,548,"BOI","-","-","Please name all of the ways you could use this object. Keep in mind that one object can have many uses. Separate your responses with a comma.",NA,"y",5717,NA,NA,1931,4995,NA,NA,NA,"use, give",1
"10128215BC","d7dvbjrkfu","Affordance Norms_USM",1,39,"2023-01-19T21:00:14+00:00",3.2147839069366,19,"updated stim.csv","Version19.csv","Version 19","List 19","goggles",NA,543,6.125,1131,0.800491874,544,"BOI","-","-","Please name all of the ways you could use this object. Keep in mind that one object can have many uses. Separate your responses with a comma.",NA,"y",2847,NA,NA,1712,2148,NA,NA,NA,"wear",1
"10128215BC","d7dvbjrkfu","Affordance Norms_USM",1,40,"2023-01-19T21:00:18+00:00",4.3331770896912,19,"updated stim.csv","Version19.csv","Version 19","List 19","derriere",NA,548,5.5,778,0.071649372,549,"BOI","-","-","Please name all of the ways you could use this object. Keep in mind that one object can have many uses. Separate your responses with a comma.",NA,"y",4003,NA,NA,2831,3309,NA,NA,NA,"sit",1
"w10012802_agb","d4prqipnu9","Affordance Norms_USM",1,11,"2023-01-27T23:26:33+00:00",53.456583976746,40,"updated stim.csv","Version40.csv","Version 40","List 40","sushi",NA,1199,5.708333333,2597,0.102266266,1200,"BOI","-","-","Please name all of the ways you could use this object. Keep in mind that one object can have many uses. Separate your responses with a comma.",NA,"y",52622,NA,NA,6357,51447,NA,NA,NA,"eat, serve, make, role, fill, draw, store, sale",1
"w10012802_agb","d4prqipnu9","Affordance Norms_USM",1,12,"2023-01-27T23:27:24+00:00",51.2886531353,40,"updated stim.csv","Version40.csv","Version 40","List 40","bedspread",NA,1174,6.08,188,0.054747267,1175,"BOI","-","-","Please name all of the ways you could use this object. Keep in mind that one object can have many uses. Separate your responses with a comma.",NA,"y",50382,NA,NA,2269,39163,NA,NA,NA,"wash, dry, flatten, fold, buy, lend, store, use, tuck",1
"w10012802_agb","d4prqipnu9","Affordance Norms_USM",1,13,"2023-01-27T23:27:33+00:00",9.0956969261169,40,"updated stim.csv","Version40.csv","Version 40","List 40","gyroscope",NA,1189,4.814814815,1207,0.518024929,1190,"BOI","-","-","Please name all of the ways you could use this object. Keep in mind that one object can have many uses. Separate your responses with a comma.",NA,"y",8644,NA,NA,6409,7600,NA,NA,NA,"I don't know",1
"w10012802_agb","d4prqipnu9","Affordance Norms_USM",1,14,"2023-01-27T23:28:29+00:00",56.051797866821,40,"updated stim.csv","Version40.csv","Version 40","List 40","trombone",NA,1194,5.75,2781,0.477357634,1195,"BOI","-","-","Please name all of the ways you could use this object. Keep in mind that one object can have many uses. Separate your responses with a comma.",NA,"y",55222,NA,NA,11989,53650,NA,NA,NA,"play, slide, clean, store, protect, hear, sale, replace, tune, oil, alternate",1
"w10012802_agb","d4prqipnu9","Affordance Norms_USM",1,15,"2023-01-27T23:29:21+00:00",52.163155078888,40,"updated stim.csv","Version40.csv","Version 40","List 40","goldsmith",NA,1193,4.375,1134,0.348990826,1194,"BOI","-","-","Please name all of the ways you could use this object. Keep in mind that one object can have many uses. Separate your responses with a comma.",NA,"y",51246,NA,NA,5163,49929,NA,NA,NA,"shape gold, use ppe, make jewelry, pay, call",1
"w10012802_agb","d4prqipnu9","Affordance Norms_USM",1,16,"2023-01-27T23:30:17+00:00",55.615715026855,40,"updated stim.csv","Version40.csv","Version 40","List 40","stopwatch",NA,1185,6.041666667,2549,0.812942197,1186,"BOI","-","-","Please name all of the ways you could use this object. Keep in mind that one object can have many uses. Separate your responses with a comma.",NA,"y",54708,NA,NA,2445,50982,NA,NA,NA,"keep time, hold, fiddle, place in pocket, gift, receive, open, close, clean, wear, take, reset",1
"w10012802_agb","d4prqipnu9","Affordance Norms_USM",1,17,"2023-01-27T23:31:04+00:00",47.547064065933,40,"updated stim.csv","Version40.csv","Version 40","List 40","bat",NA,1192,5.041666667,166,0.007785369,1193,"BOI","-","-","Please name all of the ways you could use this object. Keep in mind that one object can have many uses. Separate your responses with a comma.",NA,"y",46400,NA,NA,1641,44795,NA,NA,NA,"swing, drop, throw, hit with, follow through with, buy, make, give, share, break, wrap with tape",1
"w10012802_agb","d4prqipnu9","Affordance Norms_USM",1,18,"2023-01-27T23:31:41+00:00",36.136848926544,40,"updated stim.csv","Version40.csv","Version 40","List 40","signpost",NA,1198,5.25,2380,0.495356372,1199,"BOI","-","-","Please name all of the ways you could use this object. Keep in mind that one object can have many uses. Separate your responses with a comma.",NA,"y",35218,NA,NA,2181,33993,NA,NA,NA,"read, see, steal, paint, lean against, repair, replace, move, put in ground",1
"w10012802_agb","d4prqipnu9","Affordance Norms_USM",1,19,"2023-01-27T23:32:21+00:00",40.844909906387,40,"updated stim.csv","Version40.csv","Version 40","List 40","newspaperman",NA,1195,4.48,1761,0.676039813,1196,"BOI","-","-","Please name all of the ways you could use this object. Keep in mind that one object can have many uses. Separate your responses with a comma.",NA,"y",39820,NA,NA,5079,37647,NA,NA,NA,"pay, give papers, ride bike, throw papers, drive route",1
"w10012802_agb","d4prqipnu9","Affordance Norms_USM",1,20,"2023-01-27T23:33:01+00:00",39.900309085846,40,"updated stim.csv","Version40.csv","Version 40","List 40","buckle",NA,1188,4.846153846,342,0.420732514,1189,"BOI","-","-","Please name all of the ways you could use this object. Keep in mind that one object can have many uses. Separate your responses with a comma.",NA,"y",38861,NA,NA,3507,14284,NA,NA,NA,"do it, undo it, clean, sew on, buy",1
"w10012802_agb","d4prqipnu9","Affordance Norms_USM",1,21,"2023-01-27T23:33:06+00:00",4.8265500068665,40,"updated stim.csv","Version40.csv","Version 40","List 40","baklava",NA,1171,5.454545455,126,0.67252704,1172,"BOI","-","-","Please name all of the ways you could use this object. Keep in mind that one object can have many uses. Separate your responses with a comma.",NA,"y",4489,NA,NA,2503,3487,NA,NA,NA,"I don't know",1
"w10012802_agb","d4prqipnu9","Affordance Norms_USM",1,22,"2023-01-27T23:33:46+00:00",40.13755106926,40,"updated stim.csv","Version40.csv","Version 40","List 40","clitoris",NA,1172,6.090909091,564,0.92528309,1173,"BOI","-","-","Please name all of the ways you could use this object. Keep in mind that one object can have many uses. Separate your responses with a comma.",NA,"y",39292,NA,NA,22004,34202,NA,NA,NA,"pleasure, wash, rinse, clothe",1
"w10012802_agb","d4prqipnu9","Affordance Norms_USM",1,23,"2023-01-27T23:34:20+00:00",34.198374986649,40,"updated stim.csv","Version40.csv","Version 40","List 40","piccolo",NA,1182,4.956521739,1948,0.266218097,1183,"BOI","-","-","Please name all of the ways you could use this object. Keep in mind that one object can have many uses. Separate your responses with a comma.",NA,"y",33319,NA,NA,3420,28205,NA,NA,NA,"play, listen, hold, give, clean, dust off, sale, buy",1
"w10012802_agb","d4prqipnu9","Affordance Norms_USM",1,24,"2023-01-27T23:35:00+00:00",39.765085935593,40,"updated stim.csv","Version40.csv","Version 40","List 40","acorn",NA,1197,5.28,8,0.226034468,1198,"BOI","-","-","Please name all of the ways you could use this object. Keep in mind that one object can have many uses. Separate your responses with a comma.",NA,"y",38897,NA,NA,2812,36896,NA,NA,NA,"pick up, make fairy crafts, eat, give to squirrels, collect, kick, throw, see, plant, bury",1
"w10012802_agb","d4prqipnu9","Affordance Norms_USM",1,25,"2023-01-27T23:35:42+00:00",41.967222929001,40,"updated stim.csv","Version40.csv","Version 40","List 40","monk",NA,1176,5.173913043,1680,0.475833569,1177,"BOI","-","-","Please name all of the ways you could use this object. Keep in mind that one object can have many uses. Separate your responses with a comma.",NA,"y",41026,NA,NA,3479,38100,NA,NA,NA,"consult, sit with, listen, see, read of, understand, acquaint with, eat with",1
"w10012802_agb","d4prqipnu9","Affordance Norms_USM",1,26,"2023-01-27T23:36:32+00:00",49.831200122833,40,"updated stim.csv","Version40.csv","Version 40","List 40","straitjacket",NA,1187,5.037037037,2558,0.770954805,1188,"BOI","-","-","Please name all of the ways you could use this object. Keep in mind that one object can have many uses. Separate your responses with a comma.",NA,"y",48836,NA,NA,2512,47422,NA,NA,NA,"pull, wash, take, rip, wear, put on, unbuckle, buckle, sew, twist in, keep immobile",1
"w10012802_agb","d4prqipnu9","Affordance Norms_USM",1,27,"2023-01-27T23:37:11+00:00",38.622545957565,40,"updated stim.csv","Version40.csv","Version 40","List 40","twine",NA,1177,5.5,2812,0.436601767,1178,"BOI","-","-","Please name all of the ways you could use this object. Keep in mind that one object can have many uses. Separate your responses with a comma.",NA,"y",37735,NA,NA,2885,35702,NA,NA,NA,"twirl, roll up, gather, cut, tie, knot, thread, make bracelet, macrame, buy, give, unravel",1
"w10012802_agb","d4prqipnu9","Affordance Norms_USM",1,28,"2023-01-27T23:37:36+00:00",24.982425928116,40,"updated stim.csv","Version40.csv","Version 40","List 40","salad",NA,1175,6.111111111,2218,0.466682363,1176,"BOI","-","-","Please name all of the ways you could use this object. Keep in mind that one object can have many uses. Separate your responses with a comma.",NA,"y",24544,NA,NA,1461,23704,NA,NA,NA,"eat, make, stir, serve, add to meal, plate",1
"w10012802_agb","d4prqipnu9","Affordance Norms_USM",1,29,"2023-01-27T23:38:28+00:00",51.840006113052,40,"updated stim.csv","Version40.csv","Version 40","List 40","pie",NA,1178,5.869565217,1953,0.817428636,1179,"BOI","-","-","Please name all of the ways you could use this object. Keep in mind that one object can have many uses. Separate your responses with a comma.",NA,"y",50977,NA,NA,1849,43995,NA,NA,NA,"eat, make, bake, cool, store, digest, taste, smell, feel",1
"w10012802_agb","d4prqipnu9","Affordance Norms_USM",1,30,"2023-01-27T23:38:52+00:00",24.217612981796,40,"updated stim.csv","Version40.csv","Version 40","List 40","makeup",NA,1186,6,1580,0.407523064,1187,"BOI","-","-","Please name all of the ways you could use this object. Keep in mind that one object can have many uses. Separate your responses with a comma.",NA,"y",23777,NA,NA,1462,22442,NA,NA,NA,"wear, give, hide, dress up, make believe, cover",1
"w10012802_agb","d4prqipnu9","Affordance Norms_USM",1,31,"2023-01-27T23:39:02+00:00",10.470678091049,40,"updated stim.csv","Version40.csv","Version 40","List 40","canteen",NA,1183,5.607142857,419,0.478481246,1184,"BOI","-","-","Please name all of the ways you could use this object. Keep in mind that one object can have many uses. Separate your responses with a comma.",NA,"y",10149,NA,NA,2048,6913,NA,NA,NA,"eat, buy",1
"w10012802_agb","d4prqipnu9","Affordance Norms_USM",1,32,"2023-01-27T23:39:38+00:00",36.165692806244,40,"updated stim.csv","Version40.csv","Version 40","List 40","porridge",NA,1190,4.80952381,2038,0.226224278,1191,"BOI","-","-","Please name all of the ways you could use this object. Keep in mind that one object can have many uses. Separate your responses with a comma.",NA,"y",35341,NA,NA,3724,34085,NA,NA,NA,"bake, eat, give, serve, cut, scoop, smell, cool, store",1
"w10012802_agb","d4prqipnu9","Affordance Norms_USM",1,33,"2023-01-27T23:40:16+00:00",38.02656006813,40,"updated stim.csv","Version40.csv","Version 40","List 40","oilcan",NA,1200,4.782608696,1802,0.943196409,1201,"BOI","-","-","Please name all of the ways you could use this object. Keep in mind that one object can have many uses. Separate your responses with a comma.",NA,"y",37175,NA,NA,6147,35673,NA,NA,NA,"pour, store oil, role, funnel, open, close, twist, unscrew, screw, wipe",1
"w10012802_agb","d4prqipnu9","Affordance Norms_USM",1,34,"2023-01-27T23:40:51+00:00",34.867758989334,40,"updated stim.csv","Version40.csv","Version 40","List 40","epidermis",NA,1191,5.636363636,916,0.203650559,1192,"BOI","-","-","Please name all of the ways you could use this object. Keep in mind that one object can have many uses. Separate your responses with a comma.",NA,"y",33851,NA,NA,3390,31682,NA,NA,NA,"cut, break, stitch, moisten, dry, wash, pull, pick, heal, feel",1
"w10012802_agb","d4prqipnu9","Affordance Norms_USM",1,35,"2023-01-27T23:41:38+00:00",46.25747013092,40,"updated stim.csv","Version40.csv","Version 40","List 40","denims",NA,1181,5.541666667,774,0.571481343,1182,"BOI","-","-","Please name all of the ways you could use this object. Keep in mind that one object can have many uses. Separate your responses with a comma.",NA,"y",45354,NA,NA,1970,44112,NA,NA,NA,"wear, buy, hem, sew, cut, fray, give, roll, fold, hang, tuck, grow into, grow out of, shrink, stretch",1
"w10012802_agb","d4prqipnu9","Affordance Norms_USM",1,36,"2023-01-27T23:42:27+00:00",49.545753955841,40,"updated stim.csv","Version40.csv","Version 40","List 40","dance",NA,1180,4.44,753,0.210841804,1181,"BOI","-","-","Please name all of the ways you could use this object. Keep in mind that one object can have many uses. Separate your responses with a comma.",NA,"y",48566,NA,NA,3424,44261,NA,NA,NA,"learn, practice, remember, teach, walk through, move through, think of, tell about, watch, perform, choreograph, manipulate",1
"w10012802_agb","d4prqipnu9","Affordance Norms_USM",1,37,"2023-01-27T23:42:49+00:00",22.213281869888,40,"updated stim.csv","Version40.csv","Version 40","List 40","piercing",NA,1184,5,1954,0.302184076,1185,"BOI","-","-","Please name all of the ways you could use this object. Keep in mind that one object can have many uses. Separate your responses with a comma.",NA,"y",21808,NA,NA,4946,10094,NA,NA,NA,"make pretty, clean",1
"w10012802_agb","d4prqipnu9","Affordance Norms_USM",1,38,"2023-01-27T23:43:37+00:00",47.378319978714,40,"updated stim.csv","Version40.csv","Version 40","List 40","walker",NA,1179,5.181818182,2885,0.225630288,1180,"BOI","-","-","Please name all of the ways you could use this object. Keep in mind that one object can have many uses. Separate your responses with a comma.",NA,"y",46532,NA,NA,2938,43355,NA,NA,NA,"walk dogs, help others, exercise, better health, see out, move around, talk to, hear",1
"w10012802_agb","d4prqipnu9","Affordance Norms_USM",1,39,"2023-01-27T23:44:27+00:00",50.771423101425,40,"updated stim.csv","Version40.csv","Version 40","List 40","bleacher",NA,1196,5.083333333,235,0.237933917,1197,"BOI","-","-","Please name all of the ways you could use this object. Keep in mind that one object can have many uses. Separate your responses with a comma.",NA,"y",49914,NA,NA,2233,46703,NA,NA,NA,"sit on, put away, clean, walk through, walk over, walk around, sit under, heat up, feel, lay on, see, buy, move",1
"w10012802_agb","d4prqipnu9","Affordance Norms_USM",1,40,"2023-01-27T23:45:21+00:00",53.260926008224,40,"updated stim.csv","Version40.csv","Version 40","List 40","tank",NA,1173,4.608695652,2631,0.495653559,1174,"BOI","-","-","Please name all of the ways you could use this object. Keep in mind that one object can have many uses. Separate your responses with a comma.",NA,"y",52386,NA,NA,1928,51006,NA,NA,NA,"wear, tear, put on, take off, cut, tie die, buy, stretch, give, shrink, dirty, sweat in, embroider, stain, eat in, cover body",1
"w10042471","zqn62son7e","Affordance Norms_USM",1,11,"2023-01-08T16:13:43+00:00",67.61510682106,12,"updated stim.csv","Version12.csv","Version 12","List 12","condiment",NA,347,5.76,620,0.735373904,348,"BOI","-","-","Please name all of the ways you could use this object. Keep in mind that one object can have many uses. Separate your responses with a comma.",NA,"y",66857,NA,NA,5197,64755,NA,NA,NA,"hotdogs, burgers, salads, eggs, grits, tater tots, fast food, restaurants",1
"w10042471","zqn62son7e","Affordance Norms_USM",1,12,"2023-01-08T16:15:51+00:00",127.63838219643,12,"updated stim.csv","Version12.csv","Version 12","List 12","toddler",NA,349,5.875,2714,0.989271668,350,"BOI","-","-","Please name all of the ways you could use this object. Keep in mind that one object can have many uses. Separate your responses with a comma.",NA,"y",126784,NA,NA,22128,120954,NA,NA,NA,"crib, toys, stroller, pacifier, baby bib, baby clothes, car seat, teddy bear, ,",1
"w10042471","zqn62son7e","Affordance Norms_USM",1,13,"2023-01-08T16:17:52+00:00",121.17759490013,12,"updated stim.csv","Version12.csv","Version 12","List 12","closet",NA,348,4.962962963,567,0.361293617,349,"BOI","-","-","Please name all of the ways you could use this object. Keep in mind that one object can have many uses. Separate your responses with a comma.",NA,"y",120383,NA,NA,2309,114821,NA,NA,NA,"clothes, shoes, storage, comforters, sheets, towels, blankets, duffle bags, hand bags, purses, vacuum cleaner, boxes, electronics",1
"w10042471","zqn62son7e","Affordance Norms_USM",1,14,"2023-01-08T16:18:21+00:00",28.696669101715,12,"updated stim.csv","Version12.csv","Version 12","List 12","stockings",NA,344,5.84,2542,0.41824356,345,"BOI","-","-","Please name all of the ways you could use this object. Keep in mind that one object can have many uses. Separate your responses with a comma.",NA,"y",28395,NA,NA,4052,23842,NA,NA,NA,"gifts, presents, coals, decorations, Christmas",1
"w10042471","zqn62son7e","Affordance Norms_USM",1,15,"2023-01-08T16:19:37+00:00",75.892437934875,12,"updated stim.csv","Version12.csv","Version 12","List 12","mulberry",NA,339,4.703703704,1714,0.382484128,340,"BOI","-","-","Please name all of the ways you could use this object. Keep in mind that one object can have many uses. Separate your responses with a comma.",NA,"y",75130,NA,NA,42529,72952,NA,NA,NA,"jams, preserves, pies, cakes, cookies, trees ",1
"w10042471","zqn62son7e","Affordance Norms_USM",1,16,"2023-01-08T16:21:09+00:00",92.542543888092,12,"updated stim.csv","Version12.csv","Version 12","List 12","champagne",NA,333,5.583333333,493,0.717474064,334,"BOI","-","-","Please name all of the ways you could use this object. Keep in mind that one object can have many uses. Separate your responses with a comma.",NA,"y",91722,NA,NA,3781,83208,NA,NA,NA,"anniversary, New Year's Day, Christmas, Valentine's Day, birthdays, bars, fancy restaurants, marriage proposals",1
"w10042471","zqn62son7e","Affordance Norms_USM",1,17,"2023-01-08T16:21:59+00:00",49.49737405777,12,"updated stim.csv","Version12.csv","Version 12","List 12","dumbbell",NA,351,5.958333333,865,0.537684107,352,"BOI","-","-","Please name all of the ways you could use this object. Keep in mind that one object can have many uses. Separate your responses with a comma.",NA,"y",48606,NA,NA,19367,45016,NA,NA,NA,"exercise, workout, gym, weight loss, muscles",1
"w10042471","zqn62son7e","Affordance Norms_USM",1,18,"2023-01-08T16:23:25+00:00",86.09163403511,12,"updated stim.csv","Version12.csv","Version 12","List 12","bass",NA,337,4.37037037,164,0.261790448,338,"BOI","-","-","Please name all of the ways you could use this object. Keep in mind that one object can have many uses. Separate your responses with a comma.",NA,"y",85274,NA,NA,2995,72833,NA,NA,NA,"music, guitar, jazz",1
"w10042471","zqn62son7e","Affordance Norms_USM",1,19,"2023-01-08T16:24:16+00:00",51.665181875229,12,"updated stim.csv","Version12.csv","Version 12","List 12","sifter",NA,350,4.782608696,2378,0.890528918,351,"BOI","-","-","Please name all of the ways you could use this object. Keep in mind that one object can have many uses. Separate your responses with a comma.",NA,"y",50858,NA,NA,6136,42433,NA,NA,NA,"dividing materials, big from small objects, beach, ",1
"w10042471","zqn62son7e","Affordance Norms_USM",1,20,"2023-01-08T16:25:03+00:00",46.021717071533,12,"updated stim.csv","Version12.csv","Version 12","List 12","certificate",NA,358,5.041666667,482,0.737715679,359,"BOI","-","-","Please name all of the ways you could use this object. Keep in mind that one object can have many uses. Separate your responses with a comma.",NA,"y",45239,NA,NA,7284,38202,NA,NA,NA,"job, acceptance to college or university, business appreciation, ",1
"w10042471","zqn62son7e","Affordance Norms_USM",1,21,"2023-01-08T16:26:26+00:00",83.36789393425,12,"updated stim.csv","Version12.csv","Version 12","List 12","mall",NA,340,4.36,1582,0.724230565,341,"BOI","-","-","Please name all of the ways you could use this object. Keep in mind that one object can have many uses. Separate your responses with a comma.",NA,"y",82497,NA,NA,3762,78854,NA,NA,NA,"Shoes, dresses, pants, food, kids clothes, beauty products, jewelry, prom, bed mattresses, home appliances",1
"w10042471","zqn62son7e","Affordance Norms_USM",1,22,"2023-01-08T16:27:06+00:00",40.488332986832,12,"updated stim.csv","Version12.csv","Version 12","List 12","necklace",NA,338,5.821428571,1741,0.573731001,339,"BOI","-","-","Please name all of the ways you could use this object. Keep in mind that one object can have many uses. Separate your responses with a comma.",NA,"y",39692,NA,NA,5508,25349,NA,NA,NA,"looks, style, meaning, remembrance ",1
"w10042471","zqn62son7e","Affordance Norms_USM",1,23,"2023-01-08T16:27:53+00:00",46.570994138718,12,"updated stim.csv","Version12.csv","Version 12","List 12","String",NA,334,5.626180837,2568,0.200879423,335,"BOI","-","-","Please name all of the ways you could use this object. Keep in mind that one object can have many uses. Separate your responses with a comma.",NA,"y",45819,NA,NA,8153,44290,NA,NA,NA,"joggers, shoes, boots, belt, hold ",1
"w10042471","zqn62son7e","Affordance Norms_USM",1,24,"2023-01-08T16:28:22+00:00",29.438940048218,12,"updated stim.csv","Version12.csv","Version 12","List 12","dock",NA,336,4.541666667,808,0.423772685,337,"BOI","-","-","Please name all of the ways you could use this object. Keep in mind that one object can have many uses. Separate your responses with a comma.",NA,"y",29177,NA,NA,6021,26012,NA,NA,NA,"boats, fishing, sailing, lake, river",1
"w10042471","zqn62son7e","Affordance Norms_USM",1,25,"2023-01-08T16:30:26+00:00",123.57421803474,12,"updated stim.csv","Version12.csv","Version 12","List 12","beet",NA,345,5.32,193,0.704074452,346,"BOI","-","-","Please name all of the ways you could use this object. Keep in mind that one object can have many uses. Separate your responses with a comma.",NA,"y",122807,NA,NA,70228,119116,NA,NA,NA,"crushed, pickled, sandwiches, salt-roasted, risotto, tomato soup, Soy-braised",1
"w10042471","zqn62son7e","Affordance Norms_USM",1,26,"2023-01-08T16:31:44+00:00",78.030205965042,12,"updated stim.csv","Version12.csv","Version 12","List 12","man",NA,352,5.346153846,1586,0.963710737,353,"BOI","-","-","Please name all of the ways you could use this object. Keep in mind that one object can have many uses. Separate your responses with a comma.",NA,"y",77235,NA,NA,9886,76066,NA,NA,NA,"father, brother, husband, god-father, grand father, boyfriend, great grand father, step-father",1
"w10042471","zqn62son7e","Affordance Norms_USM",1,27,"2023-01-08T16:32:21+00:00",36.543088912964,12,"updated stim.csv","Version12.csv","Version 12","List 12","bartender",NA,353,4.64,156,0.909538497,354,"BOI","-","-","Please name all of the ways you could use this object. Keep in mind that one object can have many uses. Separate your responses with a comma.",NA,"y",35793,NA,NA,2614,19394,NA,NA,NA,"alcohol, drinks, cocktails, shots, ",1
"w10042471","zqn62son7e","Affordance Norms_USM",1,28,"2023-01-08T16:33:05+00:00",44.116570949554,12,"updated stim.csv","Version12.csv","Version 12","List 12","dairy",NA,335,4.28,750,0.234031096,336,"BOI","-","-","Please name all of the ways you could use this object. Keep in mind that one object can have many uses. Separate your responses with a comma.",NA,"y",43351,NA,NA,2177,42413,NA,NA,NA,"milk, cheese, butter, sour cream, eggs, ice cream, cows",1
"w10042471","zqn62son7e","Affordance Norms_USM",1,29,"2023-01-08T16:34:19+00:00",74.581604957581,12,"updated stim.csv","Version12.csv","Version 12","List 12","shot",NA,356,4.392857143,2360,0.644561162,357,"BOI","-","-","Please name all of the ways you could use this object. Keep in mind that one object can have many uses. Separate your responses with a comma.",NA,"y",73757,NA,NA,6591,72031,NA,NA,NA,"alcohol, basketball hoop, dating",1
"w10042471","zqn62son7e","Affordance Norms_USM",1,30,"2023-01-08T16:35:09+00:00",50.146732091904,12,"updated stim.csv","Version12.csv","Version 12","List 12","mayonnaise",NA,342,5.523809524,1628,0.940541237,343,"BOI","-","-","Please name all of the ways you could use this object. Keep in mind that one object can have many uses. Separate your responses with a comma.",NA,"y",49392,NA,NA,2409,40361,NA,NA,NA,"burgers, hotdogs, condiment, ",1
"w10042471","zqn62son7e","Affordance Norms_USM",1,31,"2023-01-08T16:35:43+00:00",34.021692991257,12,"updated stim.csv","Version12.csv","Version 12","List 12","cobweb",NA,359,4.916666667,584,0.98810054,360,"BOI","-","-","Please name all of the ways you could use this object. Keep in mind that one object can have many uses. Separate your responses with a comma.",NA,"y",33299,NA,NA,4649,29720,NA,NA,NA,"spider, abandoned house, forest, woods, cabins",1
"w10042471","zqn62son7e","Affordance Norms_USM",1,32,"2023-01-08T16:36:45+00:00",62.062896966934,12,"updated stim.csv","Version12.csv","Version 12","List 12","fungus",NA,346,4.32,1064,0.562088746,347,"BOI","-","-","Please name all of the ways you could use this object. Keep in mind that one object can have many uses. Separate your responses with a comma.",NA,"y",61262,NA,NA,39052,60262,NA,NA,NA,"food, citric acid, antibiotics, human hormones",1
"w10042471","zqn62son7e","Affordance Norms_USM",1,33,"2023-01-08T16:37:44+00:00",58.374354124069,12,"updated stim.csv","Version12.csv","Version 12","List 12","hourglass",NA,354,4.583333333,1325,0.78313885,355,"BOI","-","-","Please name all of the ways you could use this object. Keep in mind that one object can have many uses. Separate your responses with a comma.",NA,"y",57627,NA,NA,3082,55826,NA,NA,NA,"time watch, board games",1
"w10042471","zqn62son7e","Affordance Norms_USM",1,34,"2023-01-08T16:38:08+00:00",24.677491903305,12,"updated stim.csv","Version12.csv","Version 12","List 12","hip",NA,341,5.086956522,1291,0.796894413,342,"BOI","-","-","Please name all of the ways you could use this object. Keep in mind that one object can have many uses. Separate your responses with a comma.",NA,"y",24466,NA,NA,3445,16494,NA,NA,NA,"dance, shake, frustration, ",1
"w10042471","zqn62son7e","Affordance Norms_USM",1,35,"2023-01-08T16:38:31+00:00",22.676057100296,12,"updated stim.csv","Version12.csv","Version 12","List 12","pinkie",NA,355,5.260869565,1974,0.365615857,356,"BOI","-","-","Please name all of the ways you could use this object. Keep in mind that one object can have many uses. Separate your responses with a comma.",NA,"y",22474,NA,NA,5231,9857,NA,NA,NA,"drinking tea",1
"w10042471","zqn62son7e","Affordance Norms_USM",1,36,"2023-01-08T16:38:46+00:00",14.912252902985,12,"updated stim.csv","Version12.csv","Version 12","List 12","showerhead",NA,360,5.041666667,2365,0.714334081,361,"BOI","-","-","Please name all of the ways you could use this object. Keep in mind that one object can have many uses. Separate your responses with a comma.",NA,"y",14706,NA,NA,3195,13451,NA,NA,NA,"showers, clean tub",1
"w10042471","zqn62son7e","Affordance Norms_USM",1,37,"2023-01-08T16:39:37+00:00",51.138608932495,12,"updated stim.csv","Version12.csv","Version 12","List 12","ruby",NA,332,4.76,2202,0.999381206,333,"BOI","-","-","Please name all of the ways you could use this object. Keep in mind that one object can have many uses. Separate your responses with a comma.",NA,"y",50413,NA,NA,8012,49361,NA,NA,NA," earrings, necklaces, rings, shoes, hoodies, rinestones",1
"w10042471","zqn62son7e","Affordance Norms_USM",1,38,"2023-01-08T16:40:53+00:00",75.563246011734,12,"updated stim.csv","Version12.csv","Version 12","List 12","flower",NA,343,5.916666667,1015,0.960657599,344,"BOI","-","-","Please name all of the ways you could use this object. Keep in mind that one object can have many uses. Separate your responses with a comma.",NA,"y",74713,NA,NA,3025,73315,NA,NA,NA,"valentine's day, anniversary, pollination, grow ",1
"w10042471","zqn62son7e","Affordance Norms_USM",1,39,"2023-01-08T16:42:15+00:00",82.332626104355,12,"updated stim.csv","Version12.csv","Version 12","List 12","someone",NA,357,4.625,2450,0.34986421,358,"BOI","-","-","Please name all of the ways you could use this object. Keep in mind that one object can have many uses. Separate your responses with a comma.",NA,"y",81479,NA,NA,2870,78088,NA,NA,NA,"friend, best-friend, counselor, therapist, psychologists, partner, significant other ",1
"w10042471","zqn62son7e","Affordance Norms_USM",1,40,"2023-01-08T16:42:55+00:00",40.061511039734,12,"updated stim.csv","Version12.csv","Version 12","List 12","bystander",NA,331,4.791666667,384,0.176677262,332,"BOI","-","-","Please name all of the ways you could use this object. Keep in mind that one object can have many uses. Separate your responses with a comma.",NA,"y",39269,NA,NA,6382,38217,NA,NA,NA,"eyewitness, directions, help",1
"W10046339_cpw","o9ngx2ryp0","Affordance Norms_USM",1,11,"2023-01-28T23:31:08+00:00",38.502954006195,42,"updated stim.csv","Version42.csv","Version 42","List 42","cornfield",NA,1234,4.739130435,646,0.867365742,1235,"BOI","-","-","Please name all of the ways you could use this object. Keep in mind that one object can have many uses. Separate your responses with a comma.",NA,"y",37072,NA,NA,3441,31896,NA,NA,NA,"run through, harvest, grow, eat, burn",1
"W10046339_cpw","o9ngx2ryp0","Affordance Norms_USM",1,12,"2023-01-28T23:31:45+00:00",36.948489904404,42,"updated stim.csv","Version42.csv","Version 42","List 42","tooth",NA,1241,6.037037037,2731,0.844875472,1242,"BOI","-","-","Please name all of the ways you could use this object. Keep in mind that one object can have many uses. Separate your responses with a comma.",NA,"y",35450,NA,NA,3760,34255,NA,NA,NA,"pull, brush, wash, pick, full, replace, break, chip",1
"W10046339_cpw","o9ngx2ryp0","Affordance Norms_USM",1,13,"2023-01-28T23:32:08+00:00",22.848173141479,42,"updated stim.csv","Version42.csv","Version 42","List 42","portfolio",NA,1256,4.8,2039,0.492204735,1257,"BOI","-","-","Please name all of the ways you could use this object. Keep in mind that one object can have many uses. Separate your responses with a comma.",NA,"y",21872,NA,NA,2571,19567,NA,NA,NA,"make, reject, accept, grow, full",1
"W10046339_cpw","o9ngx2ryp0","Affordance Norms_USM",1,14,"2023-01-28T23:32:48+00:00",40.084217786789,42,"updated stim.csv","Version42.csv","Version 42","List 42","tree",NA,1237,5.84,2772,0.324741809,1238,"BOI","-","-","Please name all of the ways you could use this object. Keep in mind that one object can have many uses. Separate your responses with a comma.",NA,"y",38413,NA,NA,1542,36849,NA,NA,NA,"grow, burn, pick, climb, cut down, harvest, uproot",1
"W10046339_cpw","o9ngx2ryp0","Affordance Norms_USM",1,15,"2023-01-28T23:33:31+00:00",42.890249013901,42,"updated stim.csv","Version42.csv","Version 42","List 42","beefcake",NA,1249,4.458333333,190,0.594337665,1250,"BOI","-","-","Please name all of the ways you could use this object. Keep in mind that one object can have many uses. Separate your responses with a comma.",NA,"y",41344,NA,NA,2717,23456,NA,NA,NA,"become, eat, throw, make, bake",1
"W10046339_cpw","o9ngx2ryp0","Affordance Norms_USM",1,16,"2023-01-28T23:33:52+00:00",21.245145082474,42,"updated stim.csv","Version42.csv","Version 42","List 42","fossil",NA,1245,4.925925926,1049,0.874093482,1246,"BOI","-","-","Please name all of the ways you could use this object. Keep in mind that one object can have many uses. Separate your responses with a comma.",NA,"y",20267,NA,NA,3231,18635,NA,NA,NA,"break, dig, extract, burn",1
"W10046339_cpw","o9ngx2ryp0","Affordance Norms_USM",1,17,"2023-01-28T23:34:24+00:00",32.220676898956,42,"updated stim.csv","Version42.csv","Version 42","List 42","Donut",NA,1235,NA,3003,0.365184586,1236,"BOI","-","-","Please name all of the ways you could use this object. Keep in mind that one object can have many uses. Separate your responses with a comma.",NA,"y",30559,NA,NA,1663,12618,NA,NA,NA,"eat, bake, fry, glaze, decorate",1
"W10046339_cpw","o9ngx2ryp0","Affordance Norms_USM",1,18,"2023-01-28T23:34:50+00:00",25.797913074493,42,"updated stim.csv","Version42.csv","Version 42","List 42","cracker",NA,1260,5.24,676,0.510191288,1261,"BOI","-","-","Please name all of the ways you could use this object. Keep in mind that one object can have many uses. Separate your responses with a comma.",NA,"y",24769,NA,NA,2552,9681,NA,NA,NA,"eat, break, bake",1
"W10046339_cpw","o9ngx2ryp0","Affordance Norms_USM",1,19,"2023-01-28T23:35:19+00:00",29.291594982147,42,"updated stim.csv","Version42.csv","Version 42","List 42","ramp",NA,1253,4.666666667,2136,0.713067963,1254,"BOI","-","-","Please name all of the ways you could use this object. Keep in mind that one object can have many uses. Separate your responses with a comma.",NA,"y",28197,NA,NA,3973,26442,NA,NA,NA,"climb, roll onto, build, destroy",1
"W10046339_cpw","o9ngx2ryp0","Affordance Norms_USM",1,20,"2023-01-28T23:35:54+00:00",35.122910022736,42,"updated stim.csv","Version42.csv","Version 42","List 42","vendor",NA,1242,5,2847,0.807258877,1243,"BOI","-","-","Please name all of the ways you could use this object. Keep in mind that one object can have many uses. Separate your responses with a comma.",NA,"y",33569,NA,NA,2840,31630,NA,NA,NA,"talk to, buy from, trade with",1
"W10046339_cpw","o9ngx2ryp0","Affordance Norms_USM",1,21,"2023-01-28T23:36:15+00:00",21.117681026459,42,"updated stim.csv","Version42.csv","Version 42","List 42","hairbrush",NA,1233,6.48,1210,0.804838118,1234,"BOI","-","-","Please name all of the ways you could use this object. Keep in mind that one object can have many uses. Separate your responses with a comma.",NA,"y",20109,NA,NA,3534,18894,NA,NA,NA,"brush, clean, detangle with",1
"W10046339_cpw","o9ngx2ryp0","Affordance Norms_USM",1,22,"2023-01-28T23:36:36+00:00",20.657013893127,42,"updated stim.csv","Version42.csv","Version 42","List 42","grandparent",NA,1255,5.56,1152,0.167861538,1256,"BOI","-","-","Please name all of the ways you could use this object. Keep in mind that one object can have many uses. Separate your responses with a comma.",NA,"y",19506,NA,NA,2401,13420,NA,NA,NA,"talk to, morn",1
"W10046339_cpw","o9ngx2ryp0","Affordance Norms_USM",1,23,"2023-01-28T23:36:57+00:00",20.947461128235,42,"updated stim.csv","Version42.csv","Version 42","List 42","tomb",NA,1247,4.739130435,2724,0.147761726,1248,"BOI","-","-","Please name all of the ways you could use this object. Keep in mind that one object can have many uses. Separate your responses with a comma.",NA,"y",19652,NA,NA,2295,18259,NA,NA,NA,"visit, deface, restore, build, morn",1
"W10046339_cpw","o9ngx2ryp0","Affordance Norms_USM",1,24,"2023-01-28T23:37:56+00:00",59.527869939804,42,"updated stim.csv","Version42.csv","Version 42","List 42","antihistamine",NA,1248,5.260869565,49,0.522980549,1249,"BOI","-","-","Please name all of the ways you could use this object. Keep in mind that one object can have many uses. Separate your responses with a comma.",NA,"y",57933,NA,NA,18511,55369,NA,NA,NA,"take, develop, throw away, administer",1
"W10046339_cpw","o9ngx2ryp0","Affordance Norms_USM",1,25,"2023-01-28T23:38:27+00:00",30.974399089813,42,"updated stim.csv","Version42.csv","Version 42","List 42","chaplain",NA,1257,4.72,495,0.966721274,1258,"BOI","-","-","Please name all of the ways you could use this object. Keep in mind that one object can have many uses. Separate your responses with a comma.",NA,"y",29944,NA,NA,15284,26005,NA,NA,NA,"talk to, avoid",1
"W10046339_cpw","o9ngx2ryp0","Affordance Norms_USM",1,26,"2023-01-28T23:38:40+00:00",12.760723829269,42,"updated stim.csv","Version42.csv","Version 42","List 42","commode",NA,1259,5.481481481,610,0.117401626,1260,"BOI","-","-","Please name all of the ways you could use this object. Keep in mind that one object can have many uses. Separate your responses with a comma.",NA,"y",11719,NA,NA,2879,9485,NA,NA,NA,"use, clean, fix, install",1
"W10046339_cpw","o9ngx2ryp0","Affordance Norms_USM",1,27,"2023-01-28T23:39:11+00:00",30.473807096481,42,"updated stim.csv","Version42.csv","Version 42","List 42","carnival",NA,1232,5.125,434,0.34861203,1233,"BOI","-","-","Please name all of the ways you could use this object. Keep in mind that one object can have many uses. Separate your responses with a comma.",NA,"y",29513,NA,NA,1708,28248,NA,NA,NA,"attend, avoid, work at, buy from",1
"W10046339_cpw","o9ngx2ryp0","Affordance Norms_USM",1,28,"2023-01-28T23:39:34+00:00",23.130217075348,42,"updated stim.csv","Version42.csv","Version 42","List 42","ashes",NA,1240,4.862068966,83,0.70407494,1241,"BOI","-","-","Please name all of the ways you could use this object. Keep in mind that one object can have many uses. Separate your responses with a comma.",NA,"y",21827,NA,NA,3027,17742,NA,NA,NA,"spread, keep, make, bury",1
"W10046339_cpw","o9ngx2ryp0","Affordance Norms_USM",1,29,"2023-01-28T23:40:09+00:00",34.971510887146,42,"updated stim.csv","Version42.csv","Version 42","List 42","tightrope",NA,1238,4.590909091,2695,0.5539317,1239,"BOI","-","-","Please name all of the ways you could use this object. Keep in mind that one object can have many uses. Separate your responses with a comma.",NA,"y",33332,NA,NA,16361,31893,NA,NA,NA,"walk on, cut, make, lower, raise",1
"W10046339_cpw","o9ngx2ryp0","Affordance Norms_USM",1,30,"2023-01-28T23:40:41+00:00",32.213403940201,42,"updated stim.csv","Version42.csv","Version 42","List 42","flashlight",NA,1251,5.869565217,1002,0.527294364,1252,"BOI","-","-","Please name all of the ways you could use this object. Keep in mind that one object can have many uses. Separate your responses with a comma.",NA,"y",30711,NA,NA,10407,25672,NA,NA,NA,"throw, swing, turn on, turn off, replace",1
"W10046339_cpw","o9ngx2ryp0","Affordance Norms_USM",1,31,"2023-01-28T23:41:05+00:00",24.350517034531,42,"updated stim.csv","Version42.csv","Version 42","List 42","stallion",NA,1246,4.88,2505,0.27792808,1247,"BOI","-","-","Please name all of the ways you could use this object. Keep in mind that one object can have many uses. Separate your responses with a comma.",NA,"y",23342,NA,NA,2623,14699,NA,NA,NA,"ride, clean, release, feed",1
"W10046339_cpw","o9ngx2ryp0","Affordance Norms_USM",1,32,"2023-01-28T23:41:22+00:00",16.416742086411,42,"updated stim.csv","Version42.csv","Version 42","List 42","moneybags",NA,1231,5,1678,0.303590974,1232,"BOI","-","-","Please name all of the ways you could use this object. Keep in mind that one object can have many uses. Separate your responses with a comma.",NA,"y",15246,NA,NA,3136,7358,NA,NA,NA,"create, steal",1
"W10046339_cpw","o9ngx2ryp0","Affordance Norms_USM",1,33,"2023-01-28T23:41:52+00:00",29.796320915222,42,"updated stim.csv","Version42.csv","Version 42","List 42","woman",NA,1243,5.333333333,2955,0.245954644,1244,"BOI","-","-","Please name all of the ways you could use this object. Keep in mind that one object can have many uses. Separate your responses with a comma.",NA,"y",28494,NA,NA,2748,26607,NA,NA,NA,"become, create, talk to, find",1
"W10046339_cpw","o9ngx2ryp0","Affordance Norms_USM",1,34,"2023-01-28T23:42:12+00:00",20.67781496048,42,"updated stim.csv","Version42.csv","Version 42","List 42","crypt",NA,1254,4.541666667,718,0.045845513,1255,"BOI","-","-","Please name all of the ways you could use this object. Keep in mind that one object can have many uses. Separate your responses with a comma.",NA,"y",19387,NA,NA,2955,17190,NA,NA,NA,"discover, uncover, translate",1
"W10046339_cpw","o9ngx2ryp0","Affordance Norms_USM",1,35,"2023-01-28T23:43:09+00:00",56.777260065079,42,"updated stim.csv","Version42.csv","Version 42","List 42","envelope",NA,1252,5.64,913,0.787642352,1253,"BOI","-","-","Please name all of the ways you could use this object. Keep in mind that one object can have many uses. Separate your responses with a comma.",NA,"y",55217,NA,NA,6876,53754,NA,NA,NA,"make, ship, seal, sign, stamp",1
"W10046339_cpw","o9ngx2ryp0","Affordance Norms_USM",1,36,"2023-01-28T23:44:29+00:00",79.695367097855,42,"updated stim.csv","Version42.csv","Version 42","List 42","deerskin",NA,1258,4.826086957,766,0.793854008,1259,"BOI","-","-","Please name all of the ways you could use this object. Keep in mind that one object can have many uses. Separate your responses with a comma.",NA,"y",78215,NA,NA,32525,70076,NA,NA,NA,"make, buy",1
"W10046339_cpw","o9ngx2ryp0","Affordance Norms_USM",1,37,"2023-01-28T23:44:40+00:00",10.90074300766,42,"updated stim.csv","Version42.csv","Version 42","List 42","label",NA,1250,5.375,1442,0.592697272,1251,"BOI","-","-","Please name all of the ways you could use this object. Keep in mind that one object can have many uses. Separate your responses with a comma.",NA,"y",9968,NA,NA,7060,8579,NA,NA,NA,"make, use",1
"W10046339_cpw","o9ngx2ryp0","Affordance Norms_USM",1,38,"2023-01-28T23:46:06+00:00",86.012470960617,42,"updated stim.csv","Version42.csv","Version 42","List 42","vermouth",NA,1244,4.318181818,2851,0.228104734,1245,"BOI","-","-","Please name all of the ways you could use this object. Keep in mind that one object can have many uses. Separate your responses with a comma.",NA,"y",23153,NA,NA,2328,20502,NA,NA,NA,"sell, buy, taste, drink, ferment, develop",1
"W10046339_cpw","o9ngx2ryp0","Affordance Norms_USM",1,39,"2023-01-28T23:46:55+00:00",49.333970069885,42,"updated stim.csv","Version42.csv","Version 42","List 42","fluid",NA,1239,4.923076923,1018,0.626399248,1240,"BOI","-","-","Please name all of the ways you could use this object. Keep in mind that one object can have many uses. Separate your responses with a comma.",NA,"y",47704,NA,NA,2319,42521,NA,NA,NA,"make, drink, excreet",1
"W10046339_cpw","o9ngx2ryp0","Affordance Norms_USM",1,40,"2023-01-28T23:47:33+00:00",38.242771863937,42,"updated stim.csv","Version42.csv","Version 42","List 42","bootlace",NA,1236,5.64,283,0.844378633,1237,"BOI","-","-","Please name all of the ways you could use this object. Keep in mind that one object can have many uses. Separate your responses with a comma.",NA,"y",36674,NA,NA,14339,35059,NA,NA,NA,"tie, lace, fasten",1
"w10057028_nfg","uh9aok2iu1","Affordance Norms_USM",1,11,"2023-01-19T19:18:19+00:00",8.3648209571838,18,"updated stim.csv","Version18.csv","Version 18","List 18","Elevator",NA,537,5.486522911,901,0.750646332,538,"BOI","-","-","Please name all of the ways you could use this object. Keep in mind that one object can have many uses. Separate your responses with a comma.",NA,"y",8203,NA,NA,1939,5372,NA,NA,NA,"ride, fix",1
"w10057028_nfg","uh9aok2iu1","Affordance Norms_USM",1,12,"2023-01-19T19:18:26+00:00",6.7122418880463,18,"updated stim.csv","Version18.csv","Version 18","List 18","croissant",NA,518,6,699,0.195516583,519,"BOI","-","-","Please name all of the ways you could use this object. Keep in mind that one object can have many uses. Separate your responses with a comma.",NA,"y",6544,NA,NA,1735,6198,NA,NA,NA,"eat, make, share",1
"w10057028_nfg","uh9aok2iu1","Affordance Norms_USM",1,13,"2023-01-19T19:18:36+00:00",10.17511510849,18,"updated stim.csv","Version18.csv","Version 18","List 18","chimpanzee",NA,512,4.260869565,525,0.027839326,513,"BOI","-","-","Please name all of the ways you could use this object. Keep in mind that one object can have many uses. Separate your responses with a comma.",NA,"y",10013,NA,NA,2627,9490,NA,NA,NA,"pet, play, learn",1
"w10057028_nfg","uh9aok2iu1","Affordance Norms_USM",1,14,"2023-01-19T19:18:43+00:00",6.9169659614563,18,"updated stim.csv","Version18.csv","Version 18","List 18","orphan",NA,514,5.259259259,1824,0.409410216,515,"BOI","-","-","Please name all of the ways you could use this object. Keep in mind that one object can have many uses. Separate your responses with a comma.",NA,"y",6751,NA,NA,2261,5666,NA,NA,NA,"help, befriend",1
"w10057028_nfg","uh9aok2iu1","Affordance Norms_USM",1,15,"2023-01-19T19:18:52+00:00",8.3901469707489,18,"updated stim.csv","Version18.csv","Version 18","List 18","sweater",NA,531,6.592592593,2604,0.037244496,532,"BOI","-","-","Please name all of the ways you could use this object. Keep in mind that one object can have many uses. Separate your responses with a comma.",NA,"y",8227,NA,NA,1064,7774,NA,NA,NA,"wear, sew, buy, give away",1
"w10057028_nfg","uh9aok2iu1","Affordance Norms_USM",1,16,"2023-01-19T19:19:02+00:00",10.053153991699,18,"updated stim.csv","Version18.csv","Version 18","List 18","eyeball",NA,516,5.555555556,930,0.887767133,517,"BOI","-","-","Please name all of the ways you could use this object. Keep in mind that one object can have many uses. Separate your responses with a comma.",NA,"y",9893,NA,NA,1850,3142,NA,NA,NA,"see",1
"w10057028_nfg","uh9aok2iu1","Affordance Norms_USM",1,17,"2023-01-19T19:19:09+00:00",7.2465100288391,18,"updated stim.csv","Version18.csv","Version 18","List 18","leopard",NA,534,5.260869565,1492,0.304149864,535,"BOI","-","-","Please name all of the ways you could use this object. Keep in mind that one object can have many uses. Separate your responses with a comma.",NA,"y",7092,NA,NA,3566,5928,NA,NA,NA,"pet, wear",1
"w10057028_nfg","uh9aok2iu1","Affordance Norms_USM",1,18,"2023-01-19T19:19:18+00:00",9.5262780189514,18,"updated stim.csv","Version18.csv","Version 18","List 18","semen",NA,523,5.269230769,2310,0.728002682,524,"BOI","-","-","Please name all of the ways you could use this object. Keep in mind that one object can have many uses. Separate your responses with a comma.",NA,"y",9342,NA,NA,7798,8365,NA,NA,NA,"baby",1
"w10057028_nfg","uh9aok2iu1","Affordance Norms_USM",1,19,"2023-01-19T19:19:23+00:00",4.7439968585968,18,"updated stim.csv","Version18.csv","Version 18","List 18","thread",NA,528,4.76,2684,0.433773044,529,"BOI","-","-","Please name all of the ways you could use this object. Keep in mind that one object can have many uses. Separate your responses with a comma.",NA,"y",4581,NA,NA,1717,4145,NA,NA,NA,"sew, tie",1
"w10057028_nfg","uh9aok2iu1","Affordance Norms_USM",1,20,"2023-01-19T19:19:29+00:00",6.1417331695557,18,"updated stim.csv","Version18.csv","Version 18","List 18","armor",NA,530,5.333333333,74,0.187270689,531,"BOI","-","-","Please name all of the ways you could use this object. Keep in mind that one object can have many uses. Separate your responses with a comma.",NA,"y",5975,NA,NA,2266,5304,NA,NA,NA,"protect, wear",1
"w10057028_nfg","uh9aok2iu1","Affordance Norms_USM",1,21,"2023-01-19T19:19:35+00:00",5.5712158679962,18,"updated stim.csv","Version18.csv","Version 18","List 18","appetizer",NA,513,6.12,60,0.088357206,514,"BOI","-","-","Please name all of the ways you could use this object. Keep in mind that one object can have many uses. Separate your responses with a comma.",NA,"y",5406,NA,NA,1174,5202,NA,NA,NA,"eat, serve, share",1
"w10057028_nfg","uh9aok2iu1","Affordance Norms_USM",1,22,"2023-01-19T19:19:38+00:00",3.1555480957031,18,"updated stim.csv","Version18.csv","Version 18","List 18","croquet",NA,517,4.84,701,0.291263355,518,"BOI","-","-","Please name all of the ways you could use this object. Keep in mind that one object can have many uses. Separate your responses with a comma.",NA,"y",2988,NA,NA,1615,2310,NA,NA,NA,"play",1
"w10057028_nfg","uh9aok2iu1","Affordance Norms_USM",1,23,"2023-01-19T19:19:44+00:00",5.6769630908966,18,"updated stim.csv","Version18.csv","Version 18","List 18","breastplate",NA,519,5.136363636,314,0.791797957,520,"BOI","-","-","Please name all of the ways you could use this object. Keep in mind that one object can have many uses. Separate your responses with a comma.",NA,"y",5518,NA,NA,3637,4509,NA,NA,NA,"shield",1
"w10057028_nfg","uh9aok2iu1","Affordance Norms_USM",1,24,"2023-01-19T19:19:51+00:00",7.7159659862518,18,"updated stim.csv","Version18.csv","Version 18","List 18","bellboy",NA,535,4.8,197,0.341449251,536,"BOI","-","-","Please name all of the ways you could use this object. Keep in mind that one object can have many uses. Separate your responses with a comma.",NA,"y",7477,NA,NA,4733,6886,NA,NA,NA,"help, greet",1
"w10057028_nfg","uh9aok2iu1","Affordance Norms_USM",1,25,"2023-01-19T19:19:59+00:00",7.3300879001617,18,"updated stim.csv","Version18.csv","Version 18","List 18","tenderloin",NA,539,4.962962963,2663,0.710184563,540,"BOI","-","-","Please name all of the ways you could use this object. Keep in mind that one object can have many uses. Separate your responses with a comma.",NA,"y",7017,NA,NA,1151,6431,NA,NA,NA,"eat, serve, share, cook",1
"w10057028_nfg","uh9aok2iu1","Affordance Norms_USM",1,26,"2023-01-19T19:20:09+00:00",10.442724943161,18,"updated stim.csv","Version18.csv","Version 18","List 18","upholstery",NA,526,5.461538462,2827,0.065017905,527,"BOI","-","-","Please name all of the ways you could use this object. Keep in mind that one object can have many uses. Separate your responses with a comma.",NA,"y",10272,NA,NA,5239,9930,NA,NA,NA,"place things, build",1
"w10057028_nfg","uh9aok2iu1","Affordance Norms_USM",1,27,"2023-01-19T19:20:42+00:00",32.703947067261,18,"updated stim.csv","Version18.csv","Version 18","List 18","adapter",NA,532,4.583333333,13,0.866092268,533,"BOI","-","-","Please name all of the ways you could use this object. Keep in mind that one object can have many uses. Separate your responses with a comma.",NA,"y",32021,NA,NA,29920,31653,NA,NA,NA,"share screen",1
"w10057028_nfg","uh9aok2iu1","Affordance Norms_USM",1,28,"2023-01-19T19:20:54+00:00",11.589400053024,18,"updated stim.csv","Version18.csv","Version 18","List 18","packaging",NA,524,5.038461538,1838,0.013887713,525,"BOI","-","-","Please name all of the ways you could use this object. Keep in mind that one object can have many uses. Separate your responses with a comma.",NA,"y",11405,NA,NA,5412,6791,NA,NA,NA,"ship",1
"w10057028_nfg","uh9aok2iu1","Affordance Norms_USM",1,29,"2023-01-19T19:21:06+00:00",12.05171084404,18,"updated stim.csv","Version18.csv","Version 18","List 18","boy",NA,521,4.962962963,296,0.235786191,522,"BOI","-","-","Please name all of the ways you could use this object. Keep in mind that one object can have many uses. Separate your responses with a comma.",NA,"y",11890,NA,NA,5007,11618,NA,NA,NA,"love, friend, partner",1
"w10057028_nfg","uh9aok2iu1","Affordance Norms_USM",1,30,"2023-01-19T19:21:19+00:00",13.300732135773,18,"updated stim.csv","Version18.csv","Version 18","List 18","guard",NA,515,5,1184,0.014898881,516,"BOI","-","-","Please name all of the ways you could use this object. Keep in mind that one object can have many uses. Separate your responses with a comma.",NA,"y",13135,NA,NA,5309,12615,NA,NA,NA,"protect, basketball",1
"w10057028_nfg","uh9aok2iu1","Affordance Norms_USM",1,31,"2023-01-19T19:21:26+00:00",6.9368560314178,18,"updated stim.csv","Version18.csv","Version 18","List 18","coupon",NA,540,4.821428571,667,0.305307499,541,"BOI","-","-","Please name all of the ways you could use this object. Keep in mind that one object can have many uses. Separate your responses with a comma.",NA,"y",6760,NA,NA,1619,5854,NA,NA,NA,"discount, save",1
"w10057028_nfg","uh9aok2iu1","Affordance Norms_USM",1,32,"2023-01-19T19:21:34+00:00",8.5183598995209,18,"updated stim.csv","Version18.csv","Version 18","List 18","girlfriend",NA,536,5.730769231,1109,0.219592421,537,"BOI","-","-","Please name all of the ways you could use this object. Keep in mind that one object can have many uses. Separate your responses with a comma.",NA,"y",8347,NA,NA,5108,7976,NA,NA,NA,"friend, love",1
"w10057028_nfg","uh9aok2iu1","Affordance Norms_USM",1,33,"2023-01-19T19:52:57+00:00",1883.106842041,18,"updated stim.csv","Version18.csv","Version 18","List 18","inventor",NA,529,4.391304348,1366,0.759903521,530,"BOI","-","-","Please name all of the ways you could use this object. Keep in mind that one object can have many uses. Separate your responses with a comma.",NA,"y",1882320,NA,NA,1865662,1881948,NA,NA,NA,"create, amaze, persuade",0.956
"w10057028_nfg","uh9aok2iu1","Affordance Norms_USM",1,34,"2023-01-19T19:53:07+00:00",9.5236608982086,18,"updated stim.csv","Version18.csv","Version 18","List 18","basin",NA,538,4.818181818,161,0.378920968,539,"BOI","-","-","Please name all of the ways you could use this object. Keep in mind that one object can have many uses. Separate your responses with a comma.",NA,"y",9139,NA,NA,3335,7487,NA,NA,NA,"hold water",1
"w10057028_nfg","uh9aok2iu1","Affordance Norms_USM",1,35,"2023-01-19T19:53:17+00:00",9.5767982006073,18,"updated stim.csv","Version18.csv","Version 18","List 18","programmer",NA,511,4.695652174,2071,0.979417302,512,"BOI","-","-","Please name all of the ways you could use this object. Keep in mind that one object can have many uses. Separate your responses with a comma.",NA,"y",9256,NA,NA,3347,8675,NA,NA,NA,"create, inspire",1
"w10057028_nfg","uh9aok2iu1","Affordance Norms_USM",1,36,"2023-01-19T19:53:28+00:00",11.647461891174,18,"updated stim.csv","Version18.csv","Version 18","List 18","skewer",NA,525,4.5,2396,0.276241995,526,"BOI","-","-","Please name all of the ways you could use this object. Keep in mind that one object can have many uses. Separate your responses with a comma.",NA,"y",11469,NA,NA,2119,10873,NA,NA,NA,"hold, stab",1
"w10057028_nfg","uh9aok2iu1","Affordance Norms_USM",1,37,"2023-01-19T19:53:31+00:00",3.225702047348,18,"updated stim.csv","Version18.csv","Version 18","List 18","capacitor",NA,527,4.375,423,0.29017358,528,"BOI","-","-","Please name all of the ways you could use this object. Keep in mind that one object can have many uses. Separate your responses with a comma.",NA,"y",3051,NA,NA,-1,-1,NA,NA,NA,"",1
"w10057028_nfg","uh9aok2iu1","Affordance Norms_USM",1,38,"2023-01-19T19:53:36+00:00",4.9832849502563,18,"updated stim.csv","Version18.csv","Version 18","List 18","dishwasher",NA,522,5.592592593,803,0.012255055,523,"BOI","-","-","Please name all of the ways you could use this object. Keep in mind that one object can have many uses. Separate your responses with a comma.",NA,"y",4807,NA,NA,1871,3127,NA,NA,NA,"clean",1
"w10057028_nfg","uh9aok2iu1","Affordance Norms_USM",1,39,"2023-01-19T19:53:49+00:00",12.558413982391,18,"updated stim.csv","Version18.csv","Version 18","List 18","cosmetician",NA,520,4.8,655,0.584332234,521,"BOI","-","-","Please name all of the ways you could use this object. Keep in mind that one object can have many uses. Separate your responses with a comma.",NA,"y",12348,NA,NA,2880,12094,NA,NA,NA,"beautify, inspire",1
"w10057028_nfg","uh9aok2iu1","Affordance Norms_USM",1,40,"2023-01-19T19:53:54+00:00",4.5941960811615,18,"updated stim.csv","Version18.csv","Version 18","List 18","espresso",NA,533,5.24,921,0.53592974,534,"BOI","-","-","Please name all of the ways you could use this object. Keep in mind that one object can have many uses. Separate your responses with a comma.",NA,"y",4418,NA,NA,1407,4069,NA,NA,NA,"drink, make",1
"w10062326CT","r9ys17ouai","Affordance Norms_USM",1,11,"2023-01-20T17:45:02+00:00",8.2074680328369,27,"updated stim.csv","Version27.csv","Version 27","List 27","kaleidoscope",NA,784,5.84,1400,0.135806024,785,"BOI","-","-","Please name all of the ways you could use this object. Keep in mind that one object can have many uses. Separate your responses with a comma.",NA,"y",7998,NA,NA,1302,6836,NA,NA,NA,"look through, make, playwith",1
"w10062326CT","r9ys17ouai","Affordance Norms_USM",1,12,"2023-01-20T17:45:16+00:00",14.610599040985,27,"updated stim.csv","Version27.csv","Version 27","List 27","bunkmate",NA,791,4.458333333,362,0.990824712,792,"BOI","-","-","Please name all of the ways you could use this object. Keep in mind that one object can have many uses. Separate your responses with a comma.",NA,"y",14332,NA,NA,1570,12062,NA,NA,NA,"talk to, play with, sleep with, live with",1
"w10062326CT","r9ys17ouai","Affordance Norms_USM",1,13,"2023-01-20T17:45:47+00:00",30.981494903564,27,"updated stim.csv","Version27.csv","Version 27","List 27","flagpole",NA,802,4.785714286,996,0.453208027,803,"BOI","-","-","Please name all of the ways you could use this object. Keep in mind that one object can have many uses. Separate your responses with a comma.",NA,"y",30753,NA,NA,2336,26064,NA,NA,NA,"climb, look at, hang a flag",1
"w10062326CT","r9ys17ouai","Affordance Norms_USM",1,14,"2023-01-20T17:45:59+00:00",11.913896083832,27,"updated stim.csv","Version27.csv","Version 27","List 27","cherry",NA,804,5.454545455,511,0.321321714,805,"BOI","-","-","Please name all of the ways you could use this object. Keep in mind that one object can have many uses. Separate your responses with a comma.",NA,"y",11703,NA,NA,1446,10942,NA,NA,NA,"eat, cook with, pick, buy",1
"w10062326CT","r9ys17ouai","Affordance Norms_USM",1,15,"2023-01-20T17:46:23+00:00",23.675837039948,27,"updated stim.csv","Version27.csv","Version 27","List 27","apricot",NA,808,6.291666667,66,0.995280621,809,"BOI","-","-","Please name all of the ways you could use this object. Keep in mind that one object can have many uses. Separate your responses with a comma.",NA,"y",23463,NA,NA,2210,11771,NA,NA,NA,"cook, eat, wash, pick, buy",1
"w10062326CT","r9ys17ouai","Affordance Norms_USM",1,16,"2023-01-20T17:46:49+00:00",26.214237928391,27,"updated stim.csv","Version27.csv","Version 27","List 27","fridge",NA,786,6.166666667,1056,0.464283559,787,"BOI","-","-","Please name all of the ways you could use this object. Keep in mind that one object can have many uses. Separate your responses with a comma.",NA,"y",26000,NA,NA,10503,25372,NA,NA,NA,"keep things cold",1
"w10062326CT","r9ys17ouai","Affordance Norms_USM",1,17,"2023-01-20T17:47:05+00:00",15.583919048309,27,"updated stim.csv","Version27.csv","Version 27","List 27","billfold",NA,793,5.444444444,215,0.982545765,794,"BOI","-","-","Please name all of the ways you could use this object. Keep in mind that one object can have many uses. Separate your responses with a comma.",NA,"y",15363,NA,NA,2692,8405,NA,NA,NA,"hold money, keep cards safe",1
"w10062326CT","r9ys17ouai","Affordance Norms_USM",1,18,"2023-01-20T17:47:36+00:00",31.6270570755,27,"updated stim.csv","Version27.csv","Version 27","List 27","daiquiri",NA,799,5.454545455,749,0.644735907,800,"BOI","-","-","Please name all of the ways you could use this object. Keep in mind that one object can have many uses. Separate your responses with a comma.",NA,"y",31403,NA,NA,7044,30462,NA,NA,NA,"drink it, cook with it, make it",0.906
"w10062326CT","r9ys17ouai","Affordance Norms_USM",1,19,"2023-01-20T17:47:57+00:00",20.409205913544,27,"updated stim.csv","Version27.csv","Version 27","List 27","bum",NA,782,4.346153846,357,0.688986044,783,"BOI","-","-","Please name all of the ways you could use this object. Keep in mind that one object can have many uses. Separate your responses with a comma.",NA,"y",20159,NA,NA,10363,17285,NA,NA,NA,"sit",1
"w10062326CT","r9ys17ouai","Affordance Norms_USM",1,20,"2023-01-20T17:48:25+00:00",28.805157899857,27,"updated stim.csv","Version27.csv","Version 27","List 27","electronics",NA,783,5.12,899,0.638186534,784,"BOI","-","-","Please name all of the ways you could use this object. Keep in mind that one object can have many uses. Separate your responses with a comma.",NA,"y",28583,NA,NA,12774,27487,NA,NA,NA,"schoolwork, work, play, communicate",1
"w10062326CT","r9ys17ouai","Affordance Norms_USM",1,21,"2023-01-20T17:48:41+00:00",16.047491073608,27,"updated stim.csv","Version27.csv","Version 27","List 27","gambler",NA,792,4.416666667,1070,0.425400379,793,"BOI","-","-","Please name all of the ways you could use this object. Keep in mind that one object can have many uses. Separate your responses with a comma.",NA,"y",15827,NA,NA,9884,12354,NA,NA,NA,"gamble",1
"w10062326CT","r9ys17ouai","Affordance Norms_USM",1,22,"2023-01-20T17:49:02+00:00",20.733814954758,27,"updated stim.csv","Version27.csv","Version 27","List 27","townsfolk",NA,798,4.583333333,2748,0.970426414,799,"BOI","-","-","Please name all of the ways you could use this object. Keep in mind that one object can have many uses. Separate your responses with a comma.",NA,"y",20516,NA,NA,1837,15021,NA,NA,NA,"talk to, learn from",1
"w10062326CT","r9ys17ouai","Affordance Norms_USM",1,23,"2023-01-20T17:49:42+00:00",39.762532949448,27,"updated stim.csv","Version27.csv","Version 27","List 27","Grasshopper",NA,810,4.753721245,1161,0.631524214,811,"BOI","-","-","Please name all of the ways you could use this object. Keep in mind that one object can have many uses. Separate your responses with a comma.",NA,"y",39545,NA,NA,3771,38841,NA,NA,NA,"pet, feed it to something",1
"w10062326CT","r9ys17ouai","Affordance Norms_USM",1,24,"2023-01-20T17:50:10+00:00",28.010589122772,27,"updated stim.csv","Version27.csv","Version 27","List 27","sedative",NA,800,4.416666667,2307,0.365305689,801,"BOI","-","-","Please name all of the ways you could use this object. Keep in mind that one object can have many uses. Separate your responses with a comma.",NA,"y",27788,NA,NA,6204,22326,NA,NA,NA,"medicine, surgery, sleep",1
"w10062326CT","r9ys17ouai","Affordance Norms_USM",1,25,"2023-01-20T17:50:48+00:00",37.716770887375,27,"updated stim.csv","Version27.csv","Version 27","List 27","housekeeper",NA,801,4.458333333,1331,0.888029545,802,"BOI","-","-","Please name all of the ways you could use this object. Keep in mind that one object can have many uses. Separate your responses with a comma.",NA,"y",37497,NA,NA,15496,36812,NA,NA,NA,"talk to, clean with, pay",1
"w10062326CT","r9ys17ouai","Affordance Norms_USM",1,26,"2023-01-20T17:50:59+00:00",11.884823083878,27,"updated stim.csv","Version27.csv","Version 27","List 27","foxhound",NA,781,4.347826087,1052,0.132476574,782,"BOI","-","-","Please name all of the ways you could use this object. Keep in mind that one object can have many uses. Separate your responses with a comma.",NA,"y",11684,NA,NA,2697,10509,NA,NA,NA,"go hunting, keep as pet",1
"w10062326CT","r9ys17ouai","Affordance Norms_USM",1,27,"2023-01-20T17:51:19+00:00",19.614278078079,27,"updated stim.csv","Version27.csv","Version 27","List 27","receipts",NA,795,5.04,2144,0.953062768,796,"BOI","-","-","Please name all of the ways you could use this object. Keep in mind that one object can have many uses. Separate your responses with a comma.",NA,"y",19388,NA,NA,4099,17506,NA,NA,NA,"return things, remember prices, get points",1
"w10062326CT","r9ys17ouai","Affordance Norms_USM",1,28,"2023-01-20T17:51:42+00:00",23.144502878189,27,"updated stim.csv","Version27.csv","Version 27","List 27","intercom",NA,809,4.695652174,1363,0.853702441,810,"BOI","-","-","Please name all of the ways you could use this object. Keep in mind that one object can have many uses. Separate your responses with a comma.",NA,"y",22934,NA,NA,3644,21779,NA,NA,NA,"talk to a group of people, project your voice",1
"w10062326CT","r9ys17ouai","Affordance Norms_USM",1,29,"2023-01-20T17:52:01+00:00",18.660597085953,27,"updated stim.csv","Version27.csv","Version 27","List 27","bug",NA,787,5.296296296,347,0.872982747,788,"BOI","-","-","Please name all of the ways you could use this object. Keep in mind that one object can have many uses. Separate your responses with a comma.",NA,"y",18442,NA,NA,2739,8788,NA,NA,NA,"squash, play with, let go",1
"w10062326CT","r9ys17ouai","Affordance Norms_USM",1,30,"2023-01-20T17:52:14+00:00",13.03541302681,27,"updated stim.csv","Version27.csv","Version 27","List 27","lingerie",NA,790,5.72,1518,0.572115886,791,"BOI","-","-","Please name all of the ways you could use this object. Keep in mind that one object can have many uses. Separate your responses with a comma.",NA,"y",12815,NA,NA,1954,11041,NA,NA,NA,"wear, show, buy",1
"w10062326CT","r9ys17ouai","Affordance Norms_USM",1,31,"2023-01-20T17:52:37+00:00",23.280467987061,27,"updated stim.csv","Version27.csv","Version 27","List 27","subway",NA,805,5,2577,0.98227085,806,"BOI","-","-","Please name all of the ways you could use this object. Keep in mind that one object can have many uses. Separate your responses with a comma.",NA,"y",23082,NA,NA,2824,22476,NA,NA,NA,"travel quickly",1
"w10062326CT","r9ys17ouai","Affordance Norms_USM",1,32,"2023-01-20T17:52:59+00:00",21.870758056641,27,"updated stim.csv","Version27.csv","Version 27","List 27","marshmallow",NA,797,6.173913043,1611,0.341569418,798,"BOI","-","-","Please name all of the ways you could use this object. Keep in mind that one object can have many uses. Separate your responses with a comma.",NA,"y",21659,NA,NA,6758,20701,NA,NA,NA,"eat, cook with, burn",1
"w10062326CT","r9ys17ouai","Affordance Norms_USM",1,33,"2023-01-20T17:54:58+00:00",118.45041489601,27,"updated stim.csv","Version27.csv","Version 27","List 27","mothball",NA,796,5.12,1691,0.964691263,797,"BOI","-","-","Please name all of the ways you could use this object. Keep in mind that one object can have many uses. Separate your responses with a comma.",NA,"y",118188,NA,NA,111431,115552,NA,NA,NA,"thow away, throw",0.939
"w10062326CT","r9ys17ouai","Affordance Norms_USM",1,34,"2023-01-20T17:55:14+00:00",16.729655981064,27,"updated stim.csv","Version27.csv","Version 27","List 27","scythe",NA,803,4.727272727,2293,0.081812989,804,"BOI","-","-","Please name all of the ways you could use this object. Keep in mind that one object can have many uses. Separate your responses with a comma.",NA,"y",16499,NA,NA,5675,15400,NA,NA,NA,"carry it, swing it",1
"w10062326CT","r9ys17ouai","Affordance Norms_USM",1,35,"2023-01-20T17:55:46+00:00",32.120117902756,27,"updated stim.csv","Version27.csv","Version 27","List 27","breastbone",NA,785,5.318181818,313,0.603483153,786,"BOI","-","-","Please name all of the ways you could use this object. Keep in mind that one object can have many uses. Separate your responses with a comma.",NA,"y",31896,NA,NA,29233,30718,NA,NA,NA,"punch it",0.927
"w10062326CT","r9ys17ouai","Affordance Norms_USM",1,36,"2023-01-20T17:55:59+00:00",12.973987102509,27,"updated stim.csv","Version27.csv","Version 27","List 27","appliance",NA,807,5.791666667,62,0.769783422,808,"BOI","-","-","Please name all of the ways you could use this object. Keep in mind that one object can have many uses. Separate your responses with a comma.",NA,"y",12757,NA,NA,3736,11698,NA,NA,NA,"use it, hold it, clean it",1
"w10062326CT","r9ys17ouai","Affordance Norms_USM",1,37,"2023-01-20T17:56:28+00:00",28.770354986191,27,"updated stim.csv","Version27.csv","Version 27","List 27","father",NA,788,6.035714286,951,0.177455126,789,"BOI","-","-","Please name all of the ways you could use this object. Keep in mind that one object can have many uses. Separate your responses with a comma.",NA,"y",28544,NA,NA,3200,27480,NA,NA,NA,"fish, hunt, eat",1
"w10062326CT","r9ys17ouai","Affordance Norms_USM",1,38,"2023-01-20T17:57:03+00:00",35.152887105942,27,"updated stim.csv","Version27.csv","Version 27","List 27","skin",NA,789,6.16,2399,0.020886724,790,"BOI","-","-","Please name all of the ways you could use this object. Keep in mind that one object can have many uses. Separate your responses with a comma.",NA,"y",34403,NA,NA,7690,32919,NA,NA,NA,"scratch, wash, scrub",1
"w10062326CT","r9ys17ouai","Affordance Norms_USM",1,39,"2023-01-20T17:57:15+00:00",11.599654912949,27,"updated stim.csv","Version27.csv","Version 27","List 27","fondue",NA,794,4.92,1026,0.74868349,795,"BOI","-","-","Please name all of the ways you could use this object. Keep in mind that one object can have many uses. Separate your responses with a comma.",NA,"y",11288,NA,NA,3863,9752,NA,NA,NA,"dip, eat",1
"w10062326CT","r9ys17ouai","Affordance Norms_USM",1,40,"2023-01-20T17:57:43+00:00",28.064366102219,27,"updated stim.csv","Version27.csv","Version 27","List 27","vermicelli",NA,806,5.571428571,2850,0.748756613,807,"BOI","-","-","Please name all of the ways you could use this object. Keep in mind that one object can have many uses. Separate your responses with a comma.",NA,"y",27818,NA,NA,24386,26490,NA,NA,NA,"eat, cook",0.763
"w10068007_TGW","muuwxp9kfo","Affordance Norms_USM",1,11,"2023-01-29T16:00:52+00:00",41.57718706131,44,"updated stim.csv","Version44.csv","Version 44","List 44","pepper",NA,1298,5.875,1921,0.51260415,1299,"BOI","-","-","Please name all of the ways you could use this object. Keep in mind that one object can have many uses. Separate your responses with a comma.",NA,"y",40531,NA,NA,1325,36007,NA,NA,NA,"cooking, fermenting, seasoning, eating, sneezing, experimenting, ",1
"w10068007_TGW","muuwxp9kfo","Affordance Norms_USM",1,12,"2023-01-29T16:01:16+00:00",23.77091884613,44,"updated stim.csv","Version44.csv","Version 44","List 44","racehorse",NA,1292,5.208333333,2118,0.754913971,1293,"BOI","-","-","Please name all of the ways you could use this object. Keep in mind that one object can have many uses. Separate your responses with a comma.",NA,"y",23319,NA,NA,1813,22000,NA,NA,NA,"betting, exercise, sport, hobby, winning money, competing, training ",1
"w10068007_TGW","muuwxp9kfo","Affordance Norms_USM",1,13,"2023-01-29T16:01:55+00:00",39.24182009697,44,"updated stim.csv","Version44.csv","Version 44","List 44","residence",NA,1304,4.333333333,2157,0.416081032,1305,"BOI","-","-","Please name all of the ways you could use this object. Keep in mind that one object can have many uses. Separate your responses with a comma.",NA,"y",38153,NA,NA,1349,34823,NA,NA,NA,"living, place to keep a family, storage for your belongings, safety from elements, ",1
"w10068007_TGW","muuwxp9kfo","Affordance Norms_USM",1,14,"2023-01-29T16:02:36+00:00",41.143040895462,44,"updated stim.csv","Version44.csv","Version 44","List 44","braid",NA,1318,5.64,301,0.361765589,1319,"BOI","-","-","Please name all of the ways you could use this object. Keep in mind that one object can have many uses. Separate your responses with a comma.",NA,"y",39995,NA,NA,5518,37913,NA,NA,NA,"braiding bread, braiding garlic for storage, keeping hair out of your face, preventing knots in your hair, making bracelets/jewelry, ",1
"w10068007_TGW","muuwxp9kfo","Affordance Norms_USM",1,15,"2023-01-29T16:03:24+00:00",48.202159166336,44,"updated stim.csv","Version44.csv","Version 44","List 44","sauna",NA,1295,5.363636364,2251,0.802464898,1296,"BOI","-","-","Please name all of the ways you could use this object. Keep in mind that one object can have many uses. Separate your responses with a comma.",NA,"y",47033,NA,NA,1869,45502,NA,NA,NA,"sweating, detoxing, relaxing, muscle therapy, post-exercise relaxation, mental relaxation, warming yourself ",1
"w10068007_TGW","muuwxp9kfo","Affordance Norms_USM",1,16,"2023-01-29T16:03:59+00:00",35.145595788956,44,"updated stim.csv","Version44.csv","Version 44","List 44","yearbook",NA,1294,5.56,2992,0.3747712,1295,"BOI","-","-","Please name all of the ways you could use this object. Keep in mind that one object can have many uses. Separate your responses with a comma.",NA,"y",34055,NA,NA,9338,33090,NA,NA,NA,"lamp stand, memory holder, signature holder, a weight ",1
"w10068007_TGW","muuwxp9kfo","Affordance Norms_USM",1,17,"2023-01-29T16:04:38+00:00",38.586501121521,44,"updated stim.csv","Version44.csv","Version 44","List 44","footstool",NA,1311,6.304347826,1039,0.950781043,1312,"BOI","-","-","Please name all of the ways you could use this object. Keep in mind that one object can have many uses. Separate your responses with a comma.",NA,"y",37539,NA,NA,2626,37016,NA,NA,NA,"foot prop, a temporary table, a seat for a child, place to relax your feet, prop your foot up if you have an injury ",1
"w10068007_TGW","muuwxp9kfo","Affordance Norms_USM",1,18,"2023-01-29T16:05:28+00:00",49.670234918594,44,"updated stim.csv","Version44.csv","Version 44","List 44","compass",NA,1308,5.538461538,612,0.979445035,1309,"BOI","-","-","Please name all of the ways you could use this object. Keep in mind that one object can have many uses. Separate your responses with a comma.",NA,"y",48608,NA,NA,6938,47620,NA,NA,NA,"navigation, finding home, getting lost, exploring, camping, hiking, surviving, ",1
"w10068007_TGW","muuwxp9kfo","Affordance Norms_USM",1,19,"2023-01-29T16:06:00+00:00",32.6756939888,44,"updated stim.csv","Version44.csv","Version 44","List 44","pillar",NA,1299,5.041666667,1961,0.56170011,1300,"BOI","-","-","Please name all of the ways you could use this object. Keep in mind that one object can have many uses. Separate your responses with a comma.",NA,"y",31777,NA,NA,1808,28324,NA,NA,NA,"support, heighten something, decoration, photo prop, ",1
"w10068007_TGW","muuwxp9kfo","Affordance Norms_USM",1,20,"2023-01-29T16:06:43+00:00",42.30695605278,44,"updated stim.csv","Version44.csv","Version 44","List 44","carpeting",NA,1297,5.115384615,438,0.900071999,1298,"BOI","-","-","Please name all of the ways you could use this object. Keep in mind that one object can have many uses. Separate your responses with a comma.",NA,"y",41216,NA,NA,4897,32710,NA,NA,NA,"home addition, decoration, comfort addition to home, vacuum, warmth, ",1
"w10068007_TGW","muuwxp9kfo","Affordance Norms_USM",1,21,"2023-01-29T16:07:28+00:00",45.355355024338,44,"updated stim.csv","Version44.csv","Version 44","List 44","shortbread",NA,1314,5.416666667,2356,0.792275281,1315,"BOI","-","-","Please name all of the ways you could use this object. Keep in mind that one object can have many uses. Separate your responses with a comma.",NA,"y",44160,NA,NA,2346,42180,NA,NA,NA,"snack, eating, baking, present/gift, connoisseur, sweet-tooth, ice cream ",1
"w10068007_TGW","muuwxp9kfo","Affordance Norms_USM",1,22,"2023-01-29T16:07:52+00:00",23.903599023819,44,"updated stim.csv","Version44.csv","Version 44","List 44","newsman",NA,1310,4.285714286,1759,0.857043945,1311,"BOI","-","-","Please name all of the ways you could use this object. Keep in mind that one object can have many uses. Separate your responses with a comma.",NA,"y",23390,NA,NA,3148,14915,NA,NA,NA,"receiving information, prove/disprove news, ",1
"w10068007_TGW","muuwxp9kfo","Affordance Norms_USM",1,23,"2023-01-29T16:08:30+00:00",38.438822031021,44,"updated stim.csv","Version44.csv","Version 44","List 44","cow",NA,1320,5.434782609,671,0.696277817,1321,"BOI","-","-","Please name all of the ways you could use this object. Keep in mind that one object can have many uses. Separate your responses with a comma.",NA,"y",37369,NA,NA,4225,35069,NA,NA,NA,"milk, cheese, beef, pet, farm, income, lifestyle, raising more cows, ",1
"w10068007_TGW","muuwxp9kfo","Affordance Norms_USM",1,24,"2023-01-29T16:09:07+00:00",36.912717819214,44,"updated stim.csv","Version44.csv","Version 44","List 44","lyre",NA,1317,4.45,1561,0.008434586,1318,"BOI","-","-","Please name all of the ways you could use this object. Keep in mind that one object can have many uses. Separate your responses with a comma.",NA,"y",35847,NA,NA,22499,32243,NA,NA,NA,"music, tune into ancient music, ",1
"w10068007_TGW","muuwxp9kfo","Affordance Norms_USM",1,25,"2023-01-29T16:09:58+00:00",50.793000221252,44,"updated stim.csv","Version44.csv","Version 44","List 44","cabin",NA,1316,4.56,388,0.925507739,1317,"BOI","-","-","Please name all of the ways you could use this object. Keep in mind that one object can have many uses. Separate your responses with a comma.",NA,"y",49666,NA,NA,12377,48467,NA,NA,NA,"camping, vacation, warmth, security, hiking, school camps, horror movies ",1
"w10068007_TGW","muuwxp9kfo","Affordance Norms_USM",1,26,"2023-01-29T16:10:19+00:00",20.572692871094,44,"updated stim.csv","Version44.csv","Version 44","List 44","caviar",NA,1307,4.818181818,468,0.271405967,1308,"BOI","-","-","Please name all of the ways you could use this object. Keep in mind that one object can have many uses. Separate your responses with a comma.",NA,"y",19980,NA,NA,1570,17383,NA,NA,NA,"fancy dining, growing more caviar, garnishing foods",1
