Username,ID,ExperimentName,Session,Trial,Date,TimeDif,Condition.Number,Stimuli.File,Order.File,Condition.Description,Condition.Notes,Stimuli.Cue,Stimuli.Answer,Stimuli.Shuffle,Stimuli.Stimuli.Notes,Stimuli.Value,Stimuli.Rand,Procedure.Item,Procedure.Trial.Type,Procedure.Max.Time,Procedure.Min.Time,Procedure.Text,Procedure.Procedure.Notes,Procedure.Shuffle,Response.RT,Response.Response,Response.Accuracy,Response.RTfirst,Response.RTlast,Response.strictAcc,Response.lenientAcc,Response.focus,Response.JOL,Response.Focus
20296454PJ,gqg8dexw8d,Affordance Norms_MSU_TEX,1,11,2023-05-01T15:40:08+00:00,27.01559305,8,updated stim.csv,Version8.csv,Version 8,List 8,excavator,NA,224,4.409090909,925,0.140617165,225,BOI,-,-,Please name all of the ways you could use this object. Keep in mind that one object can have many uses. Separate your responses with a comma.,NA,y,26757,NA,NA,22748,24898,NA,NA,NA,Construction ,1
20296454PJ,gqg8dexw8d,Affordance Norms_MSU_TEX,1,12,2023-05-01T15:40:11+00:00,2.940503836,8,updated stim.csv,Version8.csv,Version 8,List 8,linoleum,NA,215,4.62962963,1519,0.262823842,216,BOI,-,-,Please name all of the ways you could use this object. Keep in mind that one object can have many uses. Separate your responses with a comma.,NA,y,2772,NA,NA,-1,-1,NA,NA,NA,,1
20296454PJ,gqg8dexw8d,Affordance Norms_MSU_TEX,1,13,2023-05-01T15:40:15+00:00,4.663293123,8,updated stim.csv,Version8.csv,Version 8,List 8,eggplant,NA,225,5.807692308,894,0.26688468,226,BOI,-,-,Please name all of the ways you could use this object. Keep in mind that one object can have many uses. Separate your responses with a comma.,NA,y,4418,NA,NA,2236,3524,NA,NA,NA,Cooking,1
20296454PJ,gqg8dexw8d,Affordance Norms_MSU_TEX,1,14,2023-05-01T15:40:43+00:00,27.38599896,8,updated stim.csv,Version8.csv,Version 8,List 8,shelter,NA,236,5.269230769,2335,0.866817871,237,BOI,-,-,Please name all of the ways you could use this object. Keep in mind that one object can have many uses. Separate your responses with a comma.,NA,y,26926,NA,NA,2838,24207,NA,NA,NA,"Sleeping,reading,class,showering",1
20296454PJ,gqg8dexw8d,Affordance Norms_MSU_TEX,1,15,2023-05-01T15:40:58+00:00,14.71494293,8,updated stim.csv,Version8.csv,Version 8,List 8,stick,NA,228,6.16,2535,0.473992945,229,BOI,-,-,Please name all of the ways you could use this object. Keep in mind that one object can have many uses. Separate your responses with a comma.,NA,y,14006,NA,NA,2549,13085,NA,NA,NA,"Crafts,fetch with dog, digging",1
20296454PJ,gqg8dexw8d,Affordance Norms_MSU_TEX,1,16,2023-05-01T15:41:01+00:00,3.226320982,8,updated stim.csv,Version8.csv,Version 8,List 8,paperback,NA,218,5.090909091,1863,0.914778388,219,BOI,-,-,Please name all of the ways you could use this object. Keep in mind that one object can have many uses. Separate your responses with a comma.,NA,y,3037,NA,NA,-1,-1,NA,NA,NA,,1
20296454PJ,gqg8dexw8d,Affordance Norms_MSU_TEX,1,17,2023-05-01T15:41:12+00:00,10.87928414,8,updated stim.csv,Version8.csv,Version 8,List 8,drug,NA,211,5.375,852,0.400751294,212,BOI,-,-,Please name all of the ways you could use this object. Keep in mind that one object can have many uses. Separate your responses with a comma.,NA,y,9865,NA,NA,3290,7845,NA,NA,NA,Substance abuse,1
20296454PJ,gqg8dexw8d,Affordance Norms_MSU_TEX,1,18,2023-05-01T15:41:14+00:00,2.324870825,8,updated stim.csv,Version8.csv,Version 8,List 8,creek,NA,239,4.52,691,0.967555981,240,BOI,-,-,Please name all of the ways you could use this object. Keep in mind that one object can have many uses. Separate your responses with a comma.,NA,y,2066,NA,NA,-1,-1,NA,NA,NA,,1
20296454PJ,gqg8dexw8d,Affordance Norms_MSU_TEX,1,19,2023-05-01T15:41:31+00:00,17.35152006,8,updated stim.csv,Version8.csv,Version 8,List 8,case,NA,232,4.272727273,445,0.110016369,233,BOI,-,-,Please name all of the ways you could use this object. Keep in mind that one object can have many uses. Separate your responses with a comma.,NA,y,17045,NA,NA,4993,15837,NA,NA,NA,"Used by police, used as briefcase ",1
20296454PJ,gqg8dexw8d,Affordance Norms_MSU_TEX,1,20,2023-05-01T15:41:33+00:00,2.040213108,8,updated stim.csv,Version8.csv,Version 8,List 8,tailcoat,NA,240,5.47826087,2624,0.573904042,241,BOI,-,-,Please name all of the ways you could use this object. Keep in mind that one object can have many uses. Separate your responses with a comma.,NA,y,1872,NA,NA,-1,-1,NA,NA,NA,,1
20296454PJ,gqg8dexw8d,Affordance Norms_MSU_TEX,1,21,2023-05-01T15:41:35+00:00,1.333475828,8,updated stim.csv,Version8.csv,Version 8,List 8,strongbox,NA,223,4.454545455,2571,0.678876617,224,BOI,-,-,Please name all of the ways you could use this object. Keep in mind that one object can have many uses. Separate your responses with a comma.,NA,y,1179,NA,NA,-1,-1,NA,NA,NA,,1
20296454PJ,gqg8dexw8d,Affordance Norms_MSU_TEX,1,22,2023-05-01T15:41:37+00:00,1.914624214,8,updated stim.csv,Version8.csv,Version 8,List 8,matter,NA,235,4.4,1625,0.181387363,236,BOI,-,-,Please name all of the ways you could use this object. Keep in mind that one object can have many uses. Separate your responses with a comma.,NA,y,1775,NA,NA,-1,-1,NA,NA,NA,,1
20296454PJ,gqg8dexw8d,Affordance Norms_MSU_TEX,1,23,2023-05-01T15:41:48+00:00,11.06447887,8,updated stim.csv,Version8.csv,Version 8,List 8,torchlight,NA,219,4.64,2738,0.501435614,220,BOI,-,-,Please name all of the ways you could use this object. Keep in mind that one object can have many uses. Separate your responses with a comma.,NA,y,9751,NA,NA,2122,8957,NA,NA,NA,Used as a light,1
20296454PJ,gqg8dexw8d,Affordance Norms_MSU_TEX,1,24,2023-05-01T15:41:54+00:00,6.270750999,8,updated stim.csv,Version8.csv,Version 8,List 8,motel,NA,221,4.48,1689,0.151002659,222,BOI,-,-,Please name all of the ways you could use this object. Keep in mind that one object can have many uses. Separate your responses with a comma.,NA,y,5912,NA,NA,2557,5074,NA,NA,NA,Sleep,1
20296454PJ,gqg8dexw8d,Affordance Norms_MSU_TEX,1,25,2023-05-01T15:42:00+00:00,6.175478935,8,updated stim.csv,Version8.csv,Version 8,List 8,pantry,NA,216,5.260869565,1860,0.771460967,217,BOI,-,-,Please name all of the ways you could use this object. Keep in mind that one object can have many uses. Separate your responses with a comma.,NA,y,5928,NA,NA,1952,5017,NA,NA,NA,To keep food,1
20296454PJ,gqg8dexw8d,Affordance Norms_MSU_TEX,1,26,2023-05-01T15:42:02+00:00,1.345234156,8,updated stim.csv,Version8.csv,Version 8,List 8,groundsman,NA,222,4.333333333,1183,0.64899298,223,BOI,-,-,Please name all of the ways you could use this object. Keep in mind that one object can have many uses. Separate your responses with a comma.,NA,y,1206,NA,NA,-1,-1,NA,NA,NA,,1
20296454PJ,gqg8dexw8d,Affordance Norms_MSU_TEX,1,27,2023-05-01T15:42:11+00:00,9.320313931,8,updated stim.csv,Version8.csv,Version 8,List 8,plum,NA,238,5.62962963,2010,0.625895758,239,BOI,-,-,Please name all of the ways you could use this object. Keep in mind that one object can have many uses. Separate your responses with a comma.,NA,y,9081,NA,NA,2381,8315,NA,NA,NA,"To eat, make jelly",1
20296454PJ,gqg8dexw8d,Affordance Norms_MSU_TEX,1,28,2023-05-01T15:42:17+00:00,5.91324091,8,updated stim.csv,Version8.csv,Version 8,List 8,roll,NA,212,4.44,2187,0.118404242,213,BOI,-,-,Please name all of the ways you could use this object. Keep in mind that one object can have many uses. Separate your responses with a comma.,NA,y,5670,NA,NA,4013,4476,NA,NA,NA,Eat,1
20296454PJ,gqg8dexw8d,Affordance Norms_MSU_TEX,1,29,2023-05-01T15:42:21+00:00,4.602313995,8,updated stim.csv,Version8.csv,Version 8,List 8,phalanges,NA,226,4.35,1937,0.497580512,227,BOI,-,-,Please name all of the ways you could use this object. Keep in mind that one object can have many uses. Separate your responses with a comma.,NA,y,4363,NA,NA,2554,3193,NA,NA,NA,Everything ,1
20296454PJ,gqg8dexw8d,Affordance Norms_MSU_TEX,1,30,2023-05-01T15:42:28+00:00,6.560789108,8,updated stim.csv,Version8.csv,Version 8,List 8,accordion,NA,227,5.826086957,5,0.076040939,228,BOI,-,-,Please name all of the ways you could use this object. Keep in mind that one object can have many uses. Separate your responses with a comma.,NA,y,6279,NA,NA,2574,5452,NA,NA,NA,Make music,1
20296454PJ,gqg8dexw8d,Affordance Norms_MSU_TEX,1,31,2023-05-01T15:42:32+00:00,4.464655876,8,updated stim.csv,Version8.csv,Version 8,List 8,beef,NA,217,5.714285714,189,0.160382134,218,BOI,-,-,Please name all of the ways you could use this object. Keep in mind that one object can have many uses. Separate your responses with a comma.,NA,y,3815,NA,NA,2574,3035,NA,NA,NA,Eat,1
20296454PJ,gqg8dexw8d,Affordance Norms_MSU_TEX,1,32,2023-05-01T15:42:34+00:00,1.589358091,8,updated stim.csv,Version8.csv,Version 8,List 8,ashcan,NA,237,4.571428571,82,0.707229995,238,BOI,-,-,Please name all of the ways you could use this object. Keep in mind that one object can have many uses. Separate your responses with a comma.,NA,y,1261,NA,NA,-1,-1,NA,NA,NA,,1
20296454PJ,gqg8dexw8d,Affordance Norms_MSU_TEX,1,33,2023-05-01T15:42:39+00:00,4.823729038,8,updated stim.csv,Version8.csv,Version 8,List 8,body,NA,234,6.038461538,260,0.738290174,235,BOI,-,-,Please name all of the ways you could use this object. Keep in mind that one object can have many uses. Separate your responses with a comma.,NA,y,4363,NA,NA,2496,2744,NA,NA,NA,Everything ,1
20296454PJ,gqg8dexw8d,Affordance Norms_MSU_TEX,1,34,2023-05-01T15:42:46+00:00,7.165082932,8,updated stim.csv,Version8.csv,Version 8,List 8,arrow,NA,213,4.92,76,0.32863745,214,BOI,-,-,Please name all of the ways you could use this object. Keep in mind that one object can have many uses. Separate your responses with a comma.,NA,y,6405,NA,NA,2145,5479,NA,NA,NA,To do archery ,1
20296454PJ,gqg8dexw8d,Affordance Norms_MSU_TEX,1,35,2023-05-01T15:43:02+00:00,15.83959794,8,updated stim.csv,Version8.csv,Version 8,List 8,illustrator,NA,229,4.48,1351,0.733873145,230,BOI,-,-,Please name all of the ways you could use this object. Keep in mind that one object can have many uses. Separate your responses with a comma.,NA,y,15046,NA,NA,4119,11561,NA,NA,NA,"Books,drawings in general ",1
20296454PJ,gqg8dexw8d,Affordance Norms_MSU_TEX,1,36,2023-05-01T15:43:05+00:00,2.884334087,8,updated stim.csv,Version8.csv,Version 8,List 8,client,NA,231,4.545454545,558,0.033017559,232,BOI,-,-,Please name all of the ways you could use this object. Keep in mind that one object can have many uses. Separate your responses with a comma.,NA,y,2695,NA,NA,-1,-1,NA,NA,NA,,1
20296454PJ,gqg8dexw8d,Affordance Norms_MSU_TEX,1,37,2023-05-01T15:43:07+00:00,1.969537973,8,updated stim.csv,Version8.csv,Version 8,List 8,seating,NA,214,4.84,2302,0.90340916,215,BOI,-,-,Please name all of the ways you could use this object. Keep in mind that one object can have many uses. Separate your responses with a comma.,NA,y,1817,NA,NA,-1,-1,NA,NA,NA,,1
20296454PJ,gqg8dexw8d,Affordance Norms_MSU_TEX,1,38,2023-05-01T15:43:13+00:00,5.935806036,8,updated stim.csv,Version8.csv,Version 8,List 8,fruit,NA,230,6,1060,0.931705867,231,BOI,-,-,Please name all of the ways you could use this object. Keep in mind that one object can have many uses. Separate your responses with a comma.,NA,y,5698,NA,NA,3905,4394,NA,NA,NA,Eat,1
20296454PJ,gqg8dexw8d,Affordance Norms_MSU_TEX,1,39,2023-05-01T15:43:17+00:00,3.930818081,8,updated stim.csv,Version8.csv,Version 8,List 8,avocado,NA,220,6.24137931,103,0.11835624,221,BOI,-,-,Please name all of the ways you could use this object. Keep in mind that one object can have many uses. Separate your responses with a comma.,NA,y,3775,NA,NA,2581,3040,NA,NA,NA,Eat,1
20296454PJ,gqg8dexw8d,Affordance Norms_MSU_TEX,1,40,2023-05-01T15:43:21+00:00,4.849443913,8,updated stim.csv,Version8.csv,Version 8,List 8,hoe,NA,233,5.545454545,1294,0.814565241,234,BOI,-,-,Please name all of the ways you could use this object. Keep in mind that one object can have many uses. Separate your responses with a comma.,NA,y,4613,NA,NA,2454,3744,NA,NA,NA,Garden,1
20305849,ricdx2i9ts,Affordance Norms_MSU_TEX,1,11,2023-04-13T20:19:17+00:00,22.00739384,48,updated stim.csv,Version48.csv,Version 48,List 48,eggshell,NA,1430,5.791666667,895,0.087416572,1431,BOI,-,-,Please name all of the ways you could use this object. Keep in mind that one object can have many uses. Separate your responses with a comma.,NA,y,21701,NA,NA,2379,6649,NA,NA,NA,throw them away,1
20305849,ricdx2i9ts,Affordance Norms_MSU_TEX,1,12,2023-04-13T20:20:09+00:00,52.38227916,48,updated stim.csv,Version48.csv,Version 48,List 48,morsel,NA,1414,4.833333333,1685,0.02893838,1415,BOI,-,-,Please name all of the ways you could use this object. Keep in mind that one object can have many uses. Separate your responses with a comma.,NA,y,52143,NA,NA,50926,51214,NA,NA,NA,eat,0.828
20305849,ricdx2i9ts,Affordance Norms_MSU_TEX,1,13,2023-04-13T20:25:12+00:00,303.315114,48,updated stim.csv,Version48.csv,Version 48,List 48,condom,NA,1439,6.346153846,622,0.103953581,1440,BOI,-,-,Please name all of the ways you could use this object. Keep in mind that one object can have many uses. Separate your responses with a comma.,NA,y,302984,NA,NA,12242,300802,NA,NA,NA,protection,1
20305849,ricdx2i9ts,Affordance Norms_MSU_TEX,1,14,2023-04-13T20:31:07+00:00,354.143281,48,updated stim.csv,Version48.csv,Version 48,List 48,detergent,NA,1428,5.227272727,782,0.134090484,1429,BOI,-,-,Please name all of the ways you could use this object. Keep in mind that one object can have many uses. Separate your responses with a comma.,NA,y,353808,NA,NA,3514,350965,NA,NA,NA,"wash clothes, buy, sell",1
20305849,ricdx2i9ts,Affordance Norms_MSU_TEX,1,15,2023-04-13T20:31:20+00:00,13.62300992,48,updated stim.csv,Version48.csv,Version 48,List 48,land,NA,1420,5.56,1460,0.035515029,1421,BOI,-,-,Please name all of the ways you could use this object. Keep in mind that one object can have many uses. Separate your responses with a comma.,NA,y,13320,NA,NA,5024,10240,NA,NA,NA,"sell, buy, farm",1
20305849,ricdx2i9ts,Affordance Norms_MSU_TEX,1,16,2023-04-13T20:35:10+00:00,229.3739371,48,updated stim.csv,Version48.csv,Version 48,List 48,bloodhound,NA,1415,4.833333333,242,0.954266813,1416,BOI,-,-,Please name all of the ways you could use this object. Keep in mind that one object can have many uses. Separate your responses with a comma.,NA,y,229065,NA,NA,228042,228395,NA,NA,NA,pet,0.201
20305849,ricdx2i9ts,Affordance Norms_MSU_TEX,1,17,2023-04-13T20:35:20+00:00,10.29041982,48,updated stim.csv,Version48.csv,Version 48,List 48,pencil,NA,1436,5.869565217,1913,0.835877001,1437,BOI,-,-,Please name all of the ways you could use this object. Keep in mind that one object can have many uses. Separate your responses with a comma.,NA,y,9967,NA,NA,1472,8634,NA,NA,NA,"write, sell, buy",1
20305849,ricdx2i9ts,Affordance Norms_MSU_TEX,1,18,2023-04-13T20:36:06+00:00,46.04226303,48,updated stim.csv,Version48.csv,Version 48,List 48,yoga,NA,1438,4.44,2993,0.035434403,1439,BOI,-,-,Please name all of the ways you could use this object. Keep in mind that one object can have many uses. Separate your responses with a comma.,NA,y,45704,NA,NA,2908,31933,NA,NA,NA,"flexibility, Stretch, mobility, balance",0.987
20305849,ricdx2i9ts,Affordance Norms_MSU_TEX,1,19,2023-04-13T20:37:12+00:00,65.950248,48,updated stim.csv,Version48.csv,Version 48,List 48,peppercorn,NA,1412,5.181818182,1922,0.599717574,1413,BOI,-,-,Please name all of the ways you could use this object. Keep in mind that one object can have many uses. Separate your responses with a comma.,NA,y,65632,NA,NA,61997,63931,NA,NA,NA,spice,0.589
20305849,ricdx2i9ts,Affordance Norms_MSU_TEX,1,20,2023-04-13T20:37:40+00:00,27.74566913,48,updated stim.csv,Version48.csv,Version 48,List 48,hut,NA,1422,5.130434783,1341,0.526968441,1423,BOI,-,-,Please name all of the ways you could use this object. Keep in mind that one object can have many uses. Separate your responses with a comma.,NA,y,27394,NA,NA,16878,26654,NA,NA,NA,shade,0.843
20305849,ricdx2i9ts,Affordance Norms_MSU_TEX,1,21,2023-04-13T20:37:42+00:00,2.887470007,48,updated stim.csv,Version48.csv,Version 48,List 48,oat,NA,1427,4.8,1796,0.352517853,1428,BOI,-,-,Please name all of the ways you could use this object. Keep in mind that one object can have many uses. Separate your responses with a comma.,NA,y,2609,NA,NA,1683,1976,NA,NA,NA,eat,1
20305849,ricdx2i9ts,Affordance Norms_MSU_TEX,1,22,2023-04-13T20:38:31+00:00,48.50619984,48,updated stim.csv,Version48.csv,Version 48,List 48,graveyard,NA,1432,4.608695652,1166,0.485713951,1433,BOI,-,-,Please name all of the ways you could use this object. Keep in mind that one object can have many uses. Separate your responses with a comma.,NA,y,48067,NA,NA,2886,47400,NA,NA,NA,bury the dead,0.831
20305849,ricdx2i9ts,Affordance Norms_MSU_TEX,1,23,2023-04-13T20:39:01+00:00,30.29447603,48,updated stim.csv,Version48.csv,Version 48,List 48,talisman,NA,1413,4.708333333,2627,0.005932136,1414,BOI,-,-,Please name all of the ways you could use this object. Keep in mind that one object can have many uses. Separate your responses with a comma.,NA,y,29945,NA,NA,23491,29223,NA,NA,NA,to make jewerly,0.828
20305849,ricdx2i9ts,Affordance Norms_MSU_TEX,1,24,2023-04-13T20:39:10+00:00,8.573712111,48,updated stim.csv,Version48.csv,Version 48,List 48,cuisine,NA,1440,4.652173913,725,0.032570305,1441,BOI,-,-,Please name all of the ways you could use this object. Keep in mind that one object can have many uses. Separate your responses with a comma.,NA,y,8242,NA,NA,7479,7733,NA,NA,NA,eat,1
20305849,ricdx2i9ts,Affordance Norms_MSU_TEX,1,25,2023-04-13T20:39:39+00:00,29.27677393,48,updated stim.csv,Version48.csv,Version 48,List 48,childbirth,NA,1433,4.391304348,521,0.697932722,1434,BOI,-,-,Please name all of the ways you could use this object. Keep in mind that one object can have many uses. Separate your responses with a comma.,NA,y,28945,NA,NA,14159,22290,NA,NA,NA,"celebration, party after party",1
20305849,ricdx2i9ts,Affordance Norms_MSU_TEX,1,26,2023-04-13T20:40:04+00:00,24.60495496,48,updated stim.csv,Version48.csv,Version 48,List 48,primrose,NA,1429,4.368421053,2065,0.199237215,1430,BOI,-,-,Please name all of the ways you could use this object. Keep in mind that one object can have many uses. Separate your responses with a comma.,NA,y,24295,NA,NA,20387,23853,NA,NA,NA,"medicine, flowers",0.831
20305849,ricdx2i9ts,Affordance Norms_MSU_TEX,1,27,2023-04-13T20:42:34+00:00,150.3555291,48,updated stim.csv,Version48.csv,Version 48,List 48,chick,NA,1435,4.47826087,516,0.375770088,1436,BOI,-,-,Please name all of the ways you could use this object. Keep in mind that one object can have many uses. Separate your responses with a comma.,NA,y,150019,NA,NA,19495,149367,NA,NA,NA,pet,0.959
20305849,ricdx2i9ts,Affordance Norms_MSU_TEX,1,28,2023-04-13T20:43:31+00:00,57.41073108,48,updated stim.csv,Version48.csv,Version 48,List 48,peelings,NA,1417,4.652173913,1906,0.398942529,1418,BOI,-,-,Please name all of the ways you could use this object. Keep in mind that one object can have many uses. Separate your responses with a comma.,NA,y,57069,NA,NA,55494,56500,NA,NA,NA,dispose,0.628
20305849,ricdx2i9ts,Affordance Norms_MSU_TEX,1,29,2023-04-13T20:43:58+00:00,26.59980893,48,updated stim.csv,Version48.csv,Version 48,List 48,latex,NA,1431,5.086956522,1470,0.646968808,1432,BOI,-,-,Please name all of the ways you could use this object. Keep in mind that one object can have many uses. Separate your responses with a comma.,NA,y,26316,NA,NA,22561,25775,NA,NA,NA,clothes,0.761
20305849,ricdx2i9ts,Affordance Norms_MSU_TEX,1,30,2023-04-13T20:44:05+00:00,7.34307909,48,updated stim.csv,Version48.csv,Version 48,List 48,newsletter,NA,1437,5.826086957,1758,0.278421308,1438,BOI,-,-,Please name all of the ways you could use this object. Keep in mind that one object can have many uses. Separate your responses with a comma.,NA,y,6991,NA,NA,5782,6252,NA,NA,NA,read,1
20305849,ricdx2i9ts,Affordance Norms_MSU_TEX,1,31,2023-04-13T20:44:37+00:00,32.06294394,48,updated stim.csv,Version48.csv,Version 48,List 48,terrycloth,NA,1411,4.692307692,2669,0.727236998,1412,BOI,-,-,Please name all of the ways you could use this object. Keep in mind that one object can have many uses. Separate your responses with a comma.,NA,y,31824,NA,NA,27211,31164,NA,NA,NA,"towel, robe",0.913
20305849,ricdx2i9ts,Affordance Norms_MSU_TEX,1,32,2023-04-13T20:45:40+00:00,62.03172803,48,updated stim.csv,Version48.csv,Version 48,List 48,bone,NA,1426,5.259259259,267,0.140077408,1427,BOI,-,-,Please name all of the ways you could use this object. Keep in mind that one object can have many uses. Separate your responses with a comma.,NA,y,61737,NA,NA,50517,61071,NA,NA,NA,toss it to your dog,1
20305849,ricdx2i9ts,Affordance Norms_MSU_TEX,1,33,2023-04-13T20:46:22+00:00,42.41586494,48,updated stim.csv,Version48.csv,Version 48,List 48,brass,NA,1418,4.4,305,0.321619527,1419,BOI,-,-,Please name all of the ways you could use this object. Keep in mind that one object can have many uses. Separate your responses with a comma.,NA,y,42109,NA,NA,31872,41608,NA,NA,NA,"instrument, play, carry, sell, buy",0.766
20305849,ricdx2i9ts,Affordance Norms_MSU_TEX,1,34,2023-04-13T20:47:13+00:00,50.89360809,48,updated stim.csv,Version48.csv,Version 48,List 48,earpiece,NA,1424,5.76,878,0.23746492,1425,BOI,-,-,Please name all of the ways you could use this object. Keep in mind that one object can have many uses. Separate your responses with a comma.,NA,y,50563,NA,NA,26633,38487,NA,NA,NA,speak or listen ,0.921
20305849,ricdx2i9ts,Affordance Norms_MSU_TEX,1,35,2023-04-13T20:47:52+00:00,39.22132397,48,updated stim.csv,Version48.csv,Version 48,List 48,tattoo,NA,1423,4.730769231,2637,0.262771603,1424,BOI,-,-,Please name all of the ways you could use this object. Keep in mind that one object can have many uses. Separate your responses with a comma.,NA,y,38328,NA,NA,2509,37445,NA,NA,NA,show family and friends,1
20305849,ricdx2i9ts,Affordance Norms_MSU_TEX,1,36,2023-04-13T20:48:31+00:00,38.7394259,48,updated stim.csv,Version48.csv,Version 48,List 48,neckband,NA,1416,5.217391304,1739,0.026922113,1417,BOI,-,-,Please name all of the ways you could use this object. Keep in mind that one object can have many uses. Separate your responses with a comma.,NA,y,38425,NA,NA,30401,38150,NA,NA,NA,wrap around your neck,0.931
20305849,ricdx2i9ts,Affordance Norms_MSU_TEX,1,37,2023-04-13T20:48:44+00:00,12.84949398,48,updated stim.csv,Version48.csv,Version 48,List 48,acne,NA,1425,4.391304348,7,0.86435638,1426,BOI,-,-,Please name all of the ways you could use this object. Keep in mind that one object can have many uses. Separate your responses with a comma.,NA,y,12495,NA,NA,7396,12160,NA,NA,NA,take care of them,1
20305849,ricdx2i9ts,Affordance Norms_MSU_TEX,1,38,2023-04-13T20:48:48+00:00,4.672382116,48,updated stim.csv,Version48.csv,Version 48,List 48,tape,NA,1421,5.833333333,2632,0.30460712,1422,BOI,-,-,Please name all of the ways you could use this object. Keep in mind that one object can have many uses. Separate your responses with a comma.,NA,y,4447,NA,NA,1521,4326,NA,NA,NA,tape stuff,1
20305849,ricdx2i9ts,Affordance Norms_MSU_TEX,1,39,2023-04-13T20:49:09+00:00,20.78038502,48,updated stim.csv,Version48.csv,Version 48,List 48,pegboard,NA,1434,5.04,1909,0.555933724,1435,BOI,-,-,Please name all of the ways you could use this object. Keep in mind that one object can have many uses. Separate your responses with a comma.,NA,y,20483,NA,NA,17979,20225,NA,NA,NA,wall storage,0.852
20305849,ricdx2i9ts,Affordance Norms_MSU_TEX,1,40,2023-04-13T20:49:16+00:00,7.401120901,48,updated stim.csv,Version48.csv,Version 48,List 48,maize,NA,1419,5.416666667,1579,0.156397365,1420,BOI,-,-,Please name all of the ways you could use this object. Keep in mind that one object can have many uses. Separate your responses with a comma.,NA,y,6661,NA,NA,1659,6204,NA,NA,NA,"eat, plant, sell, buy",1
20307571_IAT,yv4p2gyrl6,Affordance Norms_MSU_TEX,1,11,2023-04-20T22:17:59+00:00,56.92755198,75,updated stim.csv,Version75.csv,Version 75,List 75,primate,NA,2236,4.375,2063,0.094699967,2237,BOI,-,-,Please name all of the ways you could use this object. Keep in mind that one object can have many uses. Separate your responses with a comma.,NA,y,56431,NA,NA,4523,50443,NA,NA,NA,"to prove a point,to demonstrate a lesson, to study, amuse,",1
20307571_IAT,yv4p2gyrl6,Affordance Norms_MSU_TEX,1,12,2023-04-20T22:18:33+00:00,34.34816599,75,updated stim.csv,Version75.csv,Version 75,List 75,quiche,NA,2233,5.727272727,2114,0.975786423,2234,BOI,-,-,Please name all of the ways you could use this object. Keep in mind that one object can have many uses. Separate your responses with a comma.,NA,y,34004,NA,NA,26674,32830,NA,NA,NA,"eat,give",1
20307571_IAT,yv4p2gyrl6,Affordance Norms_MSU_TEX,1,13,2023-04-20T22:19:11+00:00,38.04703689,75,updated stim.csv,Version75.csv,Version 75,List 75,vehicle,NA,2239,6.173913043,2843,0.233798134,2240,BOI,-,-,Please name all of the ways you could use this object. Keep in mind that one object can have many uses. Separate your responses with a comma.,NA,y,37521,NA,NA,1994,35410,NA,NA,NA,"drive,take somewhere,pickup,drop off someone,fix,pull something",1
20307571_IAT,yv4p2gyrl6,Affordance Norms_MSU_TEX,1,14,2023-04-20T22:19:34+00:00,22.59210205,75,updated stim.csv,Version75.csv,Version 75,List 75,lice,NA,2229,5,1500,0.826783221,2230,BOI,-,-,Please name all of the ways you could use this object. Keep in mind that one object can have many uses. Separate your responses with a comma.,NA,y,22271,NA,NA,8655,21113,NA,NA,NA,"reminder to be clean,wash",1
20307571_IAT,yv4p2gyrl6,Affordance Norms_MSU_TEX,1,15,2023-04-20T22:20:06+00:00,32.398669,75,updated stim.csv,Version75.csv,Version 75,List 75,lavatory,NA,2249,5.620689655,1473,0.949063759,2250,BOI,-,-,Please name all of the ways you could use this object. Keep in mind that one object can have many uses. Separate your responses with a comma.,NA,y,32080,NA,NA,28498,30880,NA,NA,NA,wash,1
20307571_IAT,yv4p2gyrl6,Affordance Norms_MSU_TEX,1,16,2023-04-20T22:20:25+00:00,18.16729403,75,updated stim.csv,Version75.csv,Version 75,List 75,moth,NA,2225,4.84,1690,0.901252834,2226,BOI,-,-,Please name all of the ways you could use this object. Keep in mind that one object can have many uses. Separate your responses with a comma.,NA,y,17838,NA,NA,3759,11710,NA,NA,NA,"fly,annoy,",1
20307571_IAT,yv4p2gyrl6,Affordance Norms_MSU_TEX,1,17,2023-04-20T22:21:12+00:00,47.33061695,75,updated stim.csv,Version75.csv,Version 75,List 75,denim,NA,2238,5.416666667,773,0.706684559,2239,BOI,-,-,Please name all of the ways you could use this object. Keep in mind that one object can have many uses. Separate your responses with a comma.,NA,y,46987,NA,NA,3633,44807,NA,NA,NA,"clothes,protection,fabric",1
20307571_IAT,yv4p2gyrl6,Affordance Norms_MSU_TEX,1,18,2023-04-20T22:21:45+00:00,33.12949896,75,updated stim.csv,Version75.csv,Version 75,List 75,laundry,NA,2221,6.208333333,1472,0.508175593,2222,BOI,-,-,Please name all of the ways you could use this object. Keep in mind that one object can have many uses. Separate your responses with a comma.,NA,y,32599,NA,NA,16915,31451,NA,NA,NA,"clean,to test a washer and dryer",1
20307571_IAT,yv4p2gyrl6,Affordance Norms_MSU_TEX,1,19,2023-04-20T22:22:58+00:00,72.468817,75,updated stim.csv,Version75.csv,Version 75,List 75,doornail,NA,2244,5.4,827,0.764994998,2245,BOI,-,-,Please name all of the ways you could use this object. Keep in mind that one object can have many uses. Separate your responses with a comma.,NA,y,72093,NA,NA,31061,57533,NA,NA,NA,"decorate,strengthen,",1
20307571_IAT,yv4p2gyrl6,Affordance Norms_MSU_TEX,1,20,2023-04-20T22:23:12+00:00,14.31426215,75,updated stim.csv,Version75.csv,Version 75,List 75,kindle,NA,2243,4.4,1420,0.105302612,2244,BOI,-,-,Please name all of the ways you could use this object. Keep in mind that one object can have many uses. Separate your responses with a comma.,NA,y,13957,NA,NA,3975,9564,NA,NA,NA,"make a fire,read a book,",1
20307571_IAT,yv4p2gyrl6,Affordance Norms_MSU_TEX,1,21,2023-04-20T22:24:01+00:00,48.66531491,75,updated stim.csv,Version75.csv,Version 75,List 75,shinbone,NA,2222,4.826086957,2340,0.671887172,2223,BOI,-,-,Please name all of the ways you could use this object. Keep in mind that one object can have many uses. Separate your responses with a comma.,NA,y,48327,NA,NA,22520,42111,NA,NA,NA,"connect a ankle and knee,hold the body,makes others tall",1
20307571_IAT,yv4p2gyrl6,Affordance Norms_MSU_TEX,1,22,2023-04-20T22:24:36+00:00,35.50326395,75,updated stim.csv,Version75.csv,Version 75,List 75,shotgun,NA,2234,5.826086957,2361,0.617642645,2235,BOI,-,-,Please name all of the ways you could use this object. Keep in mind that one object can have many uses. Separate your responses with a comma.,NA,y,35148,NA,NA,2451,27270,NA,NA,NA,"shoot,protects,threatens,takes life,hunt,scare,",1
20307571_IAT,yv4p2gyrl6,Affordance Norms_MSU_TEX,1,23,2023-04-20T22:25:13+00:00,36.83374,75,updated stim.csv,Version75.csv,Version 75,List 75,anchor,NA,2232,5.739130435,39,0.311526843,2233,BOI,-,-,Please name all of the ways you could use this object. Keep in mind that one object can have many uses. Separate your responses with a comma.,NA,y,36490,NA,NA,1955,10602,NA,NA,NA,"holds something down,",1
20307571_IAT,yv4p2gyrl6,Affordance Norms_MSU_TEX,1,24,2023-04-20T22:25:45+00:00,31.65918303,75,updated stim.csv,Version75.csv,Version 75,List 75,metalworker,NA,2230,4.8,1651,0.049536944,2231,BOI,-,-,Please name all of the ways you could use this object. Keep in mind that one object can have many uses. Separate your responses with a comma.,NA,y,31270,NA,NA,7346,30041,NA,NA,NA,"work,bend metal,shape metal,makes things",1
20307571_IAT,yv4p2gyrl6,Affordance Norms_MSU_TEX,1,25,2023-04-20T22:26:09+00:00,24.9196229,75,updated stim.csv,Version75.csv,Version 75,List 75,washboard,NA,2250,5.208333333,2896,0.808890696,2251,BOI,-,-,Please name all of the ways you could use this object. Keep in mind that one object can have many uses. Separate your responses with a comma.,NA,y,24573,NA,NA,12284,22476,NA,NA,NA,"wash,clean",1
20307571_IAT,yv4p2gyrl6,Affordance Norms_MSU_TEX,1,26,2023-04-20T22:26:33+00:00,23.17448711,75,updated stim.csv,Version75.csv,Version 75,List 75,whisk,NA,2247,6,2927,0.826381818,2248,BOI,-,-,Please name all of the ways you could use this object. Keep in mind that one object can have many uses. Separate your responses with a comma.,NA,y,22810,NA,NA,2984,20974,NA,NA,NA,"to mix,clean,clean",1
20307571_IAT,yv4p2gyrl6,Affordance Norms_MSU_TEX,1,27,2023-04-20T22:26:58+00:00,24.9530859,75,updated stim.csv,Version75.csv,Version 75,List 75,motorbike,NA,2223,6.347826087,1694,0.109641369,2224,BOI,-,-,Please name all of the ways you could use this object. Keep in mind that one object can have many uses. Separate your responses with a comma.,NA,y,24626,NA,NA,2709,22249,NA,NA,NA,"drives,sells motorcycle helmets,travels,",1
20307571_IAT,yv4p2gyrl6,Affordance Norms_MSU_TEX,1,28,2023-04-20T22:27:19+00:00,21.53862906,75,updated stim.csv,Version75.csv,Version 75,List 75,pottery,NA,2241,5.458333333,2050,0.992907528,2242,BOI,-,-,Please name all of the ways you could use this object. Keep in mind that one object can have many uses. Separate your responses with a comma.,NA,y,21200,NA,NA,2460,18043,NA,NA,NA,"holds items,decorates a room,hobby,",1
20307571_IAT,yv4p2gyrl6,Affordance Norms_MSU_TEX,1,29,2023-04-20T22:27:38+00:00,18.82711506,75,updated stim.csv,Version75.csv,Version 75,List 75,fudge,NA,2224,5.68,1063,0.411338697,2225,BOI,-,-,Please name all of the ways you could use this object. Keep in mind that one object can have many uses. Separate your responses with a comma.,NA,y,18454,NA,NA,2093,17282,NA,NA,NA,"eat,adds flavor,topping",1
20307571_IAT,yv4p2gyrl6,Affordance Norms_MSU_TEX,1,30,2023-04-20T22:28:29+00:00,50.98146701,75,updated stim.csv,Version75.csv,Version 75,List 75,ingredients,NA,2227,4.958333333,1355,0.538356536,2228,BOI,-,-,Please name all of the ways you could use this object. Keep in mind that one object can have many uses. Separate your responses with a comma.,NA,y,50642,NA,NA,8349,37935,NA,NA,NA,"make food,list in a cookbook,to occupy a fridge,",1
20307571_IAT,yv4p2gyrl6,Affordance Norms_MSU_TEX,1,31,2023-04-20T22:29:14+00:00,45.54082489,75,updated stim.csv,Version75.csv,Version 75,List 75,cheddar,NA,2246,5.291666667,502,0.021707365,2247,BOI,-,-,Please name all of the ways you could use this object. Keep in mind that one object can have many uses. Separate your responses with a comma.,NA,y,45199,NA,NA,24409,44768,NA,NA,NA,"eat,add as topping,throw,sell",1
20307571_IAT,yv4p2gyrl6,Affordance Norms_MSU_TEX,1,32,2023-04-20T22:30:07+00:00,52.56192112,75,updated stim.csv,Version75.csv,Version 75,List 75,wig,NA,2242,5.913043478,2935,0.377618938,2243,BOI,-,-,Please name all of the ways you could use this object. Keep in mind that one object can have many uses. Separate your responses with a comma.,NA,y,52199,NA,NA,2809,50565,NA,NA,NA,"appear to have hair,makes actors have different hair,serves in a costume,wear for fun,drag",1
20307571_IAT,yv4p2gyrl6,Affordance Norms_MSU_TEX,1,33,2023-04-20T22:30:57+00:00,49.59267187,75,updated stim.csv,Version75.csv,Version 75,List 75,substance,NA,2240,4.47826087,2576,0.307850292,2241,BOI,-,-,Please name all of the ways you could use this object. Keep in mind that one object can have many uses. Separate your responses with a comma.,NA,y,49214,NA,NA,9010,47026,NA,NA,NA,"to say a thing lacks substance,to be a descriptor,to eat,to throw,jump over,go around,",1
20307571_IAT,yv4p2gyrl6,Affordance Norms_MSU_TEX,1,34,2023-04-20T22:32:10+00:00,73.60523105,75,updated stim.csv,Version75.csv,Version 75,List 75,mousetrap,NA,2226,4.916666667,1702,0.936232758,2227,BOI,-,-,Please name all of the ways you could use this object. Keep in mind that one object can have many uses. Separate your responses with a comma.,NA,y,73251,NA,NA,2042,72210,NA,NA,NA,"catch mice,makes other believe their safe from mice,buy,sell,throw away",1
20307571_IAT,yv4p2gyrl6,Affordance Norms_MSU_TEX,1,35,2023-04-20T22:32:57+00:00,46.65709901,75,updated stim.csv,Version75.csv,Version 75,List 75,housefly,NA,2245,4.541666667,1330,0.698066411,2246,BOI,-,-,Please name all of the ways you could use this object. Keep in mind that one object can have many uses. Separate your responses with a comma.,NA,y,46247,NA,NA,20848,45450,NA,NA,NA,"feeds a spider,infect others,annoy",1
20307571_IAT,yv4p2gyrl6,Affordance Norms_MSU_TEX,1,36,2023-04-20T22:34:52+00:00,114.9485331,75,updated stim.csv,Version75.csv,Version 75,List 75,model,NA,2235,5.086956522,1674,0.968299986,2236,BOI,-,-,Please name all of the ways you could use this object. Keep in mind that one object can have many uses. Separate your responses with a comma.,NA,y,113501,NA,NA,10691,39486,NA,NA,NA,"to show,admire,reference,",1
20307571_IAT,yv4p2gyrl6,Affordance Norms_MSU_TEX,1,37,2023-04-20T22:36:28+00:00,96.43057299,75,updated stim.csv,Version75.csv,Version 75,List 75,veterinarian,NA,2231,5.074074074,2854,0.887513868,2232,BOI,-,-,Please name all of the ways you could use this object. Keep in mind that one object can have many uses. Separate your responses with a comma.,NA,y,96072,NA,NA,5712,93890,NA,NA,NA,"provide care to animals,degree path,become a docter,meet animals",1
20307571_IAT,yv4p2gyrl6,Affordance Norms_MSU_TEX,1,38,2023-04-20T22:36:53+00:00,25.08127403,75,updated stim.csv,Version75.csv,Version 75,List 75,rattle,NA,2248,4.409090909,2140,0.861575847,2249,BOI,-,-,Please name all of the ways you could use this object. Keep in mind that one object can have many uses. Separate your responses with a comma.,NA,y,24100,NA,NA,11441,21227,NA,NA,NA,"entertain,make noise,throw",1
20307571_IAT,yv4p2gyrl6,Affordance Norms_MSU_TEX,1,39,2023-04-20T22:37:09+00:00,16.14758992,75,updated stim.csv,Version75.csv,Version 75,List 75,waxwork,NA,2228,4.3,2913,0.473545104,2229,BOI,-,-,Please name all of the ways you could use this object. Keep in mind that one object can have many uses. Separate your responses with a comma.,NA,y,15799,NA,NA,3825,15124,NA,NA,NA,"make candles,provide jobs",1
20307571_IAT,yv4p2gyrl6,Affordance Norms_MSU_TEX,1,40,2023-04-20T22:38:35+00:00,85.2428391,75,updated stim.csv,Version75.csv,Version 75,List 75,cookhouse,NA,2237,4.423076923,632,0.061901317,2238,BOI,-,-,Please name all of the ways you could use this object. Keep in mind that one object can have many uses. Separate your responses with a comma.,NA,y,84876,NA,NA,69250,82913,NA,NA,NA,"make food,prepare food,provide a job",1
20309923eh,d20rsawpxh,Affordance Norms_MSU_TEX,1,11,2023-04-13T15:07:26+00:00,64.85604906,43,updated stim.csv,Version43.csv,Version 43,List 43,bin,NA,1286,5.260869565,217,0.870696725,1287,BOI,-,-,Please name all of the ways you could use this object. Keep in mind that one object can have many uses. Separate your responses with a comma.,NA,y,63884,NA,NA,-1,-1,NA,NA,NA,"Food,paper,cans,objects ",1
20309923eh,d20rsawpxh,Affordance Norms_MSU_TEX,1,12,2023-04-13T15:09:06+00:00,99.63585687,43,updated stim.csv,Version43.csv,Version 43,List 43,gauze,NA,1269,5.88,1088,0.356160349,1270,BOI,-,-,Please name all of the ways you could use this object. Keep in mind that one object can have many uses. Separate your responses with a comma.,NA,y,98507,NA,NA,-1,-1,NA,NA,NA,"Medical supplies, healing wounds,cleaning, band-aid, stopping wounds or blood",1
20309923eh,d20rsawpxh,Affordance Norms_MSU_TEX,1,13,2023-04-13T15:10:18+00:00,71.96664906,43,updated stim.csv,Version43.csv,Version 43,List 43,bunkhouse,NA,1273,4.625,361,0.150316653,1274,BOI,-,-,Please name all of the ways you could use this object. Keep in mind that one object can have many uses. Separate your responses with a comma.,NA,y,71176,NA,NA,-1,-1,NA,NA,NA,"Shelter, safety, playhouse,underground ",1
20309923eh,d20rsawpxh,Affordance Norms_MSU_TEX,1,14,2023-04-13T15:11:36+00:00,77.94576788,43,updated stim.csv,Version43.csv,Version 43,List 43,boulder,NA,1266,4.958333333,288,0.526217593,1267,BOI,-,-,Please name all of the ways you could use this object. Keep in mind that one object can have many uses. Separate your responses with a comma.,NA,y,77190,NA,NA,-1,-1,NA,NA,NA,"Block passages,climb, break",1
20309923eh,d20rsawpxh,Affordance Norms_MSU_TEX,1,15,2023-04-13T15:12:42+00:00,65.90062213,43,updated stim.csv,Version43.csv,Version 43,List 43,daughter,NA,1288,5.192307692,760,0.322395969,1289,BOI,-,-,Please name all of the ways you could use this object. Keep in mind that one object can have many uses. Separate your responses with a comma.,NA,y,65108,NA,NA,-1,-1,NA,NA,NA,"Learn,teach,love,grow,talk,see,walk,",1
20309923eh,d20rsawpxh,Affordance Norms_MSU_TEX,1,16,2023-04-13T15:14:29+00:00,107.7184811,43,updated stim.csv,Version43.csv,Version 43,List 43,marijuana,NA,1284,6.04,1606,0.534165831,1285,BOI,-,-,Please name all of the ways you could use this object. Keep in mind that one object can have many uses. Separate your responses with a comma.,NA,y,106886,NA,NA,-1,-1,NA,NA,NA,"Grow,smoke,income,bill,enjoy,talk,disease ",1
20309923eh,d20rsawpxh,Affordance Norms_MSU_TEX,1,17,2023-04-13T15:15:08+00:00,38.10090399,43,updated stim.csv,Version43.csv,Version 43,List 43,puke,NA,1290,4.5,2091,0.75108716,1291,BOI,-,-,Please name all of the ways you could use this object. Keep in mind that one object can have many uses. Separate your responses with a comma.,NA,y,37274,NA,NA,-1,-1,NA,NA,NA,"To feel better, to get unwanted waste out",1
20309923eh,d20rsawpxh,Affordance Norms_MSU_TEX,1,18,2023-04-13T15:15:47+00:00,39.18827486,43,updated stim.csv,Version43.csv,Version 43,List 43,penny,NA,1275,6.448275862,1917,0.648794196,1276,BOI,-,-,Please name all of the ways you could use this object. Keep in mind that one object can have many uses. Separate your responses with a comma.,NA,y,38555,NA,NA,-1,-1,NA,NA,NA,"To spend,to melt,to collect, look",1
20309923eh,d20rsawpxh,Affordance Norms_MSU_TEX,1,19,2023-04-13T15:16:35+00:00,48.66759014,43,updated stim.csv,Version43.csv,Version 43,List 43,ledge,NA,1267,4.541666667,1482,0.57068333,1268,BOI,-,-,Please name all of the ways you could use this object. Keep in mind that one object can have many uses. Separate your responses with a comma.,NA,y,47944,NA,NA,-1,-1,NA,NA,NA,"To hold things up,to walk,to stand things up",1
20309923eh,d20rsawpxh,Affordance Norms_MSU_TEX,1,20,2023-04-13T15:17:19+00:00,43.42230988,43,updated stim.csv,Version43.csv,Version 43,List 43,footbath,NA,1276,5.090909091,1032,0.607424384,1277,BOI,-,-,Please name all of the ways you could use this object. Keep in mind that one object can have many uses. Separate your responses with a comma.,NA,y,42872,NA,NA,-1,-1,NA,NA,NA,"Soaking feet,body,",1
20309923eh,d20rsawpxh,Affordance Norms_MSU_TEX,1,21,2023-04-13T15:17:46+00:00,27.64328003,43,updated stim.csv,Version43.csv,Version 43,List 43,fountainhead,NA,1272,4.523809524,1051,0.042277006,1273,BOI,-,-,Please name all of the ways you could use this object. Keep in mind that one object can have many uses. Separate your responses with a comma.,NA,y,26802,NA,NA,-1,-1,NA,NA,NA,To have water out,1
20309923eh,d20rsawpxh,Affordance Norms_MSU_TEX,1,22,2023-04-13T15:18:57+00:00,70.44347692,43,updated stim.csv,Version43.csv,Version 43,List 43,path,NA,1261,4.37037037,1887,0.190571516,1262,BOI,-,-,Please name all of the ways you could use this object. Keep in mind that one object can have many uses. Separate your responses with a comma.,NA,y,69726,NA,NA,-1,-1,NA,NA,NA,"To follow, to draw away out something, to make something normal for self or others,a place ",1
20309923eh,d20rsawpxh,Affordance Norms_MSU_TEX,1,23,2023-04-13T15:19:43+00:00,45.70461011,43,updated stim.csv,Version43.csv,Version 43,List 43,axe,NA,1281,6.153846154,106,0.597802636,1282,BOI,-,-,Please name all of the ways you could use this object. Keep in mind that one object can have many uses. Separate your responses with a comma.,NA,y,44819,NA,NA,-1,-1,NA,NA,NA,"To cut,to chop,weapon,accessories ",1
20309923eh,d20rsawpxh,Affordance Norms_MSU_TEX,1,24,2023-04-13T15:20:27+00:00,44.51031995,43,updated stim.csv,Version43.csv,Version 43,List 43,prosthesis,NA,1282,4.689655172,2079,0.466438186,1283,BOI,-,-,Please name all of the ways you could use this object. Keep in mind that one object can have many uses. Separate your responses with a comma.,NA,y,43793,NA,NA,-1,-1,NA,NA,NA,"Walk,touch,build",1
20309923eh,d20rsawpxh,Affordance Norms_MSU_TEX,1,25,2023-04-13T15:21:24+00:00,56.93111801,43,updated stim.csv,Version43.csv,Version 43,List 43,granny,NA,1265,5.083333333,1155,0.302646535,1266,BOI,-,-,Please name all of the ways you could use this object. Keep in mind that one object can have many uses. Separate your responses with a comma.,NA,y,56159,NA,NA,-1,-1,NA,NA,NA,"To learn,love,respect,watch ",1
20309923eh,d20rsawpxh,Affordance Norms_MSU_TEX,1,26,2023-04-13T15:22:27+00:00,62.65558004,43,updated stim.csv,Version43.csv,Version 43,List 43,bangle,NA,1289,5.115384615,139,0.811649319,1290,BOI,-,-,Please name all of the ways you could use this object. Keep in mind that one object can have many uses. Separate your responses with a comma.,NA,y,62069,NA,NA,-1,-1,NA,NA,NA,"Objects, accessories, music",1
20309923eh,d20rsawpxh,Affordance Norms_MSU_TEX,1,27,2023-04-13T15:23:26+00:00,59.72602296,43,updated stim.csv,Version43.csv,Version 43,List 43,suspenders,NA,1274,5.24,2599,0.91701663,1275,BOI,-,-,Please name all of the ways you could use this object. Keep in mind that one object can have many uses. Separate your responses with a comma.,NA,y,58900,NA,NA,-1,-1,NA,NA,NA,"To help keep pants up,accessories, style, ",1
20309923eh,d20rsawpxh,Affordance Norms_MSU_TEX,1,28,2023-04-13T15:24:11+00:00,44.73094416,43,updated stim.csv,Version43.csv,Version 43,List 43,sink,NA,1287,5.48,2385,0.652927038,1288,BOI,-,-,Please name all of the ways you could use this object. Keep in mind that one object can have many uses. Separate your responses with a comma.,NA,y,43894,NA,NA,-1,-1,NA,NA,NA,"Wash,clean,build,keep water in",1
20309923eh,d20rsawpxh,Affordance Norms_MSU_TEX,1,29,2023-04-13T15:25:12+00:00,60.52544594,43,updated stim.csv,Version43.csv,Version 43,List 43,waiter,NA,1278,4.48,2883,0.08047878,1279,BOI,-,-,Please name all of the ways you could use this object. Keep in mind that one object can have many uses. Separate your responses with a comma.,NA,y,59797,NA,NA,-1,-1,NA,NA,NA,"Ordering food,to receive food, to ask for help,to ask for others,to ask for more",1
20309923eh,d20rsawpxh,Affordance Norms_MSU_TEX,1,30,2023-04-13T15:25:57+00:00,45.562644,43,updated stim.csv,Version43.csv,Version 43,List 43,holster,NA,1279,4.68,1298,0.918745461,1280,BOI,-,-,Please name all of the ways you could use this object. Keep in mind that one object can have many uses. Separate your responses with a comma.,NA,y,44558,NA,NA,-1,-1,NA,NA,NA,"To hold objects, a sleeve",1
20309923eh,d20rsawpxh,Affordance Norms_MSU_TEX,1,31,2023-04-13T15:26:48+00:00,50.58278894,43,updated stim.csv,Version43.csv,Version 43,List 43,chrysanthemum,NA,1262,5.727272727,540,0.932801817,1263,BOI,-,-,Please name all of the ways you could use this object. Keep in mind that one object can have many uses. Separate your responses with a comma.,NA,y,49153,NA,NA,-1,-1,NA,NA,NA,"An flower, an substances, a frost to help or not",1
20309923eh,d20rsawpxh,Affordance Norms_MSU_TEX,1,32,2023-04-13T15:27:27+00:00,38.76540303,43,updated stim.csv,Version43.csv,Version 43,List 43,motorist,NA,1270,5.12,1698,0.119048278,1271,BOI,-,-,Please name all of the ways you could use this object. Keep in mind that one object can have many uses. Separate your responses with a comma.,NA,y,38375,NA,NA,-1,-1,NA,NA,NA,"To drive,to help,to get to an location ",1
20309923eh,d20rsawpxh,Affordance Norms_MSU_TEX,1,33,2023-04-13T15:28:16+00:00,49.70754385,43,updated stim.csv,Version43.csv,Version 43,List 43,crowbar,NA,1268,6.25,710,0.320697676,1269,BOI,-,-,Please name all of the ways you could use this object. Keep in mind that one object can have many uses. Separate your responses with a comma.,NA,y,48779,NA,NA,-1,-1,NA,NA,NA,"To open something, to help change an tire,to break something,to hurt someone ",1
20309923eh,d20rsawpxh,Affordance Norms_MSU_TEX,1,34,2023-04-13T15:29:03+00:00,46.35729408,43,updated stim.csv,Version43.csv,Version 43,List 43,environment,NA,1277,4.52173913,914,0.141432151,1278,BOI,-,-,Please name all of the ways you could use this object. Keep in mind that one object can have many uses. Separate your responses with a comma.,NA,y,45751,NA,NA,-1,-1,NA,NA,NA,"To explore, who is around, what u might only know,what is the world",1
20309923eh,d20rsawpxh,Affordance Norms_MSU_TEX,1,35,2023-04-13T15:30:20+00:00,77.2409451,43,updated stim.csv,Version43.csv,Version 43,List 43,doorbell,NA,1263,5.916666667,822,0.572561776,1264,BOI,-,-,Please name all of the ways you could use this object. Keep in mind that one object can have many uses. Separate your responses with a comma.,NA,y,76382,NA,NA,-1,-1,NA,NA,NA,"To request someone at a door,something to see,something at a house,or etc. To say your here",1
20309923eh,d20rsawpxh,Affordance Norms_MSU_TEX,1,36,2023-04-13T15:30:51+00:00,31.08510303,43,updated stim.csv,Version43.csv,Version 43,List 43,vaginal,NA,1271,4.36,2833,0.908960324,1272,BOI,-,-,Please name all of the ways you could use this object. Keep in mind that one object can have many uses. Separate your responses with a comma.,NA,y,30618,NA,NA,-1,-1,NA,NA,NA,A part of a woman's body,1
20309923eh,d20rsawpxh,Affordance Norms_MSU_TEX,1,37,2023-04-13T15:31:36+00:00,44.78838587,43,updated stim.csv,Version43.csv,Version 43,List 43,minister,NA,1280,4.84,1663,0.907840374,1281,BOI,-,-,Please name all of the ways you could use this object. Keep in mind that one object can have many uses. Separate your responses with a comma.,NA,y,44030,NA,NA,-1,-1,NA,NA,NA,"A church,teacher,a person to pray with,talk with ",1
20309923eh,d20rsawpxh,Affordance Norms_MSU_TEX,1,38,2023-04-13T15:32:45+00:00,69.53559113,43,updated stim.csv,Version43.csv,Version 43,List 43,sling,NA,1285,4.909090909,2413,0.891759813,1286,BOI,-,-,Please name all of the ways you could use this object. Keep in mind that one object can have many uses. Separate your responses with a comma.,NA,y,68914,NA,NA,-1,-1,NA,NA,NA,"To throw things with,to dral items, to talk",1
20309923eh,d20rsawpxh,Affordance Norms_MSU_TEX,1,39,2023-04-13T15:34:24+00:00,98.39317083,43,updated stim.csv,Version43.csv,Version 43,List 43,maid,NA,1283,4.458333333,1574,0.648437975,1284,BOI,-,-,Please name all of the ways you could use this object. Keep in mind that one object can have many uses. Separate your responses with a comma.,NA,y,97632,NA,NA,-1,-1,NA,NA,NA,"To have clean 4 you,to help tou",1
20309923eh,d20rsawpxh,Affordance Norms_MSU_TEX,1,40,2023-04-13T15:36:03+00:00,98.92088008,43,updated stim.csv,Version43.csv,Version 43,List 43,bathroom,NA,1264,6,169,0.101941443,1265,BOI,-,-,Please name all of the ways you could use this object. Keep in mind that one object can have many uses. Separate your responses with a comma.,NA,y,98343,NA,NA,-1,-1,NA,NA,NA,"A cleaning place for body,a quiet place",1
M20186074BLM,r6svz4t0rw,Affordance Norms_MSU_TEX,1,11,2023-04-25T03:41:47+00:00,30.37370992,94,updated stim.csv,Version94.csv,Version 94,List 94,cafe,NA,2814,4.772727273,396,0.016959145,2815,BOI,-,-,Please name all of the ways you could use this object. Keep in mind that one object can have many uses. Separate your responses with a comma.,NA,y,30167,NA,NA,4774,22684,NA,NA,NA,"eat, dine, drink",1
M20186074BLM,r6svz4t0rw,Affordance Norms_MSU_TEX,1,12,2023-04-25T03:42:36+00:00,48.73003411,94,updated stim.csv,Version94.csv,Version 94,List 94,catnip,NA,2804,4.52,461,0.804980444,2805,BOI,-,-,Please name all of the ways you could use this object. Keep in mind that one object can have many uses. Separate your responses with a comma.,NA,y,48577,NA,NA,1968,47958,NA,NA,NA,"cats eat, cats love the smell, treat for cat",1
M20186074BLM,r6svz4t0rw,Affordance Norms_MSU_TEX,1,13,2023-04-25T03:42:52+00:00,16.26698399,94,updated stim.csv,Version94.csv,Version 94,List 94,bassinet,NA,2808,5.375,165,0.942939522,2809,BOI,-,-,Please name all of the ways you could use this object. Keep in mind that one object can have many uses. Separate your responses with a comma.,NA,y,16096,NA,NA,2023,15167,NA,NA,NA,"hang, swing, relax, wrap",1
M20186074BLM,r6svz4t0rw,Affordance Norms_MSU_TEX,1,14,2023-04-25T03:43:23+00:00,30.66188312,94,updated stim.csv,Version94.csv,Version 94,List 94,booze,NA,2800,5.84,285,0.455584343,2801,BOI,-,-,Please name all of the ways you could use this object. Keep in mind that one object can have many uses. Separate your responses with a comma.,NA,y,30495,NA,NA,2130,26770,NA,NA,NA,"drink, get drunk, dizzy, have fun",1
M20186074BLM,r6svz4t0rw,Affordance Norms_MSU_TEX,1,15,2023-04-25T03:43:57+00:00,34.82391381,94,updated stim.csv,Version94.csv,Version 94,List 94,aircraft,NA,2801,4.925925926,19,0.385530787,2802,BOI,-,-,Please name all of the ways you could use this object. Keep in mind that one object can have many uses. Separate your responses with a comma.,NA,y,34660,NA,NA,4503,33353,NA,NA,NA,"fly, travel, see the world, visit people ",1
M20186074BLM,r6svz4t0rw,Affordance Norms_MSU_TEX,1,16,2023-04-25T03:45:19+00:00,81.89923406,94,updated stim.csv,Version94.csv,Version 94,List 94,sheet,NA,2793,5.708333333,2331,0.953838586,2794,BOI,-,-,Please name all of the ways you could use this object. Keep in mind that one object can have many uses. Separate your responses with a comma.,NA,y,81739,NA,NA,3648,78437,NA,NA,NA,"bed, sleeping, staying warm",1
M20186074BLM,r6svz4t0rw,Affordance Norms_MSU_TEX,1,17,2023-04-25T03:45:41+00:00,21.87764192,94,updated stim.csv,Version94.csv,Version 94,List 94,bridge,NA,2810,5.52173913,322,0.069552783,2811,BOI,-,-,Please name all of the ways you could use this object. Keep in mind that one object can have many uses. Separate your responses with a comma.,NA,y,21708,NA,NA,1752,20618,NA,NA,NA,"crossing, walking, travel, transport",1
M20186074BLM,r6svz4t0rw,Affordance Norms_MSU_TEX,1,18,2023-04-25T03:47:30+00:00,108.9444911,94,updated stim.csv,Version94.csv,Version 94,List 94,girl,NA,2809,5.52,1108,0.249735431,2810,BOI,-,-,Please name all of the ways you could use this object. Keep in mind that one object can have many uses. Separate your responses with a comma.,NA,y,108782,NA,NA,3002,107056,NA,NA,NA,"female, femininity, can become woman",1
M20186074BLM,r6svz4t0rw,Affordance Norms_MSU_TEX,1,19,2023-04-25T03:51:54+00:00,264.282141,94,updated stim.csv,Version94.csv,Version 94,List 94,cigar,NA,2811,5.962962963,542,0.389740937,2812,BOI,-,-,Please name all of the ways you could use this object. Keep in mind that one object can have many uses. Separate your responses with a comma.,NA,y,263765,NA,NA,6342,260601,NA,NA,NA,"smoke, relax, cancer",1
M20186074BLM,r6svz4t0rw,Affordance Norms_MSU_TEX,1,20,2023-04-25T03:52:37+00:00,42.29090095,94,updated stim.csv,Version94.csv,Version 94,List 94,lighthouse,NA,2795,4.791666667,1507,0.115692455,2796,BOI,-,-,Please name all of the ways you could use this object. Keep in mind that one object can have many uses. Separate your responses with a comma.,NA,y,42128,NA,NA,6629,41159,NA,NA,NA,"provides light, helps ships at night, navy",1
M20186074BLM,r6svz4t0rw,Affordance Norms_MSU_TEX,1,21,2023-04-25T03:53:35+00:00,58.13395095,94,updated stim.csv,Version94.csv,Version 94,List 94,maggot,NA,2791,4.44,1570,0.788570737,2792,BOI,-,-,Please name all of the ways you could use this object. Keep in mind that one object can have many uses. Separate your responses with a comma.,NA,y,57903,NA,NA,1444,56201,NA,NA,NA,"worms, crawling, dirt, holes, lives under ground",1
M20186074BLM,r6svz4t0rw,Affordance Norms_MSU_TEX,1,22,2023-04-25T03:53:58+00:00,23.69603205,94,updated stim.csv,Version94.csv,Version 94,List 94,oyster,NA,2813,5.407407407,1834,0.932964259,2814,BOI,-,-,Please name all of the ways you could use this object. Keep in mind that one object can have many uses. Separate your responses with a comma.,NA,y,23517,NA,NA,2189,20011,NA,NA,NA,"eat, catch, pearls ",1
M20186074BLM,r6svz4t0rw,Affordance Norms_MSU_TEX,1,23,2023-04-25T03:54:14+00:00,15.40733504,94,updated stim.csv,Version94.csv,Version 94,List 94,jeep,NA,2812,5.409090909,1380,0.355780564,2813,BOI,-,-,Please name all of the ways you could use this object. Keep in mind that one object can have many uses. Separate your responses with a comma.,NA,y,15245,NA,NA,3220,14228,NA,NA,NA,"fly, travel, fast",1
M20186074BLM,r6svz4t0rw,Affordance Norms_MSU_TEX,1,24,2023-04-25T03:54:42+00:00,28.26170707,94,updated stim.csv,Version94.csv,Version 94,List 94,kernel,NA,2797,4.5,1407,0.356725928,2798,BOI,-,-,Please name all of the ways you could use this object. Keep in mind that one object can have many uses. Separate your responses with a comma.,NA,y,28088,NA,NA,1766,20178,NA,NA,NA,"popcorn, eat, pop, heat up",1
M20186074BLM,r6svz4t0rw,Affordance Norms_MSU_TEX,1,25,2023-04-25T03:55:14+00:00,31.80862498,94,updated stim.csv,Version94.csv,Version 94,List 94,nutcrackers,NA,2794,5.347826087,1791,0.072605459,2795,BOI,-,-,Please name all of the ways you could use this object. Keep in mind that one object can have many uses. Separate your responses with a comma.,NA,y,31649,NA,NA,3630,30964,NA,NA,NA,"crack nuts, eating nuts, break, smash, nuts",1
M20186074BLM,r6svz4t0rw,Affordance Norms_MSU_TEX,1,26,2023-04-25T03:55:40+00:00,25.95720696,94,updated stim.csv,Version94.csv,Version 94,List 94,omelet,NA,2806,5.6,1807,0.790169092,2807,BOI,-,-,Please name all of the ways you could use this object. Keep in mind that one object can have many uses. Separate your responses with a comma.,NA,y,25771,NA,NA,5533,20964,NA,NA,NA,"frying eggs, eating, cooking",1
M20186074BLM,r6svz4t0rw,Affordance Norms_MSU_TEX,1,27,2023-04-25T04:00:26+00:00,286.1339519,94,updated stim.csv,Version94.csv,Version 94,List 94,toothpaste,NA,2805,5.76,2733,0.042102383,2806,BOI,-,-,Please name all of the ways you could use this object. Keep in mind that one object can have many uses. Separate your responses with a comma.,NA,y,285875,NA,NA,1670,10944,NA,NA,NA,"brushing teeth, cleaning teeth",1
M20186074BLM,r6svz4t0rw,Affordance Norms_MSU_TEX,1,28,2023-04-25T04:02:05+00:00,99.45635819,94,updated stim.csv,Version94.csv,Version 94,List 94,dispenser,NA,2799,4.708333333,805,0.262195631,2800,BOI,-,-,Please name all of the ways you could use this object. Keep in mind that one object can have many uses. Separate your responses with a comma.,NA,y,99274,NA,NA,74787,95703,NA,NA,NA,"trash can, throw trash away, container ",1
M20186074BLM,r6svz4t0rw,Affordance Norms_MSU_TEX,1,29,2023-04-25T04:03:44+00:00,98.13458991,94,updated stim.csv,Version94.csv,Version 94,List 94,cheerleader,NA,2818,5.285714286,505,0.580282419,2819,BOI,-,-,Please name all of the ways you could use this object. Keep in mind that one object can have many uses. Separate your responses with a comma.,NA,y,97948,NA,NA,4247,97372,NA,NA,NA,"loud, happy, cheering, excited, gymnastics ",1
M20186074BLM,r6svz4t0rw,Affordance Norms_MSU_TEX,1,30,2023-04-25T04:03:56+00:00,12.23777199,94,updated stim.csv,Version94.csv,Version 94,List 94,kazoo,NA,2792,5.6,1401,0.310136054,2793,BOI,-,-,Please name all of the ways you could use this object. Keep in mind that one object can have many uses. Separate your responses with a comma.,NA,y,12076,NA,NA,3312,10791,NA,NA,NA,"loud, whistle, game",1
M20186074BLM,r6svz4t0rw,Affordance Norms_MSU_TEX,1,31,2023-04-25T04:04:50+00:00,53.86890793,94,updated stim.csv,Version94.csv,Version 94,List 94,sax,NA,2820,5.045454545,2256,0.271482721,2821,BOI,-,-,Please name all of the ways you could use this object. Keep in mind that one object can have many uses. Separate your responses with a comma.,NA,y,53702,NA,NA,2517,50638,NA,NA,NA,"plays music, instrument, plays the blues, jazz, and classical music",1
M20186074BLM,r6svz4t0rw,Affordance Norms_MSU_TEX,1,32,2023-04-25T04:05:22+00:00,31.77372599,94,updated stim.csv,Version94.csv,Version 94,List 94,pork,NA,2796,4.916666667,2037,0.339315341,2797,BOI,-,-,Please name all of the ways you could use this object. Keep in mind that one object can have many uses. Separate your responses with a comma.,NA,y,31600,NA,NA,3117,30532,NA,NA,NA,"eat, pig, cooked pig",1
M20186074BLM,r6svz4t0rw,Affordance Norms_MSU_TEX,1,33,2023-04-25T04:06:23+00:00,61.17260003,94,updated stim.csv,Version94.csv,Version 94,List 94,fishbone,NA,2816,5.173913043,990,0.879116537,2817,BOI,-,-,Please name all of the ways you could use this object. Keep in mind that one object can have many uses. Separate your responses with a comma.,NA,y,61007,NA,NA,5513,60338,NA,NA,NA,"lucky, toothpick, inside fish",1
M20186074BLM,r6svz4t0rw,Affordance Norms_MSU_TEX,1,34,2023-04-25T04:07:24+00:00,61.39819503,94,updated stim.csv,Version94.csv,Version 94,List 94,sackcloth,NA,2802,4.913043478,2211,0.489130765,2803,BOI,-,-,Please name all of the ways you could use this object. Keep in mind that one object can have many uses. Separate your responses with a comma.,NA,y,61205,NA,NA,45911,59433,NA,NA,NA,"carry clothes, carry items, fabric ",1
M20186074BLM,r6svz4t0rw,Affordance Norms_MSU_TEX,1,35,2023-04-25T04:08:05+00:00,40.68350101,94,updated stim.csv,Version94.csv,Version 94,List 94,fag,NA,2798,4.8,942,0.41812496,2799,BOI,-,-,Please name all of the ways you could use this object. Keep in mind that one object can have many uses. Separate your responses with a comma.,NA,y,40514,NA,NA,11262,32539,NA,NA,NA,"gay sex, rude word for calling gays",1
M20186074BLM,r6svz4t0rw,Affordance Norms_MSU_TEX,1,36,2023-04-25T04:09:02+00:00,57.36972404,94,updated stim.csv,Version94.csv,Version 94,List 94,snorkel,NA,2807,4.814814815,2428,0.530703777,2808,BOI,-,-,Please name all of the ways you could use this object. Keep in mind that one object can have many uses. Separate your responses with a comma.,NA,y,57204,NA,NA,21783,56669,NA,NA,NA,"scuba diving, fishing, seeing fish underwater, helps you breath underwater",1
M20186074BLM,r6svz4t0rw,Affordance Norms_MSU_TEX,1,37,2023-04-25T04:09:41+00:00,38.86332202,94,updated stim.csv,Version94.csv,Version 94,List 94,garland,NA,2819,5.166666667,1079,0.487831192,2820,BOI,-,-,Please name all of the ways you could use this object. Keep in mind that one object can have many uses. Separate your responses with a comma.,NA,y,38689,NA,NA,14685,35857,NA,NA,NA,located in Texas ,1
M20186074BLM,r6svz4t0rw,Affordance Norms_MSU_TEX,1,38,2023-04-25T04:10:46+00:00,65.07709002,94,updated stim.csv,Version94.csv,Version 94,List 94,hanky,NA,2815,4.481481481,1247,0.363795056,2816,BOI,-,-,Please name all of the ways you could use this object. Keep in mind that one object can have many uses. Separate your responses with a comma.,NA,y,64907,NA,NA,5859,59390,NA,NA,NA,"playing ""hanky panky"", used to wipe nose, linen used as napkin",1
M20186074BLM,r6svz4t0rw,Affordance Norms_MSU_TEX,1,39,2023-04-25T04:11:38+00:00,52.09864688,94,updated stim.csv,Version94.csv,Version 94,List 94,sack,NA,2817,5.083333333,2210,0.51753878,2818,BOI,-,-,Please name all of the ways you could use this object. Keep in mind that one object can have many uses. Separate your responses with a comma.,NA,y,51929,NA,NA,21684,50669,NA,NA,NA,"carry items, use as backpack, travel with",1
M20186074BLM,r6svz4t0rw,Affordance Norms_MSU_TEX,1,40,2023-04-25T04:12:16+00:00,37.38401198,94,updated stim.csv,Version94.csv,Version 94,List 94,retriever,NA,2803,4.96,2160,0.323930836,2804,BOI,-,-,Please name all of the ways you could use this object. Keep in mind that one object can have many uses. Separate your responses with a comma.,NA,y,37210,NA,NA,3294,30126,NA,NA,NA,"go get something, item is recovered, bringing something ",1
M20230772_im,rvp50p1c6v,Affordance Norms_MSU_TEX,1,11,2023-04-28T01:47:33+00:00,76.78776503,99,updated stim.csv,Version99.csv,Version 99,List 99,horseman,NA,2956,4.28,1314,0.643703064,2957,BOI,-,-,Please name all of the ways you could use this object. Keep in mind that one object can have many uses. Separate your responses with a comma.,NA,y,76375,NA,NA,25680,59203,NA,NA,NA,"deliver a message, ask for information about horse related inquiries",1
M20230772_im,rvp50p1c6v,Affordance Norms_MSU_TEX,1,12,2023-04-28T01:48:26+00:00,53.47611189,99,updated stim.csv,Version99.csv,Version 99,List 99,builder,NA,2954,4.826086957,349,0.147528476,2955,BOI,-,-,Please name all of the ways you could use this object. Keep in mind that one object can have many uses. Separate your responses with a comma.,NA,y,53063,NA,NA,11624,50947,NA,NA,NA,"project advice, project assistance, handyman services",1
M20230772_im,rvp50p1c6v,Affordance Norms_MSU_TEX,1,13,2023-04-28T01:49:23+00:00,56.52431011,99,updated stim.csv,Version99.csv,Version 99,List 99,mitt,NA,2959,6.08,1670,0.150421439,2960,BOI,-,-,Please name all of the ways you could use this object. Keep in mind that one object can have many uses. Separate your responses with a comma.,NA,y,56109,NA,NA,5457,44164,NA,NA,NA,"keep hand warm, keep hand from being burned by hot object, catch baseball without hurting hand",1
M20230772_im,rvp50p1c6v,Affordance Norms_MSU_TEX,1,14,2023-04-28T01:50:15+00:00,52.46092582,99,updated stim.csv,Version99.csv,Version 99,List 99,plant,NA,2963,5.652173913,1989,0.989671933,2964,BOI,-,-,Please name all of the ways you could use this object. Keep in mind that one object can have many uses. Separate your responses with a comma.,NA,y,52049,NA,NA,6655,49134,NA,NA,NA,"look pretty, bring up my mood, be cared for, make room smell nice, make cat go crazy",1
M20230772_im,rvp50p1c6v,Affordance Norms_MSU_TEX,1,15,2023-04-28T01:51:02+00:00,47.02879,99,updated stim.csv,Version99.csv,Version 99,List 99,toast,NA,2953,6.2,2709,0.040447256,2954,BOI,-,-,Please name all of the ways you could use this object. Keep in mind that one object can have many uses. Separate your responses with a comma.,NA,y,46616,NA,NA,3664,43331,NA,NA,NA,"grilled cheese, egg sandwich, put in anime girl's mouth before she runs off to school",1
M20230772_im,rvp50p1c6v,Affordance Norms_MSU_TEX,1,16,2023-04-28T01:51:23+00:00,20.96087217,99,updated stim.csv,Version99.csv,Version 99,List 99,rat,NA,2950,4.608695652,2139,0.676623243,2951,BOI,-,-,Please name all of the ways you could use this object. Keep in mind that one object can have many uses. Separate your responses with a comma.,NA,y,20538,NA,NA,16864,17471,NA,NA,NA,oh shit,1
M20230772_im,rvp50p1c6v,Affordance Norms_MSU_TEX,1,17,2023-04-28T01:53:05+00:00,101.953691,99,updated stim.csv,Version99.csv,Version 99,List 99,aunt,NA,2960,5.041666667,98,0.66325424,2961,BOI,-,-,Please name all of the ways you could use this object. Keep in mind that one object can have many uses. Separate your responses with a comma.,NA,y,101540,NA,NA,74428,96491,NA,NA,NA,"getting an uncle, getting niece, getting nephew, advice you can't ask your parents for",0.885
M20230772_im,rvp50p1c6v,Affordance Norms_MSU_TEX,1,18,2023-04-28T01:54:00+00:00,54.41629386,99,updated stim.csv,Version99.csv,Version 99,List 99,doughnut,NA,2966,6.260869565,834,0.843103669,2967,BOI,-,-,Please name all of the ways you could use this object. Keep in mind that one object can have many uses. Separate your responses with a comma.,NA,y,54006,NA,NA,2879,52104,NA,NA,NA,"eat (delicious), breakfast on lazy day, dessert, bring to social gathering as friendly gesture",1
M20230772_im,rvp50p1c6v,Affordance Norms_MSU_TEX,1,19,2023-04-28T01:54:44+00:00,44.454108,99,updated stim.csv,Version99.csv,Version 99,List 99,forefinger,NA,2965,5.16,1044,0.498173651,2966,BOI,-,-,Please name all of the ways you could use this object. Keep in mind that one object can have many uses. Separate your responses with a comma.,NA,y,44033,NA,NA,6138,34593,NA,NA,NA,"point to something, type on keyboard, manipulate objects",1
M20230772_im,rvp50p1c6v,Affordance Norms_MSU_TEX,1,20,2023-04-28T01:55:42+00:00,58.46377015,99,updated stim.csv,Version99.csv,Version 99,List 99,stepfather,NA,2948,5.16,2526,0.250186835,2949,BOI,-,-,Please name all of the ways you could use this object. Keep in mind that one object can have many uses. Separate your responses with a comma.,NA,y,58051,NA,NA,46476,54536,NA,NA,NA,treating my mom badly and nothing else,1
M20230772_im,rvp50p1c6v,Affordance Norms_MSU_TEX,1,21,2023-04-28T01:57:08+00:00,85.1139698,99,updated stim.csv,Version99.csv,Version 99,List 99,concert,NA,2949,4.714285714,617,0.731468268,2950,BOI,-,-,Please name all of the ways you could use this object. Keep in mind that one object can have many uses. Separate your responses with a comma.,NA,y,84707,NA,NA,9346,83618,NA,NA,NA,"enjoy a band you already like in a different way than you're used to, an activity to do with friend(s), meet someone with similar interests, have fun, excuse to leave town and go somewhere else",1
M20230772_im,rvp50p1c6v,Affordance Norms_MSU_TEX,1,22,2023-04-28T01:58:01+00:00,53.48443508,99,updated stim.csv,Version99.csv,Version 99,List 99,armpit,NA,2967,5.52,75,0.064450497,2968,BOI,-,-,Please name all of the ways you could use this object. Keep in mind that one object can have many uses. Separate your responses with a comma.,NA,y,53079,NA,NA,8243,27496,NA,NA,NA,"precariously hold object when hands are occupied, bear deodorant",1
M20230772_im,rvp50p1c6v,Affordance Norms_MSU_TEX,1,23,2023-04-28T01:58:31+00:00,30.14876294,99,updated stim.csv,Version99.csv,Version 99,List 99,contraceptive,NA,2958,5.391304348,629,0.144524493,2959,BOI,-,-,Please name all of the ways you could use this object. Keep in mind that one object can have many uses. Separate your responses with a comma.,NA,y,29739,NA,NA,10676,14794,NA,NA,NA,prevent baby from happening,1
M20230772_im,rvp50p1c6v,Affordance Norms_MSU_TEX,1,24,2023-04-28T01:59:58+00:00,86.72203016,99,updated stim.csv,Version99.csv,Version 99,List 99,stall,NA,2955,4.625,2504,0.320988124,2956,BOI,-,-,Please name all of the ways you could use this object. Keep in mind that one object can have many uses. Separate your responses with a comma.,NA,y,86324,NA,NA,13535,61117,NA,NA,NA,"bowel movement, rest at work, escape social situation, purchase product from vendor",1
M20230772_im,rvp50p1c6v,Affordance Norms_MSU_TEX,1,25,2023-04-28T02:00:48+00:00,49.896034,99,updated stim.csv,Version99.csv,Version 99,List 99,garbage,NA,2952,4.96,1075,0.550243861,2953,BOI,-,-,Please name all of the ways you could use this object. Keep in mind that one object can have many uses. Separate your responses with a comma.,NA,y,49489,NA,NA,6404,20539,NA,NA,NA,excuse to go outside on a day with little to do,1
M20230772_im,rvp50p1c6v,Affordance Norms_MSU_TEX,1,26,2023-04-28T02:01:45+00:00,56.87514496,99,updated stim.csv,Version99.csv,Version 99,List 99,calender,NA,2945,5.84,401,0.007963655,2946,BOI,-,-,Please name all of the ways you could use this object. Keep in mind that one object can have many uses. Separate your responses with a comma.,NA,y,56456,NA,NA,5231,55197,NA,NA,NA,I am not familiar with this object,0.848
M20230772_im,rvp50p1c6v,Affordance Norms_MSU_TEX,1,27,2023-04-28T02:02:37+00:00,52.57402086,99,updated stim.csv,Version99.csv,Version 99,List 99,cattle,NA,2969,4.625,463,0.654880063,2970,BOI,-,-,Please name all of the ways you could use this object. Keep in mind that one object can have many uses. Separate your responses with a comma.,NA,y,52151,NA,NA,6470,51026,NA,NA,NA,"milk, beef, leather, give cowboys something to do",1
M20230772_im,rvp50p1c6v,Affordance Norms_MSU_TEX,1,28,2023-04-28T02:03:14+00:00,36.32004213,99,updated stim.csv,Version99.csv,Version 99,List 99,flour,NA,2946,5.875,1014,0.326059496,2947,BOI,-,-,Please name all of the ways you could use this object. Keep in mind that one object can have many uses. Separate your responses with a comma.,NA,y,34041,NA,NA,12883,32466,NA,NA,NA,"baking, breading chicken",1
M20230772_im,rvp50p1c6v,Affordance Norms_MSU_TEX,1,29,2023-04-28T02:04:50+00:00,96.6284349,99,updated stim.csv,Version99.csv,Version 99,List 99,actor,NA,2961,4.739130435,10,0.321005819,2962,BOI,-,-,Please name all of the ways you could use this object. Keep in mind that one object can have many uses. Separate your responses with a comma.,NA,y,96205,NA,NA,49062,83530,NA,NA,NA,"entertainment, tell lies",1
M20230772_im,rvp50p1c6v,Affordance Norms_MSU_TEX,1,30,2023-04-28T02:05:03+00:00,13.21011114,99,updated stim.csv,Version99.csv,Version 99,List 99,casebook,NA,2957,5.391304348,446,0.259789804,2958,BOI,-,-,Please name all of the ways you could use this object. Keep in mind that one object can have many uses. Separate your responses with a comma.,NA,y,12808,NA,NA,4190,11687,NA,NA,NA,I am unfamiliar with this object,1
M20230772_im,rvp50p1c6v,Affordance Norms_MSU_TEX,1,31,2023-04-28T02:05:50+00:00,46.86117101,99,updated stim.csv,Version99.csv,Version 99,List 99,bomb,NA,2970,4.384615385,264,0.127189072,2971,BOI,-,-,Please name all of the ways you could use this object. Keep in mind that one object can have many uses. Separate your responses with a comma.,NA,y,46440,NA,NA,10655,41221,NA,NA,NA,"threat, destroy something, make a hole in something, plot device",1
M20230772_im,rvp50p1c6v,Affordance Norms_MSU_TEX,1,32,2023-04-28T02:06:13+00:00,22.85184193,99,updated stim.csv,Version99.csv,Version 99,List 99,horseradish,NA,2942,5.24,1315,0.715399722,2943,BOI,-,-,Please name all of the ways you could use this object. Keep in mind that one object can have many uses. Separate your responses with a comma.,NA,y,22418,NA,NA,10583,17792,NA,NA,NA,I have no use for this object,1
M20230772_im,rvp50p1c6v,Affordance Norms_MSU_TEX,1,33,2023-04-28T02:06:26+00:00,13.09575796,99,updated stim.csv,Version99.csv,Version 99,List 99,thyme,NA,2941,4.958333333,2691,0.394545149,2942,BOI,-,-,Please name all of the ways you could use this object. Keep in mind that one object can have many uses. Separate your responses with a comma.,NA,y,12700,NA,NA,4882,11424,NA,NA,NA,make terrible puns,1
M20230772_im,rvp50p1c6v,Affordance Norms_MSU_TEX,1,34,2023-04-28T02:07:22+00:00,55.56910801,99,updated stim.csv,Version99.csv,Version 99,List 99,building,NA,2968,5.208333333,350,0.964957786,2969,BOI,-,-,Please name all of the ways you could use this object. Keep in mind that one object can have many uses. Separate your responses with a comma.,NA,y,55166,NA,NA,25491,53638,NA,NA,NA,"shelter, gathering place, place of business, place of entertainment, place of work, storage",1
M20230772_im,rvp50p1c6v,Affordance Norms_MSU_TEX,1,35,2023-04-28T02:08:07+00:00,45.67069411,99,updated stim.csv,Version99.csv,Version 99,List 99,employer,NA,2944,5.291666667,904,0.445797606,2945,BOI,-,-,Please name all of the ways you could use this object. Keep in mind that one object can have many uses. Separate your responses with a comma.,NA,y,45257,NA,NA,6212,43723,NA,NA,NA,"make money, kill time, get out of the house, feel needed for something (potentially)",1
M20230772_im,rvp50p1c6v,Affordance Norms_MSU_TEX,1,36,2023-04-28T02:09:17+00:00,69.33476686,99,updated stim.csv,Version99.csv,Version 99,List 99,recorder,NA,2962,5.8,2148,0.477529533,2963,BOI,-,-,Please name all of the ways you could use this object. Keep in mind that one object can have many uses. Separate your responses with a comma.,NA,y,68928,NA,NA,12848,59700,NA,NA,NA,"keep a record of something, make terrible noises in elementary school",1
M20230772_im,rvp50p1c6v,Affordance Norms_MSU_TEX,1,37,2023-04-28T02:09:40+00:00,23.29890203,99,updated stim.csv,Version99.csv,Version 99,List 99,vaseline,NA,2964,5.608695652,2839,0.512026117,2965,BOI,-,-,Please name all of the ways you could use this object. Keep in mind that one object can have many uses. Separate your responses with a comma.,NA,y,22885,NA,NA,15317,20981,NA,NA,NA,I have no use for this object,1
M20230772_im,rvp50p1c6v,Affordance Norms_MSU_TEX,1,38,2023-04-28T02:10:54+00:00,73.79772091,99,updated stim.csv,Version99.csv,Version 99,List 99,river,NA,2947,4.64,2172,0.373876547,2948,BOI,-,-,Please name all of the ways you could use this object. Keep in mind that one object can have many uses. Separate your responses with a comma.,NA,y,73048,NA,NA,6992,68988,NA,NA,NA,"cool down on hot day, get water, wash clothes, bathe, calming noise for sleeping when camping, go rafting, transport goods",1
M20230772_im,rvp50p1c6v,Affordance Norms_MSU_TEX,1,39,2023-04-28T02:11:42+00:00,48.58277607,99,updated stim.csv,Version99.csv,Version 99,List 99,tar,NA,2951,4.37037037,2635,0.507895098,2952,BOI,-,-,Please name all of the ways you could use this object. Keep in mind that one object can have many uses. Separate your responses with a comma.,NA,y,48179,NA,NA,3109,35632,NA,NA,NA,"make roads, pour down onto people trying to scale the walls of the castle you're defending",1
M20230772_im,rvp50p1c6v,Affordance Norms_MSU_TEX,1,40,2023-04-28T02:12:18+00:00,35.99331307,99,updated stim.csv,Version99.csv,Version 99,List 99,springboard,NA,2943,5,2488,0.395474663,2944,BOI,-,-,Please name all of the ways you could use this object. Keep in mind that one object can have many uses. Separate your responses with a comma.,NA,y,35568,NA,NA,7883,33363,NA,NA,NA,get a jump so you can dive into a pool ,1
M20248064MJN,bjb0cz7ns6,Affordance Norms_MSU_TEX,1,11,2023-04-12T18:31:42+00:00,42.021806,39,updated stim.csv,Version39.csv,Version 39,List 39,flesh,NA,1160,4.782608696,1007,0.578571778,1161,BOI,-,-,Please name all of the ways you could use this object. Keep in mind that one object can have many uses. Separate your responses with a comma.,NA,y,41743,NA,NA,8112,34691,NA,NA,NA,"Eat, burn, stab, tear",1
M20248064MJN,bjb0cz7ns6,Affordance Norms_MSU_TEX,1,12,2023-04-12T18:32:27+00:00,44.56083584,39,updated stim.csv,Version39.csv,Version 39,List 39,mailbag,NA,1161,5.041666667,1578,0.385259124,1162,BOI,-,-,Please name all of the ways you could use this object. Keep in mind that one object can have many uses. Separate your responses with a comma.,NA,y,44293,NA,NA,6049,34073,NA,NA,NA,"Wear, organize",1
M20248064MJN,bjb0cz7ns6,Affordance Norms_MSU_TEX,1,13,2023-04-12T18:34:29+00:00,122.0767121,39,updated stim.csv,Version39.csv,Version 39,List 39,manhole,NA,1170,4.72,1589,0.475856617,1171,BOI,-,-,Please name all of the ways you could use this object. Keep in mind that one object can have many uses. Separate your responses with a comma.,NA,y,121808,NA,NA,112652,121374,NA,NA,NA,Decorate ,1
M20248064MJN,bjb0cz7ns6,Affordance Norms_MSU_TEX,1,14,2023-04-12T18:34:57+00:00,27.88769698,39,updated stim.csv,Version39.csv,Version 39,List 39,traveler,NA,1147,4.714285714,2766,0.7663085,1148,BOI,-,-,Please name all of the ways you could use this object. Keep in mind that one object can have many uses. Separate your responses with a comma.,NA,y,27615,NA,NA,8653,9954,NA,NA,NA,Guide,1
M20248064MJN,bjb0cz7ns6,Affordance Norms_MSU_TEX,1,15,2023-04-12T18:35:46+00:00,48.71397686,39,updated stim.csv,Version39.csv,Version 39,List 39,garden,NA,1157,5.913043478,1076,0.285606366,1158,BOI,-,-,Please name all of the ways you could use this object. Keep in mind that one object can have many uses. Separate your responses with a comma.,NA,y,48432,NA,NA,4300,46952,NA,NA,NA,"Grow, decorate, organize ",1
M20248064MJN,bjb0cz7ns6,Affordance Norms_MSU_TEX,1,16,2023-04-12T18:36:54+00:00,68.39705014,39,updated stim.csv,Version39.csv,Version 39,List 39,honey,NA,1154,5.434782609,1302,0.722168612,1155,BOI,-,-,Please name all of the ways you could use this object. Keep in mind that one object can have many uses. Separate your responses with a comma.,NA,y,68123,NA,NA,26004,61656,NA,NA,NA,"Eat, collect, sell, drink ",1
M20248064MJN,bjb0cz7ns6,Affordance Norms_MSU_TEX,1,17,2023-04-12T18:37:38+00:00,44.24793887,39,updated stim.csv,Version39.csv,Version 39,List 39,tower,NA,1155,4.307692308,2747,0.015012916,1156,BOI,-,-,Please name all of the ways you could use this object. Keep in mind that one object can have many uses. Separate your responses with a comma.,NA,y,43979,NA,NA,17106,39871,NA,NA,NA,"Protect, cover, lookout",1
M20248064MJN,bjb0cz7ns6,Affordance Norms_MSU_TEX,1,18,2023-04-12T18:37:58+00:00,19.37701011,39,updated stim.csv,Version39.csv,Version 39,List 39,dandruff,NA,1150,4.72,756,0.553084418,1151,BOI,-,-,Please name all of the ways you could use this object. Keep in mind that one object can have many uses. Separate your responses with a comma.,NA,y,19105,NA,NA,5041,15252,NA,NA,NA,"Clean, get rid of",1
M20248064MJN,bjb0cz7ns6,Affordance Norms_MSU_TEX,1,19,2023-04-12T18:39:16+00:00,78.49296689,39,updated stim.csv,Version39.csv,Version 39,List 39,washer,NA,1145,5.518518519,2899,0.109488877,1146,BOI,-,-,Please name all of the ways you could use this object. Keep in mind that one object can have many uses. Separate your responses with a comma.,NA,y,78226,NA,NA,6080,16044,NA,NA,NA,"Wash clothes, shoes ",1
M20248064MJN,bjb0cz7ns6,Affordance Norms_MSU_TEX,1,20,2023-04-12T18:40:05+00:00,48.89818811,39,updated stim.csv,Version39.csv,Version 39,List 39,gatehouse,NA,1169,4.464285714,1086,0.030067495,1170,BOI,-,-,Please name all of the ways you could use this object. Keep in mind that one object can have many uses. Separate your responses with a comma.,NA,y,48624,NA,NA,33416,44730,NA,NA,NA,"Clean, decorate, organize ",1
M20248064MJN,bjb0cz7ns6,Affordance Norms_MSU_TEX,1,21,2023-04-12T18:40:39+00:00,33.90448499,39,updated stim.csv,Version39.csv,Version 39,List 39,swamp,NA,1159,4.52173913,2602,0.862310009,1160,BOI,-,-,Please name all of the ways you could use this object. Keep in mind that one object can have many uses. Separate your responses with a comma.,NA,y,33617,NA,NA,7635,22081,NA,NA,NA,"Boat, fish, kill, swim",1
M20248064MJN,bjb0cz7ns6,Affordance Norms_MSU_TEX,1,22,2023-04-12T18:41:32+00:00,53.29568911,39,updated stim.csv,Version39.csv,Version 39,List 39,comic,NA,1162,4.88,608,0.52906397,1163,BOI,-,-,Please name all of the ways you could use this object. Keep in mind that one object can have many uses. Separate your responses with a comma.,NA,y,53023,NA,NA,3268,49804,NA,NA,NA,"Read, explore, imagine ",1
M20248064MJN,bjb0cz7ns6,Affordance Norms_MSU_TEX,1,23,2023-04-12T18:41:56+00:00,23.447541,39,updated stim.csv,Version39.csv,Version 39,List 39,poncho,NA,1144,5.458333333,2028,0.48079427,1145,BOI,-,-,Please name all of the ways you could use this object. Keep in mind that one object can have many uses. Separate your responses with a comma.,NA,y,23176,NA,NA,2851,22518,NA,NA,NA,"Wear, style, cover ",1
M20248064MJN,bjb0cz7ns6,Affordance Norms_MSU_TEX,1,24,2023-04-12T18:42:14+00:00,18.46168184,39,updated stim.csv,Version39.csv,Version 39,List 39,harpist,NA,1151,4.304347826,1254,0.244143745,1152,BOI,-,-,Please name all of the ways you could use this object. Keep in mind that one object can have many uses. Separate your responses with a comma.,NA,y,18195,NA,NA,3265,5292,NA,NA,NA,Play,1
M20248064MJN,bjb0cz7ns6,Affordance Norms_MSU_TEX,1,25,2023-04-12T18:42:35+00:00,21.15261102,39,updated stim.csv,Version39.csv,Version 39,List 39,skateboarder,NA,1158,4.739130435,2391,0.644910022,1159,BOI,-,-,Please name all of the ways you could use this object. Keep in mind that one object can have many uses. Separate your responses with a comma.,NA,y,20876,NA,NA,12397,13780,NA,NA,NA,Ride,1
M20248064MJN,bjb0cz7ns6,Affordance Norms_MSU_TEX,1,26,2023-04-12T18:42:44+00:00,8.694205046,39,updated stim.csv,Version39.csv,Version 39,List 39,crisps,NA,1166,5.130434783,696,0.102907541,1167,BOI,-,-,Please name all of the ways you could use this object. Keep in mind that one object can have many uses. Separate your responses with a comma.,NA,y,8435,NA,NA,2390,5176,NA,NA,NA,"Eat,",1
M20248064MJN,bjb0cz7ns6,Affordance Norms_MSU_TEX,1,27,2023-04-12T18:42:57+00:00,13.15014601,39,updated stim.csv,Version39.csv,Version 39,List 39,ceramic,NA,1168,4.62962963,479,0.127971874,1169,BOI,-,-,Please name all of the ways you could use this object. Keep in mind that one object can have many uses. Separate your responses with a comma.,NA,y,12885,NA,NA,8397,12381,NA,NA,NA,N/a,1
M20248064MJN,bjb0cz7ns6,Affordance Norms_MSU_TEX,1,28,2023-04-12T18:43:06+00:00,8.51238203,39,updated stim.csv,Version39.csv,Version 39,List 39,genitals,NA,1152,6.130434783,1097,0.400051234,1153,BOI,-,-,Please name all of the ways you could use this object. Keep in mind that one object can have many uses. Separate your responses with a comma.,NA,y,8251,NA,NA,5876,7367,NA,NA,NA,Protect ,1
M20248064MJN,bjb0cz7ns6,Affordance Norms_MSU_TEX,1,29,2023-04-12T18:43:15+00:00,9.241252899,39,updated stim.csv,Version39.csv,Version 39,List 39,matchstick,NA,1141,6.103448276,1622,0.667470628,1142,BOI,-,-,Please name all of the ways you could use this object. Keep in mind that one object can have many uses. Separate your responses with a comma.,NA,y,8989,NA,NA,4534,5068,NA,NA,NA,Fire ,1
M20248064MJN,bjb0cz7ns6,Affordance Norms_MSU_TEX,1,30,2023-04-12T18:43:23+00:00,7.856750965,39,updated stim.csv,Version39.csv,Version 39,List 39,viewfinder,NA,1143,4.916666667,2857,0.571709017,1144,BOI,-,-,Please name all of the ways you could use this object. Keep in mind that one object can have many uses. Separate your responses with a comma.,NA,y,7592,NA,NA,3517,6598,NA,NA,NA,Lookout,1
M20248064MJN,bjb0cz7ns6,Affordance Norms_MSU_TEX,1,31,2023-04-12T18:43:57+00:00,33.97932506,39,updated stim.csv,Version39.csv,Version 39,List 39,clubhouse,NA,1148,4.28,577,0.604371348,1149,BOI,-,-,Please name all of the ways you could use this object. Keep in mind that one object can have many uses. Separate your responses with a comma.,NA,y,33714,NA,NA,1799,20846,NA,NA,NA,"Party, movies, pool",1
M20248064MJN,bjb0cz7ns6,Affordance Norms_MSU_TEX,1,32,2023-04-12T18:44:15+00:00,18.22254515,39,updated stim.csv,Version39.csv,Version 39,List 39,ink,NA,1153,5.56,1356,0.607533326,1154,BOI,-,-,Please name all of the ways you could use this object. Keep in mind that one object can have many uses. Separate your responses with a comma.,NA,y,17932,NA,NA,6356,17576,NA,NA,NA,"Color, print, tattoo ",1
M20248064MJN,bjb0cz7ns6,Affordance Norms_MSU_TEX,1,33,2023-04-12T18:44:24+00:00,9.162522793,39,updated stim.csv,Version39.csv,Version 39,List 39,dart,NA,1146,5.291666667,758,0.688744371,1147,BOI,-,-,Please name all of the ways you could use this object. Keep in mind that one object can have many uses. Separate your responses with a comma.,NA,y,8879,NA,NA,2309,8122,NA,NA,NA,Throw ,1
M20248064MJN,bjb0cz7ns6,Affordance Norms_MSU_TEX,1,34,2023-04-12T18:44:33+00:00,8.899188042,39,updated stim.csv,Version39.csv,Version 39,List 39,quadriceps,NA,1164,4.5,2109,0.927418534,1165,BOI,-,-,Please name all of the ways you could use this object. Keep in mind that one object can have many uses. Separate your responses with a comma.,NA,y,8636,NA,NA,3062,7999,NA,NA,NA,"Flex, stretch ",1
M20248064MJN,bjb0cz7ns6,Affordance Norms_MSU_TEX,1,35,2023-04-12T18:44:48+00:00,15.44780111,39,updated stim.csv,Version39.csv,Version 39,List 39,chambermaid,NA,1156,4.727272727,492,0.587976201,1157,BOI,-,-,Please name all of the ways you could use this object. Keep in mind that one object can have many uses. Separate your responses with a comma.,NA,y,15180,NA,NA,12285,13345,NA,NA,NA,Clean ,1
M20248064MJN,bjb0cz7ns6,Affordance Norms_MSU_TEX,1,36,2023-04-12T18:45:01+00:00,12.569103,39,updated stim.csv,Version39.csv,Version 39,List 39,ass,NA,1167,5.304347826,87,0.128366314,1168,BOI,-,-,Please name all of the ways you could use this object. Keep in mind that one object can have many uses. Separate your responses with a comma.,NA,y,12256,NA,NA,2829,11847,NA,NA,NA,Sit ,1
M20248064MJN,bjb0cz7ns6,Affordance Norms_MSU_TEX,1,37,2023-04-12T18:46:00+00:00,58.71928,39,updated stim.csv,Version39.csv,Version 39,List 39,house,NA,1163,5.782608696,1326,0.505567762,1164,BOI,-,-,Please name all of the ways you could use this object. Keep in mind that one object can have many uses. Separate your responses with a comma.,NA,y,58366,NA,NA,2773,57881,NA,NA,NA,"Protect, burn ",1
M20248064MJN,bjb0cz7ns6,Affordance Norms_MSU_TEX,1,38,2023-04-12T18:46:27+00:00,27.42429399,39,updated stim.csv,Version39.csv,Version 39,List 39,butter,NA,1142,6.217391304,375,0.147818284,1143,BOI,-,-,Please name all of the ways you could use this object. Keep in mind that one object can have many uses. Separate your responses with a comma.,NA,y,27150,NA,NA,6424,26740,NA,NA,NA,"Slice, eat, cook, melt, drink ",1
M20248064MJN,bjb0cz7ns6,Affordance Norms_MSU_TEX,1,39,2023-04-12T18:46:38+00:00,11.30335402,39,updated stim.csv,Version39.csv,Version 39,List 39,tote,NA,1165,4.28,2742,0.381020449,1166,BOI,-,-,Please name all of the ways you could use this object. Keep in mind that one object can have many uses. Separate your responses with a comma.,NA,y,11040,NA,NA,3069,9598,NA,NA,NA,N/a,1
M20248064MJN,bjb0cz7ns6,Affordance Norms_MSU_TEX,1,40,2023-04-12T18:46:47+00:00,8.652007818,39,updated stim.csv,Version39.csv,Version 39,List 39,buttermilk,NA,1149,4.826086957,377,0.710224765,1150,BOI,-,-,Please name all of the ways you could use this object. Keep in mind that one object can have many uses. Separate your responses with a comma.,NA,y,8393,NA,NA,3014,7700,NA,NA,NA,"Drink, eat ",1
M20249637_BT,doktuc8sbe,Affordance Norms_MSU_TEX,1,11,2023-04-25T00:30:15+00:00,25.74736404,90,updated stim.csv,Version90.csv,Version 90,List 90,serviceman,NA,2694,4.8,2314,0.106353628,2695,BOI,-,-,Please name all of the ways you could use this object. Keep in mind that one object can have many uses. Separate your responses with a comma.,NA,y,25456,NA,NA,2608,22697,NA,NA,NA,to help protect,1
M20249637_BT,doktuc8sbe,Affordance Norms_MSU_TEX,1,12,2023-04-25T00:30:40+00:00,25.00502992,90,updated stim.csv,Version90.csv,Version 90,List 90,livestock,NA,2671,5.041666667,1528,0.387059315,2672,BOI,-,-,Please name all of the ways you could use this object. Keep in mind that one object can have many uses. Separate your responses with a comma.,NA,y,24715,NA,NA,3186,23199,NA,NA,NA,"used for a farm, for survival, to sell to make a profit",1
M20249637_BT,doktuc8sbe,Affordance Norms_MSU_TEX,1,13,2023-04-25T00:31:01+00:00,21.48455596,90,updated stim.csv,Version90.csv,Version 90,List 90,poodle,NA,2686,5.652173913,2032,0.433975707,2687,BOI,-,-,Please name all of the ways you could use this object. Keep in mind that one object can have many uses. Separate your responses with a comma.,NA,y,21192,NA,NA,1483,19940,NA,NA,NA,"a companion, a freeloader",1
M20249637_BT,doktuc8sbe,Affordance Norms_MSU_TEX,1,14,2023-04-25T00:31:11+00:00,9.955654144,90,updated stim.csv,Version90.csv,Version 90,List 90,cavalryman,NA,2682,4.291666667,467,0.382746925,2683,BOI,-,-,Please name all of the ways you could use this object. Keep in mind that one object can have many uses. Separate your responses with a comma.,NA,y,9674,NA,NA,5474,8605,NA,NA,NA,to protect,1
M20249637_BT,doktuc8sbe,Affordance Norms_MSU_TEX,1,15,2023-04-25T00:31:30+00:00,19.32923794,90,updated stim.csv,Version90.csv,Version 90,List 90,Saloon,NA,2689,4.301480485,2225,0.952539339,2690,BOI,-,-,Please name all of the ways you could use this object. Keep in mind that one object can have many uses. Separate your responses with a comma.,NA,y,19051,NA,NA,3072,17794,NA,NA,NA,"to get your hair done, to get a drink, a place in your house",1
M20249637_BT,doktuc8sbe,Affordance Norms_MSU_TEX,1,16,2023-04-25T00:31:56+00:00,25.54196286,90,updated stim.csv,Version90.csv,Version 90,List 90,stepparent,NA,2677,5,2528,0.086567946,2678,BOI,-,-,Please name all of the ways you could use this object. Keep in mind that one object can have many uses. Separate your responses with a comma.,NA,y,25251,NA,NA,1505,24026,NA,NA,NA,"a person who steps in to help a child, a new parent",1
M20249637_BT,doktuc8sbe,Affordance Norms_MSU_TEX,1,17,2023-04-25T00:32:21+00:00,24.90380502,90,updated stim.csv,Version90.csv,Version 90,List 90,cash,NA,2691,6.36,448,0.011316442,2692,BOI,-,-,Please name all of the ways you could use this object. Keep in mind that one object can have many uses. Separate your responses with a comma.,NA,y,24610,NA,NA,2648,19788,NA,NA,NA,"currency, a way to pay for something, origami, ",1
M20249637_BT,doktuc8sbe,Affordance Norms_MSU_TEX,1,18,2023-04-25T00:32:42+00:00,21.39300609,90,updated stim.csv,Version90.csv,Version 90,List 90,clamp,NA,2688,5.36,546,0.048469768,2689,BOI,-,-,Please name all of the ways you could use this object. Keep in mind that one object can have many uses. Separate your responses with a comma.,NA,y,21095,NA,NA,2586,19006,NA,NA,NA,"to clamp chips, to stop something from flowing on a hose",1
M20249637_BT,doktuc8sbe,Affordance Norms_MSU_TEX,1,19,2023-04-25T00:32:50+00:00,7.503642082,90,updated stim.csv,Version90.csv,Version 90,List 90,antiseptics,NA,2690,5.041666667,52,0.468172757,2691,BOI,-,-,Please name all of the ways you could use this object. Keep in mind that one object can have many uses. Separate your responses with a comma.,NA,y,7212,NA,NA,2150,6075,NA,NA,NA,to clean a wound,1
M20249637_BT,doktuc8sbe,Affordance Norms_MSU_TEX,1,20,2023-04-25T00:33:00+00:00,10.07374096,90,updated stim.csv,Version90.csv,Version 90,List 90,fig,NA,2684,5.083333333,972,0.270792249,2685,BOI,-,-,Please name all of the ways you could use this object. Keep in mind that one object can have many uses. Separate your responses with a comma.,NA,y,9767,NA,NA,2024,8487,NA,NA,NA,"to look at, to plant",1
M20249637_BT,doktuc8sbe,Affordance Norms_MSU_TEX,1,21,2023-04-25T00:33:16+00:00,16.11433101,90,updated stim.csv,Version90.csv,Version 90,List 90,meadow,NA,2698,4.391304348,1631,0.573689476,2699,BOI,-,-,Please name all of the ways you could use this object. Keep in mind that one object can have many uses. Separate your responses with a comma.,NA,y,15830,NA,NA,3306,13459,NA,NA,NA,"look at, to ride through, to observe",1
M20249637_BT,doktuc8sbe,Affordance Norms_MSU_TEX,1,22,2023-04-25T00:33:30+00:00,13.62180305,90,updated stim.csv,Version90.csv,Version 90,List 90,putty,NA,2672,5,2107,0.291045062,2673,BOI,-,-,Please name all of the ways you could use this object. Keep in mind that one object can have many uses. Separate your responses with a comma.,NA,y,13211,NA,NA,1810,11847,NA,NA,NA,"to relieve stress, to fidget with",1
M20249637_BT,doktuc8sbe,Affordance Norms_MSU_TEX,1,23,2023-04-25T00:33:39+00:00,8.950472832,90,updated stim.csv,Version90.csv,Version 90,List 90,blister,NA,2700,5.2,238,0.828938488,2701,BOI,-,-,Please name all of the ways you could use this object. Keep in mind that one object can have many uses. Separate your responses with a comma.,NA,y,8649,NA,NA,3926,7458,NA,NA,NA,to pop,1
M20249637_BT,doktuc8sbe,Affordance Norms_MSU_TEX,1,24,2023-04-25T00:33:53+00:00,14.17449212,90,updated stim.csv,Version90.csv,Version 90,List 90,goggle,NA,2696,4.458333333,1130,0.364132405,2697,BOI,-,-,Please name all of the ways you could use this object. Keep in mind that one object can have many uses. Separate your responses with a comma.,NA,y,13869,NA,NA,2126,12876,NA,NA,NA,to protect ones eyes in a experiment or swimming,1
M20249637_BT,doktuc8sbe,Affordance Norms_MSU_TEX,1,25,2023-04-25T00:34:01+00:00,8.457041025,90,updated stim.csv,Version90.csv,Version 90,List 90,rye,NA,2687,4.407407407,2209,0.622756368,2688,BOI,-,-,Please name all of the ways you could use this object. Keep in mind that one object can have many uses. Separate your responses with a comma.,NA,y,8268,NA,NA,2771,6894,NA,NA,NA,to make alchohol,1
M20249637_BT,doktuc8sbe,Affordance Norms_MSU_TEX,1,26,2023-04-25T00:34:09+00:00,7.819057941,90,updated stim.csv,Version90.csv,Version 90,List 90,plumber,NA,2699,4.44,2011,0.938041459,2700,BOI,-,-,Please name all of the ways you could use this object. Keep in mind that one object can have many uses. Separate your responses with a comma.,NA,y,7509,NA,NA,2531,5789,NA,NA,NA,to clean pipes,1
M20249637_BT,doktuc8sbe,Affordance Norms_MSU_TEX,1,27,2023-04-25T00:34:34+00:00,25.11624289,90,updated stim.csv,Version90.csv,Version 90,List 90,limes,NA,2675,5.782608696,1514,0.972887071,2676,BOI,-,-,Please name all of the ways you could use this object. Keep in mind that one object can have many uses. Separate your responses with a comma.,NA,y,24837,NA,NA,1448,22953,NA,NA,NA,to add as a side to someones course or drink,1
M20249637_BT,doktuc8sbe,Affordance Norms_MSU_TEX,1,28,2023-04-25T00:34:50+00:00,15.66428018,90,updated stim.csv,Version90.csv,Version 90,List 90,pipe,NA,2681,5.653846154,1976,0.248771995,2682,BOI,-,-,Please name all of the ways you could use this object. Keep in mind that one object can have many uses. Separate your responses with a comma.,NA,y,15364,NA,NA,2207,13951,NA,NA,NA,"to use as a weapon, a utility",1
M20249637_BT,doktuc8sbe,Affordance Norms_MSU_TEX,1,29,2023-04-25T00:35:03+00:00,13.37831783,90,updated stim.csv,Version90.csv,Version 90,List 90,timber,NA,2680,4.695652174,2699,0.328081093,2681,BOI,-,-,Please name all of the ways you could use this object. Keep in mind that one object can have many uses. Separate your responses with a comma.,NA,y,13086,NA,NA,3642,11372,NA,NA,NA,"wood, to use as a building tool",1
M20249637_BT,doktuc8sbe,Affordance Norms_MSU_TEX,1,30,2023-04-25T00:35:19+00:00,15.7999022,90,updated stim.csv,Version90.csv,Version 90,List 90,gatekeeper,NA,2683,4.44,1087,0.244346152,2684,BOI,-,-,Please name all of the ways you could use this object. Keep in mind that one object can have many uses. Separate your responses with a comma.,NA,y,15501,NA,NA,1549,12751,NA,NA,NA,"to keep from someone, someone who stays at a gate ",1
M20249637_BT,doktuc8sbe,Affordance Norms_MSU_TEX,1,31,2023-04-25T00:35:24+00:00,4.71041894,90,updated stim.csv,Version90.csv,Version 90,List 90,glasses,NA,2676,6.541666667,1112,0.703319756,2677,BOI,-,-,Please name all of the ways you could use this object. Keep in mind that one object can have many uses. Separate your responses with a comma.,NA,y,4426,NA,NA,1317,2265,NA,NA,NA,to see,1
M20249637_BT,doktuc8sbe,Affordance Norms_MSU_TEX,1,32,2023-04-25T00:35:31+00:00,7.335021973,90,updated stim.csv,Version90.csv,Version 90,List 90,reptile,NA,2679,5,2156,0.599015679,2680,BOI,-,-,Please name all of the ways you could use this object. Keep in mind that one object can have many uses. Separate your responses with a comma.,NA,y,7048,NA,NA,1798,4462,NA,NA,NA,companion,1
M20249637_BT,doktuc8sbe,Affordance Norms_MSU_TEX,1,33,2023-04-25T00:35:43+00:00,11.77158093,90,updated stim.csv,Version90.csv,Version 90,List 90,tubing,NA,2673,4.625,2792,0.587863482,2674,BOI,-,-,Please name all of the ways you could use this object. Keep in mind that one object can have many uses. Separate your responses with a comma.,NA,y,11486,NA,NA,1976,10034,NA,NA,NA,to cover up a sharp edge,1
M20249637_BT,doktuc8sbe,Affordance Norms_MSU_TEX,1,34,2023-04-25T00:36:07+00:00,24.58816099,90,updated stim.csv,Version90.csv,Version 90,List 90,cup,NA,2693,6.043478261,726,0.334300936,2694,BOI,-,-,Please name all of the ways you could use this object. Keep in mind that one object can have many uses. Separate your responses with a comma.,NA,y,24283,NA,NA,1381,23054,NA,NA,NA,"to hold a drink, to use as a circle when drawing, to hold screws, to hold items",1
M20249637_BT,doktuc8sbe,Affordance Norms_MSU_TEX,1,35,2023-04-25T00:36:11+00:00,4.020589113,90,updated stim.csv,Version90.csv,Version 90,List 90,blackheads,NA,2678,4.260869565,230,0.616208827,2679,BOI,-,-,Please name all of the ways you could use this object. Keep in mind that one object can have many uses. Separate your responses with a comma.,NA,y,3841,NA,NA,1875,2734,NA,NA,NA,to pop,1
M20249637_BT,doktuc8sbe,Affordance Norms_MSU_TEX,1,36,2023-04-25T00:36:16+00:00,4.614022017,90,updated stim.csv,Version90.csv,Version 90,List 90,notepaper,NA,2692,5.392857143,1782,0.531133792,2693,BOI,-,-,Please name all of the ways you could use this object. Keep in mind that one object can have many uses. Separate your responses with a comma.,NA,y,4439,NA,NA,1242,3048,NA,NA,NA,to write on,1
M20249637_BT,doktuc8sbe,Affordance Norms_MSU_TEX,1,37,2023-04-25T00:36:24+00:00,8.012130976,90,updated stim.csv,Version90.csv,Version 90,List 90,workbench,NA,2674,6.208333333,2968,0.631953114,2675,BOI,-,-,Please name all of the ways you could use this object. Keep in mind that one object can have many uses. Separate your responses with a comma.,NA,y,7726,NA,NA,1967,6791,NA,NA,NA,to work at and create,1
M20249637_BT,doktuc8sbe,Affordance Norms_MSU_TEX,1,38,2023-04-25T00:36:30+00:00,5.932440996,90,updated stim.csv,Version90.csv,Version 90,List 90,organism,NA,2685,4.727272727,1821,0.127468756,2686,BOI,-,-,Please name all of the ways you could use this object. Keep in mind that one object can have many uses. Separate your responses with a comma.,NA,y,5647,NA,NA,1560,4147,NA,NA,NA,to live?,1
M20249637_BT,doktuc8sbe,Affordance Norms_MSU_TEX,1,39,2023-04-25T00:36:38+00:00,7.514540911,90,updated stim.csv,Version90.csv,Version 90,List 90,buttonhole,NA,2695,5.074074074,382,0.218069327,2696,BOI,-,-,Please name all of the ways you could use this object. Keep in mind that one object can have many uses. Separate your responses with a comma.,NA,y,7225,NA,NA,2100,5991,NA,NA,NA,to use for a button,1
M20249637_BT,doktuc8sbe,Affordance Norms_MSU_TEX,1,40,2023-04-25T00:36:43+00:00,5.062093973,90,updated stim.csv,Version90.csv,Version 90,List 90,curry,NA,2697,4.565217391,731,0.233391783,2698,BOI,-,-,Please name all of the ways you could use this object. Keep in mind that one object can have many uses. Separate your responses with a comma.,NA,y,3849,NA,NA,1426,2705,NA,NA,NA,to eat,1
m20252628,nlmsacgxng,Affordance Norms_MSU_TEX,1,11,2023-04-22T02:22:02+00:00,8.099848032,79,updated stim.csv,Version79.csv,Version 79,List 79,footpath,NA,2351,4.592592593,1037,0.252720376,2352,BOI,-,-,Please name all of the ways you could use this object. Keep in mind that one object can have many uses. Separate your responses with a comma.,NA,y,7628,NA,NA,3577,7389,NA,NA,NA,what you leave when you walk ,1
m20252628,nlmsacgxng,Affordance Norms_MSU_TEX,1,12,2023-04-22T02:22:12+00:00,10.356318,79,updated stim.csv,Version79.csv,Version 79,List 79,headgear,NA,2370,5.625,1266,0.922886061,2371,BOI,-,-,Please name all of the ways you could use this object. Keep in mind that one object can have many uses. Separate your responses with a comma.,NA,y,9903,NA,NA,4585,9787,NA,NA,NA,to wear to not get hurt ,1
