Username,ID,ExperimentName,Session,Trial,Date,TimeDif,"Condition Number","Stimuli File","Order File","Condition Description","Condition Notes",Stimuli*Cue,Stimuli*Answer,Stimuli*Shuffle,"Stimuli*Stimuli Notes",Stimuli*Value,Procedure*Item,"Procedure*Trial Type","Procedure*Max Time","Procedure*Min Time",Procedure*Text,"Procedure*Procedure Notes",Procedure*Shuffle,Response*RT,Response*Response,Response*Accuracy,Response*RTfirst,Response*RTlast,Response*strictAcc,Response*lenientAcc,Response*focus,Response*JOL,Response*Focus
luke.olsen@uconn.edu,pqdxmtof4j,"Affordance Norms_UCONN",1,1,2022-12-07T22:04:12+00:00,11.699313163757,14,"updated stim.csv",Version64.csv,"Version 64","List 64",,,,,,0,Instruct,-,10,"In this section, you will be presented with a series of objects. Please name as many possible uses for this object as you can think of by typing them in the box below each object.",,Instruct1,11160,,,-1,-1,,,,,1
luke.olsen@uconn.edu,pqdxmtof4j,"Affordance Norms_UCONN",1,2,2022-12-07T22:04:24+00:00,12.518425941467,14,"updated stim.csv",Version64.csv,"Version 64","List 64",,,,,,0,Instruct,-,10,"Please keep in mind that a single object will have more than one use. For example, a ball can be thrown or can be bounced or even stepped on. When listing multiple uses for one object, please separate each use with a comma (i.e., thrown, bounced, stepped on)",,Instruct2,11334,,,-1,-1,,,,,1
luke.olsen@uconn.edu,pqdxmtof4j,"Affordance Norms_UCONN",1,3,2022-12-07T22:04:28+00:00,3.6310811042786,14,"updated stim.csv",Version64.csv,"Version 64","List 64",,,,,,0,Instruct,-,-,"Before starting the experiment, you will complete a short practice sesstion. Press ENTER when you are ready to begin.",,Instruct3,2969,,,-1,-1,,,,,1
luke.olsen@uconn.edu,pqdxmtof4j,"Affordance Norms_UCONN",1,4,2022-12-07T22:04:40+00:00,11.892803907394,14,"updated stim.csv",Version64.csv,"Version 64","List 64",shortening,,3002,4.92,2358,3003,BOI,-,-,"Please name all of the ways you could use this object. Keep in mind that one object can have many uses. Separate your responses with a comma.",,n,10791,,,5659,9684,,,,"Baking, cooking",1
luke.olsen@uconn.edu,pqdxmtof4j,"Affordance Norms_UCONN",1,5,2022-12-07T22:04:55+00:00,15.024477958679,14,"updated stim.csv",Version64.csv,"Version 64","List 64",spaghetti,,3003,6,2461,3004,BOI,-,-,"Please name all of the ways you could use this object. Keep in mind that one object can have many uses. Separate your responses with a comma.",,n,14322,,,2229,14014,,,,"Eating, cooking, boiling, throwing",1
luke.olsen@uconn.edu,pqdxmtof4j,"Affordance Norms_UCONN",1,6,2022-12-07T22:05:06+00:00,10.680024147034,14,"updated stim.csv",Version64.csv,"Version 64","List 64",saucer,,3005,5.777777778,2249,3006,BOI,-,-,"Please name all of the ways you could use this object. Keep in mind that one object can have many uses. Separate your responses with a comma.",,n,9362,,,8218,8915,,,,"Throw ",1
luke.olsen@uconn.edu,pqdxmtof4j,"Affordance Norms_UCONN",1,7,2022-12-07T22:05:18+00:00,12.857441902161,14,"updated stim.csv",Version64.csv,"Version 64","List 64",paperwork,,3001,5.625,1866,3002,BOI,-,-,"Please name all of the ways you could use this object. Keep in mind that one object can have many uses. Separate your responses with a comma.",,n,12113,,,3225,11474,,,,"Write,file,categorize",1
luke.olsen@uconn.edu,pqdxmtof4j,"Affordance Norms_UCONN",1,8,2022-12-07T22:05:32+00:00,13.79971408844,14,"updated stim.csv",Version64.csv,"Version 64","List 64",grain,,3004,5.217391304,1143,3005,BOI,-,-,"Please name all of the ways you could use this object. Keep in mind that one object can have many uses. Separate your responses with a comma.",,n,12574,,,5431,12396,,,,"Process, grow, fertilize",1
luke.olsen@uconn.edu,pqdxmtof4j,"Affordance Norms_UCONN",1,9,2022-12-07T22:05:36+00:00,3.7965447902679,14,"updated stim.csv",Version64.csv,"Version 64","List 64",,,,,,0,Instruct,-,-,"You have completed this section. Press ENTER to continue",,"Instruct 5",3084,,,-1,-1,,,,,1
luke.olsen@uconn.edu,pqdxmtof4j,"Affordance Norms_UCONN",1,10,2022-12-07T22:05:39+00:00,2.7148830890656,14,"updated stim.csv",Version64.csv,"Version 64","List 64",,,,,,0,Instruct,-,-,"You will now start the full experiment. Press ENTER when you are ready to begin.",,,1974,,,-1,-1,,,,,1
luke.olsen@uconn.edu,pqdxmtof4j,"Affordance Norms_UCONN",1,11,2022-12-07T22:05:58+00:00,19.531810045242,14,"updated stim.csv",Version64.csv,"Version 64","List 64",pastrami,,1917,5.142857143,1885,1918,BOI,-,-,"Please name all of the ways you could use this object. Keep in mind that one object can have many uses. Separate your responses with a comma.",,y,18350,,,7460,14051,,,,"Make a sandwich, eat, cook",1
luke.olsen@uconn.edu,pqdxmtof4j,"Affordance Norms_UCONN",1,12,2022-12-07T22:06:12+00:00,13.872796058655,14,"updated stim.csv",Version64.csv,"Version 64","List 64",hinge,,1894,4.333333333,1290,1895,BOI,-,-,"Please name all of the ways you could use this object. Keep in mind that one object can have many uses. Separate your responses with a comma.",,y,12976,,,2354,9916,,,,"Create a door, open and close anything, ",1
luke.olsen@uconn.edu,pqdxmtof4j,"Affordance Norms_UCONN",1,13,2022-12-07T22:06:32+00:00,20.040676832199,14,"updated stim.csv",Version64.csv,"Version 64","List 64",godfather,,1913,5.043478261,1127,1914,BOI,-,-,"Please name all of the ways you could use this object. Keep in mind that one object can have many uses. Separate your responses with a comma.",,y,19377,,,2662,18815,,,,"Babysit kids, be guardian ",1
luke.olsen@uconn.edu,pqdxmtof4j,"Affordance Norms_UCONN",1,14,2022-12-07T22:06:43+00:00,10.753558158875,14,"updated stim.csv",Version64.csv,"Version 64","List 64",stilt,,1918,4.652173913,2536,1919,BOI,-,-,"Please name all of the ways you could use this object. Keep in mind that one object can have many uses. Separate your responses with a comma.",,y,9433,,,2759,8651,,,,"Stand on, walk on, ",1
luke.olsen@uconn.edu,pqdxmtof4j,"Affordance Norms_UCONN",1,15,2022-12-07T22:07:03+00:00,19.85302901268,14,"updated stim.csv",Version64.csv,"Version 64","List 64",hairline,,1919,4.92,1213,1920,BOI,-,-,"Please name all of the ways you could use this object. Keep in mind that one object can have many uses. Separate your responses with a comma.",,y,18342,,,4014,17453,,,,"Hairline transplant, style, grow, shave ",1
luke.olsen@uconn.edu,pqdxmtof4j,"Affordance Norms_UCONN",1,16,2022-12-07T22:07:10+00:00,6.7974119186401,14,"updated stim.csv",Version64.csv,"Version 64","List 64",taillight,,1911,5,2625,1912,BOI,-,-,"Please name all of the ways you could use this object. Keep in mind that one object can have many uses. Separate your responses with a comma.",,y,6056,,,2550,5655,,,,"Fix, turn on ",1
luke.olsen@uconn.edu,pqdxmtof4j,"Affordance Norms_UCONN",1,17,2022-12-07T22:07:29+00:00,19.282751083374,14,"updated stim.csv",Version64.csv,"Version 64","List 64",hotel,,1899,5.695652174,1322,1900,BOI,-,-,"Please name all of the ways you could use this object. Keep in mind that one object can have many uses. Separate your responses with a comma.",,y,18159,,,2028,17870,,,,"Stay at, buy, use gym, use swimming pool, use ice machine ",1
luke.olsen@uconn.edu,pqdxmtof4j,"Affordance Norms_UCONN",1,18,2022-12-07T22:07:42+00:00,12.969993829727,14,"updated stim.csv",Version64.csv,"Version 64","List 64",opal,,1903,4.6,1810,1904,BOI,-,-,"Please name all of the ways you could use this object. Keep in mind that one object can have many uses. Separate your responses with a comma.",,y,11190,,,5930,10906,,,,"Make a ring, make art",1
luke.olsen@uconn.edu,pqdxmtof4j,"Affordance Norms_UCONN",1,19,2022-12-07T22:08:07+00:00,24.898418188095,14,"updated stim.csv",Version64.csv,"Version 64","List 64",strings,,1916,5.260869565,2569,1917,BOI,-,-,"Please name all of the ways you could use this object. Keep in mind that one object can have many uses. Separate your responses with a comma.",,y,23802,,,2330,23348,,,,"Play an instrument, sew something, hang something ",1
luke.olsen@uconn.edu,pqdxmtof4j,"Affordance Norms_UCONN",1,20,2022-12-07T22:08:15+00:00,8.5187029838562,14,"updated stim.csv",Version64.csv,"Version 64","List 64",liquor,,1900,5.961538462,1525,1901,BOI,-,-,"Please name all of the ways you could use this object. Keep in mind that one object can have many uses. Separate your responses with a comma.",,y,7734,,,2156,5481,,,,"Drink, sell, buy",1
luke.olsen@uconn.edu,pqdxmtof4j,"Affordance Norms_UCONN",1,21,2022-12-07T22:08:43+00:00,27.448348999023,14,"updated stim.csv",Version64.csv,"Version 64","List 64",sideboard,,1910,5.222222222,2374,1911,BOI,-,-,"Please name all of the ways you could use this object. Keep in mind that one object can have many uses. Separate your responses with a comma.",,y,26355,,,19452,25911,,,,"Use for storage, decorate ",0.832
luke.olsen@uconn.edu,pqdxmtof4j,"Affordance Norms_UCONN",1,22,2022-12-07T22:08:53+00:00,10.530503988266,14,"updated stim.csv",Version64.csv,"Version 64","List 64",ambulance,,1891,5,33,1892,BOI,-,-,"Please name all of the ways you could use this object. Keep in mind that one object can have many uses. Separate your responses with a comma.",,y,9787,,,2134,9571,,,,"Ride in, pull over for, save lives",1
luke.olsen@uconn.edu,pqdxmtof4j,"Affordance Norms_UCONN",1,23,2022-12-07T22:09:01+00:00,7.8552639484406,14,"updated stim.csv",Version64.csv,"Version 64","List 64",asphalt,,1892,5.384615385,86,1893,BOI,-,-,"Please name all of the ways you could use this object. Keep in mind that one object can have many uses. Separate your responses with a comma.",,y,7114,,,1986,6808,,,,"Walk on, drive on, bike on ",1
luke.olsen@uconn.edu,pqdxmtof4j,"Affordance Norms_UCONN",1,24,2022-12-07T22:09:10+00:00,8.7494270801544,14,"updated stim.csv",Version64.csv,"Version 64","List 64",footboard,,1897,5.086956522,1033,1898,BOI,-,-,"Please name all of the ways you could use this object. Keep in mind that one object can have many uses. Separate your responses with a comma.",,y,7748,,,3190,7213,,,,"Keep feet on bed ",1
luke.olsen@uconn.edu,pqdxmtof4j,"Affordance Norms_UCONN",1,25,2022-12-07T22:09:20+00:00,10.169243812561,14,"updated stim.csv",Version64.csv,"Version 64","List 64",ford,,1901,4.416666667,1042,1902,BOI,-,-,"Please name all of the ways you could use this object. Keep in mind that one object can have many uses. Separate your responses with a comma.",,y,8720,,,3782,7809,,,,"Invest, buy products ",1
luke.olsen@uconn.edu,pqdxmtof4j,"Affordance Norms_UCONN",1,26,2022-12-07T22:09:31+00:00,10.807837963104,14,"updated stim.csv",Version64.csv,"Version 64","List 64",butterscotch,,1914,4.769230769,378,1915,BOI,-,-,"Please name all of the ways you could use this object. Keep in mind that one object can have many uses. Separate your responses with a comma.",,y,9659,,,1945,8341,,,,"Cook, eat, flavor ",1
luke.olsen@uconn.edu,pqdxmtof4j,"Affordance Norms_UCONN",1,27,2022-12-07T22:10:09+00:00,38.509407043457,14,"updated stim.csv",Version64.csv,"Version 64","List 64",larvae,,1920,4.375,1466,1921,BOI,-,-,"Please name all of the ways you could use this object. Keep in mind that one object can have many uses. Separate your responses with a comma.",,y,35720,,,3606,35455,,,,"Help heal wounds ",0.78
luke.olsen@uconn.edu,pqdxmtof4j,"Affordance Norms_UCONN",1,28,2022-12-07T22:10:18+00:00,8.4533841609955,14,"updated stim.csv",Version64.csv,"Version 64","List 64",broiler,,1893,5.25,329,1894,BOI,-,-,"Please name all of the ways you could use this object. Keep in mind that one object can have many uses. Separate your responses with a comma.",,y,7757,,,2098,6806,,,,"Cook, simmer",1
luke.olsen@uconn.edu,pqdxmtof4j,"Affordance Norms_UCONN",1,29,2022-12-07T22:10:29+00:00,11.629129886627,14,"updated stim.csv",Version64.csv,"Version 64","List 64",bourbon,,1905,5.173913043,290,1906,BOI,-,-,"Please name all of the ways you could use this object. Keep in mind that one object can have many uses. Separate your responses with a comma.",,y,10968,,,3111,10376,,,,"Drink, cook with, sell, buy",1
luke.olsen@uconn.edu,pqdxmtof4j,"Affordance Norms_UCONN",1,30,2022-12-07T22:10:41+00:00,11.203366994858,14,"updated stim.csv",Version64.csv,"Version 64","List 64",tool,,1898,6.304347826,2730,1899,BOI,-,-,"Please name all of the ways you could use this object. Keep in mind that one object can have many uses. Separate your responses with a comma.",,y,10457,,,3346,10127,,,,"Create, destroy ",1
luke.olsen@uconn.edu,pqdxmtof4j,"Affordance Norms_UCONN",1,31,2022-12-07T22:11:03+00:00,22.679500102997,14,"updated stim.csv",Version64.csv,"Version 64","List 64",backdoor,,1907,5.2,114,1908,BOI,-,-,"Please name all of the ways you could use this object. Keep in mind that one object can have many uses. Separate your responses with a comma.",,y,21917,,,4169,21211,,,,"Sneaking out, bringing in groceries, letting pets outside ",1
luke.olsen@uconn.edu,pqdxmtof4j,"Affordance Norms_UCONN",1,32,2022-12-07T22:11:17+00:00,13.175060033798,14,"updated stim.csv",Version64.csv,"Version 64","List 64",garlic,,1896,6.32,1080,1897,BOI,-,-,"Please name all of the ways you could use this object. Keep in mind that one object can have many uses. Separate your responses with a comma.",,y,12456,,,1978,12114,,,,"Flavor, cook with, eat, clear sinus with",1
luke.olsen@uconn.edu,pqdxmtof4j,"Affordance Norms_UCONN",1,33,2022-12-07T22:11:27+00:00,10.392508983612,14,"updated stim.csv",Version64.csv,"Version 64","List 64",cafeteria,,1904,4.8,397,1905,BOI,-,-,"Please name all of the ways you could use this object. Keep in mind that one object can have many uses. Separate your responses with a comma.",,y,9368,,,1954,8783,,,,"Cook, eat, buy",1
luke.olsen@uconn.edu,pqdxmtof4j,"Affordance Norms_UCONN",1,34,2022-12-07T22:11:36+00:00,9.5809288024902,14,"updated stim.csv",Version64.csv,"Version 64","List 64",megaphone,,1915,6.2,1640,1916,BOI,-,-,"Please name all of the ways you could use this object. Keep in mind that one object can have many uses. Separate your responses with a comma.",,y,8923,,,1999,7624,,,,"Talk loudly, communicate",1
luke.olsen@uconn.edu,pqdxmtof4j,"Affordance Norms_UCONN",1,35,2022-12-07T22:11:54+00:00,17.317841053009,14,"updated stim.csv",Version64.csv,"Version 64","List 64",riverbank,,1902,4.64,2173,1903,BOI,-,-,"Please name all of the ways you could use this object. Keep in mind that one object can have many uses. Separate your responses with a comma.",,y,15031,,,3440,14759,,,,"Clean clothes, play, swim, wash hands ",1
luke.olsen@uconn.edu,pqdxmtof4j,"Affordance Norms_UCONN",1,36,2022-12-07T22:12:05+00:00,11.472980976105,14,"updated stim.csv",Version64.csv,"Version 64","List 64",guardhouse,,1906,4.28,1185,1907,BOI,-,-,"Please name all of the ways you could use this object. Keep in mind that one object can have many uses. Separate your responses with a comma.",,y,10370,,,2174,8366,,,,"Protect, store supplies",1
luke.olsen@uconn.edu,pqdxmtof4j,"Affordance Norms_UCONN",1,37,2022-12-07T22:12:16+00:00,10.742503166199,14,"updated stim.csv",Version64.csv,"Version 64","List 64",cat,,1909,5.913043478,455,1910,BOI,-,-,"Please name all of the ways you could use this object. Keep in mind that one object can have many uses. Separate your responses with a comma.",,y,10070,,,2844,9338,,,,"Pet, play with, sleep with ",1
luke.olsen@uconn.edu,pqdxmtof4j,"Affordance Norms_UCONN",1,38,2022-12-07T22:12:27+00:00,10.703388929367,14,"updated stim.csv",Version64.csv,"Version 64","List 64",dormitory,,1895,4.821428571,831,1896,BOI,-,-,"Please name all of the ways you could use this object. Keep in mind that one object can have many uses. Separate your responses with a comma.",,y,9414,,,2768,7746,,,,"Study, play, sleep",1
luke.olsen@uconn.edu,pqdxmtof4j,"Affordance Norms_UCONN",1,39,2022-12-07T22:12:35+00:00,8.0076808929443,14,"updated stim.csv",Version64.csv,"Version 64","List 64",catapult,,1912,4.84,457,1913,BOI,-,-,"Please name all of the ways you could use this object. Keep in mind that one object can have many uses. Separate your responses with a comma.",,y,7155,,,2162,5917,,,,"Launch something ",1
luke.olsen@uconn.edu,pqdxmtof4j,"Affordance Norms_UCONN",1,40,2022-12-07T22:12:53+00:00,18.010433197021,14,"updated stim.csv",Version64.csv,"Version 64","List 64",lime,,1908,5.52,1512,1909,BOI,-,-,"Please name all of the ways you could use this object. Keep in mind that one object can have many uses. Separate your responses with a comma.",,y,17273,,,2303,16905,,,,"Seasoning food, putting in drinks ",1
luke.olsen@uconn.edu,pqdxmtof4j,"Affordance Norms_UCONN",1,41,2022-12-07T22:12:56+00:00,3.3691527843475,14,"updated stim.csv",Version64.csv,"Version 64","List 64",,,,,,0,Instruct,,,"You will now be asked a few questions about your experience today.",,"Instruct 4",2378,,,-1,-1,,,,,1
