Username,ID,ExperimentName,Session,Trial,Date,TimeDif,Condition.Number,Stimuli.File,Order.File,Condition.Description,Condition.Notes,Stimuli.Cue,Stimuli.Answer,Stimuli.Shuffle,Stimuli.Stimuli.Notes,Stimuli.Value,Stimuli.Rand,Procedure.Item,Procedure.Trial.Type,Procedure.Max.Time,Procedure.Min.Time,Procedure.Text,Procedure.Procedure.Notes,Procedure.Shuffle,Response.RT,Response.Response,Response.Accuracy,Response.RTfirst,Response.RTlast,Response.strictAcc,Response.lenientAcc,Response.focus,Response.JOL,Response.Focus
54e32a60fdf99b3eae9de85b,5kbj8u4b1d,Affordance Norms_Prolific,1,11,2023-01-11T20:59:28+00:00,8.90238595,16,updated stim.csv,Version16.csv,Version 16,List 16,paintbox,NA,478,4.44,1848,0.023317079,479,BOI,-,-,Please name all of the ways you could use this object. Keep in mind that one object can have many uses. Separate your responses with a comma.,NA,y,8153,NA,NA,2595,7645,NA,NA,NA,"drop, carry, fill, burn",1
54e32a60fdf99b3eae9de85b,5kbj8u4b1d,Affordance Norms_Prolific,1,12,2023-01-11T20:59:40+00:00,12.18620896,16,updated stim.csv,Version16.csv,Version 16,List 16,thigh,NA,454,5.76,2680,0.793867773,455,BOI,-,-,Please name all of the ways you could use this object. Keep in mind that one object can have many uses. Separate your responses with a comma.,NA,y,11274,NA,NA,5605,10635,NA,NA,NA,"hit, bind, rub, wash",1
54e32a60fdf99b3eae9de85b,5kbj8u4b1d,Affordance Norms_Prolific,1,13,2023-01-11T20:59:49+00:00,9.364153862,16,updated stim.csv,Version16.csv,Version 16,List 16,mutton,NA,474,5,1729,0.300420837,475,BOI,-,-,Please name all of the ways you could use this object. Keep in mind that one object can have many uses. Separate your responses with a comma.,NA,y,8234,NA,NA,1409,7703,NA,NA,NA,"eat, chew, cook, burn, cut",1
54e32a60fdf99b3eae9de85b,5kbj8u4b1d,Affordance Norms_Prolific,1,14,2023-01-11T20:59:59+00:00,9.996391058,16,updated stim.csv,Version16.csv,Version 16,List 16,spatula,NA,461,5.708333333,2463,0.284019134,462,BOI,-,-,Please name all of the ways you could use this object. Keep in mind that one object can have many uses. Separate your responses with a comma.,NA,y,8901,NA,NA,1928,8420,NA,NA,NA,"scoop, swerve, wash, hold",1
54e32a60fdf99b3eae9de85b,5kbj8u4b1d,Affordance Norms_Prolific,1,15,2023-01-11T21:00:09+00:00,9.294538021,16,updated stim.csv,Version16.csv,Version 16,List 16,bayonet,NA,471,4.916666667,174,0.190081034,472,BOI,-,-,Please name all of the ways you could use this object. Keep in mind that one object can have many uses. Separate your responses with a comma.,NA,y,8402,NA,NA,3075,7687,NA,NA,NA,"hoist, jab, clean, stab",1
54e32a60fdf99b3eae9de85b,5kbj8u4b1d,Affordance Norms_Prolific,1,16,2023-01-11T21:00:20+00:00,11.54821014,16,updated stim.csv,Version16.csv,Version 16,List 16,easel,NA,470,4.72,885,0.908131854,471,BOI,-,-,Please name all of the ways you could use this object. Keep in mind that one object can have many uses. Separate your responses with a comma.,NA,y,10496,NA,NA,2186,9829,NA,NA,NA,"paint, adjust, burn, carry",1
54e32a60fdf99b3eae9de85b,5kbj8u4b1d,Affordance Norms_Prolific,1,17,2023-01-11T21:00:30+00:00,10.35074782,16,updated stim.csv,Version16.csv,Version 16,List 16,policewoman,NA,479,4.904761905,2023,0.204056132,480,BOI,-,-,Please name all of the ways you could use this object. Keep in mind that one object can have many uses. Separate your responses with a comma.,NA,y,9385,NA,NA,1850,8717,NA,NA,NA,"talk, carry, pay, smile",1
54e32a60fdf99b3eae9de85b,5kbj8u4b1d,Affordance Norms_Prolific,1,18,2023-01-11T21:00:39+00:00,8.132121086,16,updated stim.csv,Version16.csv,Version 16,List 16,mortician,NA,451,4.833333333,1686,0.045579899,452,BOI,-,-,Please name all of the ways you could use this object. Keep in mind that one object can have many uses. Separate your responses with a comma.,NA,y,7062,NA,NA,1943,6629,NA,NA,NA,"hire, avoid, hit",1
54e32a60fdf99b3eae9de85b,5kbj8u4b1d,Affordance Norms_Prolific,1,19,2023-01-11T21:00:46+00:00,7.620616913,16,updated stim.csv,Version16.csv,Version 16,List 16,rupee,NA,480,4.826086957,2208,0.272774302,481,BOI,-,-,Please name all of the ways you could use this object. Keep in mind that one object can have many uses. Separate your responses with a comma.,NA,y,6786,NA,NA,1541,4656,NA,NA,NA,"carry, drop, melt",1
54e32a60fdf99b3eae9de85b,5kbj8u4b1d,Affordance Norms_Prolific,1,20,2023-01-11T21:00:56+00:00,10.22887301,16,updated stim.csv,Version16.csv,Version 16,List 16,nickel,NA,467,5.814814815,1766,0.592286248,468,BOI,-,-,Please name all of the ways you could use this object. Keep in mind that one object can have many uses. Separate your responses with a comma.,NA,y,9172,NA,NA,1935,8660,NA,NA,NA,"bite, hold, carry, throw",1
54e32a60fdf99b3eae9de85b,5kbj8u4b1d,Affordance Norms_Prolific,1,21,2023-01-11T21:01:09+00:00,12.82014108,16,updated stim.csv,Version16.csv,Version 16,List 16,jean,NA,477,5.956521739,1378,0.274659644,478,BOI,-,-,Please name all of the ways you could use this object. Keep in mind that one object can have many uses. Separate your responses with a comma.,NA,y,11634,NA,NA,2144,11099,NA,NA,NA,"wear, wash, carry, fold, tear",1
54e32a60fdf99b3eae9de85b,5kbj8u4b1d,Affordance Norms_Prolific,1,22,2023-01-11T21:01:18+00:00,8.670011997,16,updated stim.csv,Version16.csv,Version 16,List 16,pole,NA,475,5.32,2020,0.760021962,476,BOI,-,-,Please name all of the ways you could use this object. Keep in mind that one object can have many uses. Separate your responses with a comma.,NA,y,7731,NA,NA,2325,7246,NA,NA,NA,"climb, slide, clean, bend",1
54e32a60fdf99b3eae9de85b,5kbj8u4b1d,Affordance Norms_Prolific,1,23,2023-01-11T21:01:25+00:00,6.989927053,16,updated stim.csv,Version16.csv,Version 16,List 16,soap,NA,452,6.434782609,2437,0.273714235,453,BOI,-,-,Please name all of the ways you could use this object. Keep in mind that one object can have many uses. Separate your responses with a comma.,NA,y,5660,NA,NA,1830,5157,NA,NA,NA,"lather, wet, rub",1
54e32a60fdf99b3eae9de85b,5kbj8u4b1d,Affordance Norms_Prolific,1,24,2023-01-11T21:01:35+00:00,9.762499809,16,updated stim.csv,Version16.csv,Version 16,List 16,checklist,NA,457,4.464285714,501,0.535152959,458,BOI,-,-,Please name all of the ways you could use this object. Keep in mind that one object can have many uses. Separate your responses with a comma.,NA,y,8655,NA,NA,2337,8248,NA,NA,NA,"write, check, rip, toss",1
54e32a60fdf99b3eae9de85b,5kbj8u4b1d,Affordance Norms_Prolific,1,25,2023-01-11T21:01:40+00:00,5.74754405,16,updated stim.csv,Version16.csv,Version 16,List 16,note,NA,459,5.434782609,1781,0.11652109,460,BOI,-,-,Please name all of the ways you could use this object. Keep in mind that one object can have many uses. Separate your responses with a comma.,NA,y,4691,NA,NA,1874,4203,NA,NA,NA,"tear, hide, hold",1
54e32a60fdf99b3eae9de85b,5kbj8u4b1d,Affordance Norms_Prolific,1,26,2023-01-11T21:01:46+00:00,5.104447126,16,updated stim.csv,Version16.csv,Version 16,List 16,sardine,NA,453,4.869565217,2242,0.892913517,454,BOI,-,-,Please name all of the ways you could use this object. Keep in mind that one object can have many uses. Separate your responses with a comma.,NA,y,4318,NA,NA,1123,3273,NA,NA,NA,"eat, chew, cook",1
54e32a60fdf99b3eae9de85b,5kbj8u4b1d,Affordance Norms_Prolific,1,27,2023-01-11T21:01:53+00:00,7.829879999,16,updated stim.csv,Version16.csv,Version 16,List 16,cocaine,NA,468,5.913043478,585,0.903342053,469,BOI,-,-,Please name all of the ways you could use this object. Keep in mind that one object can have many uses. Separate your responses with a comma.,NA,y,6848,NA,NA,1199,6063,NA,NA,NA,"snort, chop, buy",1
54e32a60fdf99b3eae9de85b,5kbj8u4b1d,Affordance Norms_Prolific,1,28,2023-01-11T21:02:02+00:00,8.749956846,16,updated stim.csv,Version16.csv,Version 16,List 16,cellar,NA,476,4.6,472,0.992638044,477,BOI,-,-,Please name all of the ways you could use this object. Keep in mind that one object can have many uses. Separate your responses with a comma.,NA,y,7797,NA,NA,2922,6883,NA,NA,NA,"walk, light, clean",1
54e32a60fdf99b3eae9de85b,5kbj8u4b1d,Affordance Norms_Prolific,1,29,2023-01-11T21:02:08+00:00,5.553406,16,updated stim.csv,Version16.csv,Version 16,List 16,apprentice,NA,466,4.321428571,65,0.613222279,467,BOI,-,-,Please name all of the ways you could use this object. Keep in mind that one object can have many uses. Separate your responses with a comma.,NA,y,4588,NA,NA,1687,4038,NA,NA,NA,"teach, talk, listen",1
54e32a60fdf99b3eae9de85b,5kbj8u4b1d,Affordance Norms_Prolific,1,30,2023-01-11T21:02:15+00:00,7.72014308,16,updated stim.csv,Version16.csv,Version 16,List 16,coal,NA,458,4.875,579,0.494851678,459,BOI,-,-,Please name all of the ways you could use this object. Keep in mind that one object can have many uses. Separate your responses with a comma.,NA,y,6441,NA,NA,1277,5944,NA,NA,NA,"burn, pile, hold, throw",1
54e32a60fdf99b3eae9de85b,5kbj8u4b1d,Affordance Norms_Prolific,1,31,2023-01-11T21:02:23+00:00,7.825499058,16,updated stim.csv,Version16.csv,Version 16,List 16,scientist,NA,456,4.47826087,2274,0.507361683,457,BOI,-,-,Please name all of the ways you could use this object. Keep in mind that one object can have many uses. Separate your responses with a comma.,NA,y,6610,NA,NA,1375,5999,NA,NA,NA,"talk, teach, learn, listen",1
54e32a60fdf99b3eae9de85b,5kbj8u4b1d,Affordance Norms_Prolific,1,32,2023-01-11T21:02:29+00:00,5.882148027,16,updated stim.csv,Version16.csv,Version 16,List 16,linen,NA,462,5.875,1517,0.282871373,463,BOI,-,-,Please name all of the ways you could use this object. Keep in mind that one object can have many uses. Separate your responses with a comma.,NA,y,4673,NA,NA,1204,3937,NA,NA,NA,"fold, clean, dry",1
54e32a60fdf99b3eae9de85b,5kbj8u4b1d,Affordance Norms_Prolific,1,33,2023-01-11T21:02:37+00:00,7.907411814,16,updated stim.csv,Version16.csv,Version 16,List 16,stoop,NA,473,4.5,2548,0.965520337,474,BOI,-,-,Please name all of the ways you could use this object. Keep in mind that one object can have many uses. Separate your responses with a comma.,NA,y,6896,NA,NA,2139,6397,NA,NA,NA,"step, stand, walk, wash",1
54e32a60fdf99b3eae9de85b,5kbj8u4b1d,Affordance Norms_Prolific,1,34,2023-01-11T21:02:44+00:00,6.692066193,16,updated stim.csv,Version16.csv,Version 16,List 16,lip,NA,463,5.52173913,1521,0.029003979,464,BOI,-,-,Please name all of the ways you could use this object. Keep in mind that one object can have many uses. Separate your responses with a comma.,NA,y,5533,NA,NA,1730,5118,NA,NA,NA,"bite, lick, kiss",1
54e32a60fdf99b3eae9de85b,5kbj8u4b1d,Affordance Norms_Prolific,1,35,2023-01-11T21:02:51+00:00,7.022176981,16,updated stim.csv,Version16.csv,Version 16,List 16,raindrop,NA,460,5.208333333,2131,0.395585786,461,BOI,-,-,Please name all of the ways you could use this object. Keep in mind that one object can have many uses. Separate your responses with a comma.,NA,y,6081,NA,NA,3593,5503,NA,NA,NA,"feel, catch",1
54e32a60fdf99b3eae9de85b,5kbj8u4b1d,Affordance Norms_Prolific,1,36,2023-01-11T21:02:57+00:00,6.175565004,16,updated stim.csv,Version16.csv,Version 16,List 16,lake,NA,465,5.035714286,1452,0.957672416,466,BOI,-,-,Please name all of the ways you could use this object. Keep in mind that one object can have many uses. Separate your responses with a comma.,NA,y,5219,NA,NA,1515,4697,NA,NA,NA,"swim, fish, boat",1
54e32a60fdf99b3eae9de85b,5kbj8u4b1d,Affordance Norms_Prolific,1,37,2023-01-11T21:03:02+00:00,4.795665026,16,updated stim.csv,Version16.csv,Version 16,List 16,genital,NA,464,5.826086957,1095,0.838010994,465,BOI,-,-,Please name all of the ways you could use this object. Keep in mind that one object can have many uses. Separate your responses with a comma.,NA,y,3928,NA,NA,1487,3136,NA,NA,NA,"touch, rub",1
54e32a60fdf99b3eae9de85b,5kbj8u4b1d,Affordance Norms_Prolific,1,38,2023-01-11T21:03:08+00:00,6.166808844,16,updated stim.csv,Version16.csv,Version 16,List 16,satin,NA,455,5.125,2246,0.101934862,456,BOI,-,-,Please name all of the ways you could use this object. Keep in mind that one object can have many uses. Separate your responses with a comma.,NA,y,5112,NA,NA,1544,4515,NA,NA,NA,"touch, clean, dry",1
54e32a60fdf99b3eae9de85b,5kbj8u4b1d,Affordance Norms_Prolific,1,39,2023-01-11T21:03:13+00:00,5.645719051,16,updated stim.csv,Version16.csv,Version 16,List 16,paraphernalia,NA,472,4.5,1871,0.999105159,473,BOI,-,-,Please name all of the ways you could use this object. Keep in mind that one object can have many uses. Separate your responses with a comma.,NA,y,4537,NA,NA,2265,4067,NA,NA,NA,"hold, collect",1
54e32a60fdf99b3eae9de85b,5kbj8u4b1d,Affordance Norms_Prolific,1,40,2023-01-11T21:03:20+00:00,6.425571918,16,updated stim.csv,Version16.csv,Version 16,List 16,collar,NA,469,5.12,600,0.026191584,470,BOI,-,-,Please name all of the ways you could use this object. Keep in mind that one object can have many uses. Separate your responses with a comma.,NA,y,5595,NA,NA,1964,4398,NA,NA,NA,"wash, dry, touch",1
55bd6a44fdf99b4c1b12562d,ccctev8q59,Affordance Norms_Prolific,1,11,2023-01-13T01:11:15+00:00,15.58624887,42,updated stim.csv,Version42.csv,Version 42,List 42,tree,NA,1237,5.84,2772,0.324741809,1238,BOI,-,-,Please name all of the ways you could use this object. Keep in mind that one object can have many uses. Separate your responses with a comma.,NA,y,15029,NA,NA,3148,13731,NA,NA,NA,"swing, furniture, fire",1
55bd6a44fdf99b4c1b12562d,ccctev8q59,Affordance Norms_Prolific,1,12,2023-01-13T01:11:41+00:00,26.17999697,42,updated stim.csv,Version42.csv,Version 42,List 42,portfolio,NA,1256,4.8,2039,0.492204735,1257,BOI,-,-,Please name all of the ways you could use this object. Keep in mind that one object can have many uses. Separate your responses with a comma.,NA,y,25607,NA,NA,10232,23686,NA,NA,NA,"artwork, resume, job application",1
55bd6a44fdf99b4c1b12562d,ccctev8q59,Affordance Norms_Prolific,1,13,2023-01-13T01:12:02+00:00,20.80070806,42,updated stim.csv,Version42.csv,Version 42,List 42,beefcake,NA,1249,4.458333333,190,0.594337665,1250,BOI,-,-,Please name all of the ways you could use this object. Keep in mind that one object can have many uses. Separate your responses with a comma.,NA,y,20223,NA,NA,3639,18756,NA,NA,NA,"eat, cook, photograph",1
55bd6a44fdf99b4c1b12562d,ccctev8q59,Affordance Norms_Prolific,1,14,2023-01-13T01:12:11+00:00,8.694719076,42,updated stim.csv,Version42.csv,Version 42,List 42,Donut,NA,1235,NA,3003,0.365184586,1236,BOI,-,-,Please name all of the ways you could use this object. Keep in mind that one object can have many uses. Separate your responses with a comma.,NA,y,8348,NA,NA,2012,5971,NA,NA,NA,"fry, eat, cook",1
55bd6a44fdf99b4c1b12562d,ccctev8q59,Affordance Norms_Prolific,1,15,2023-01-13T01:12:22+00:00,10.86762404,42,updated stim.csv,Version42.csv,Version 42,List 42,tooth,NA,1241,6.037037037,2731,0.844875472,1242,BOI,-,-,Please name all of the ways you could use this object. Keep in mind that one object can have many uses. Separate your responses with a comma.,NA,y,10516,NA,NA,2719,7925,NA,NA,NA,"chew, bite, smile, speak",1
55bd6a44fdf99b4c1b12562d,ccctev8q59,Affordance Norms_Prolific,1,16,2023-01-13T01:12:33+00:00,10.86449599,42,updated stim.csv,Version42.csv,Version 42,List 42,antihistamine,NA,1248,5.260869565,49,0.522980549,1249,BOI,-,-,Please name all of the ways you could use this object. Keep in mind that one object can have many uses. Separate your responses with a comma.,NA,y,10508,NA,NA,3989,5371,NA,NA,NA,medicate,1
55bd6a44fdf99b4c1b12562d,ccctev8q59,Affordance Norms_Prolific,1,17,2023-01-13T01:12:40+00:00,7.632656813,42,updated stim.csv,Version42.csv,Version 42,List 42,vermouth,NA,1244,4.318181818,2851,0.228104734,1245,BOI,-,-,Please name all of the ways you could use this object. Keep in mind that one object can have many uses. Separate your responses with a comma.,NA,y,7295,NA,NA,2122,2856,NA,NA,NA,drink,1
55bd6a44fdf99b4c1b12562d,ccctev8q59,Affordance Norms_Prolific,1,18,2023-01-13T01:12:51+00:00,10.80570006,42,updated stim.csv,Version42.csv,Version 42,List 42,tightrope,NA,1238,4.590909091,2695,0.5539317,1239,BOI,-,-,Please name all of the ways you could use this object. Keep in mind that one object can have many uses. Separate your responses with a comma.,NA,y,10459,NA,NA,2024,8924,NA,NA,NA,"balance, cross, walk",1
55bd6a44fdf99b4c1b12562d,ccctev8q59,Affordance Norms_Prolific,1,19,2023-01-13T01:13:07+00:00,16.42086792,42,updated stim.csv,Version42.csv,Version 42,List 42,hairbrush,NA,1233,6.48,1210,0.804838118,1234,BOI,-,-,Please name all of the ways you could use this object. Keep in mind that one object can have many uses. Separate your responses with a comma.,NA,y,16063,NA,NA,2426,14296,NA,NA,NA,"brush hair, use as a microphone",1
55bd6a44fdf99b4c1b12562d,ccctev8q59,Affordance Norms_Prolific,1,20,2023-01-13T01:13:20+00:00,12.1384511,42,updated stim.csv,Version42.csv,Version 42,List 42,fossil,NA,1245,4.925925926,1049,0.874093482,1246,BOI,-,-,Please name all of the ways you could use this object. Keep in mind that one object can have many uses. Separate your responses with a comma.,NA,y,11743,NA,NA,3499,10381,NA,NA,NA,"display, research, dig up",1
55bd6a44fdf99b4c1b12562d,ccctev8q59,Affordance Norms_Prolific,1,21,2023-01-13T01:13:54+00:00,34.53955507,42,updated stim.csv,Version42.csv,Version 42,List 42,ramp,NA,1253,4.666666667,2136,0.713067963,1254,BOI,-,-,Please name all of the ways you could use this object. Keep in mind that one object can have many uses. Separate your responses with a comma.,NA,y,33850,NA,NA,2643,31232,NA,NA,NA,"climb, skate on it, walk on it, slide down",1
55bd6a44fdf99b4c1b12562d,ccctev8q59,Affordance Norms_Prolific,1,22,2023-01-13T01:14:29+00:00,34.5987699,42,updated stim.csv,Version42.csv,Version 42,List 42,fluid,NA,1239,4.923076923,1018,0.626399248,1240,BOI,-,-,Please name all of the ways you could use this object. Keep in mind that one object can have many uses. Separate your responses with a comma.,NA,y,34034,NA,NA,4050,32924,NA,NA,NA,"drink it, wash with it, swim, bodily functions",1
55bd6a44fdf99b4c1b12562d,ccctev8q59,Affordance Norms_Prolific,1,23,2023-01-13T01:14:54+00:00,25.18478799,42,updated stim.csv,Version42.csv,Version 42,List 42,flashlight,NA,1251,5.869565217,1002,0.527294364,1252,BOI,-,-,Please name all of the ways you could use this object. Keep in mind that one object can have many uses. Separate your responses with a comma.,NA,y,24433,NA,NA,8132,20610,NA,NA,NA,"hold, point",1
55bd6a44fdf99b4c1b12562d,ccctev8q59,Affordance Norms_Prolific,1,24,2023-01-13T01:15:11+00:00,17.55894399,42,updated stim.csv,Version42.csv,Version 42,List 42,crypt,NA,1254,4.541666667,718,0.045845513,1255,BOI,-,-,Please name all of the ways you could use this object. Keep in mind that one object can have many uses. Separate your responses with a comma.,NA,y,17191,NA,NA,2726,14643,NA,NA,NA,burial,1
55bd6a44fdf99b4c1b12562d,ccctev8q59,Affordance Norms_Prolific,1,25,2023-01-13T01:15:25+00:00,13.24363804,42,updated stim.csv,Version42.csv,Version 42,List 42,cornfield,NA,1234,4.739130435,646,0.867365742,1235,BOI,-,-,Please name all of the ways you could use this object. Keep in mind that one object can have many uses. Separate your responses with a comma.,NA,y,12919,NA,NA,4564,10128,NA,NA,NA,"farming, painting",1
55bd6a44fdf99b4c1b12562d,ccctev8q59,Affordance Norms_Prolific,1,26,2023-01-13T01:15:33+00:00,8.084974051,42,updated stim.csv,Version42.csv,Version 42,List 42,commode,NA,1259,5.481481481,610,0.117401626,1260,BOI,-,-,Please name all of the ways you could use this object. Keep in mind that one object can have many uses. Separate your responses with a comma.,NA,y,7771,NA,NA,1897,5256,NA,NA,NA,toileting,1
55bd6a44fdf99b4c1b12562d,ccctev8q59,Affordance Norms_Prolific,1,27,2023-01-13T01:16:01+00:00,27.95826101,42,updated stim.csv,Version42.csv,Version 42,List 42,woman,NA,1243,5.333333333,2955,0.245954644,1244,BOI,-,-,Please name all of the ways you could use this object. Keep in mind that one object can have many uses. Separate your responses with a comma.,NA,y,27370,NA,NA,8133,25719,NA,NA,NA,"mother, worker, politician, administrator, partner",1
55bd6a44fdf99b4c1b12562d,ccctev8q59,Affordance Norms_Prolific,1,28,2023-01-13T01:16:21+00:00,20.519835,42,updated stim.csv,Version42.csv,Version 42,List 42,ashes,NA,1240,4.862068966,83,0.70407494,1241,BOI,-,-,Please name all of the ways you could use this object. Keep in mind that one object can have many uses. Separate your responses with a comma.,NA,y,19926,NA,NA,3596,18375,NA,NA,NA,"compost, jewellery",1
55bd6a44fdf99b4c1b12562d,ccctev8q59,Affordance Norms_Prolific,1,29,2023-01-13T01:16:30+00:00,8.949803829,42,updated stim.csv,Version42.csv,Version 42,List 42,vendor,NA,1242,5,2847,0.807258877,1243,BOI,-,-,Please name all of the ways you could use this object. Keep in mind that one object can have many uses. Separate your responses with a comma.,NA,y,8607,NA,NA,4257,7732,NA,NA,NA,buy from them,1
55bd6a44fdf99b4c1b12562d,ccctev8q59,Affordance Norms_Prolific,1,30,2023-01-13T01:16:38+00:00,7.773363113,42,updated stim.csv,Version42.csv,Version 42,List 42,tomb,NA,1247,4.739130435,2724,0.147761726,1248,BOI,-,-,Please name all of the ways you could use this object. Keep in mind that one object can have many uses. Separate your responses with a comma.,NA,y,7446,NA,NA,1791,7085,NA,NA,NA,use it for burial,1
55bd6a44fdf99b4c1b12562d,ccctev8q59,Affordance Norms_Prolific,1,31,2023-01-13T01:17:12+00:00,33.7679491,42,updated stim.csv,Version42.csv,Version 42,List 42,label,NA,1250,5.375,1442,0.592697272,1251,BOI,-,-,Please name all of the ways you could use this object. Keep in mind that one object can have many uses. Separate your responses with a comma.,NA,y,33202,NA,NA,3396,32440,NA,NA,NA,"write on it, stick it somewhere, name something, list instructions",1
55bd6a44fdf99b4c1b12562d,ccctev8q59,Affordance Norms_Prolific,1,32,2023-01-13T01:17:24+00:00,12.10653687,42,updated stim.csv,Version42.csv,Version 42,List 42,carnival,NA,1232,5.125,434,0.34861203,1233,BOI,-,-,Please name all of the ways you could use this object. Keep in mind that one object can have many uses. Separate your responses with a comma.,NA,y,11747,NA,NA,3265,8481,NA,NA,NA,"celebration, party",1
55bd6a44fdf99b4c1b12562d,ccctev8q59,Affordance Norms_Prolific,1,33,2023-01-13T01:17:42+00:00,18.50827003,42,updated stim.csv,Version42.csv,Version 42,List 42,chaplain,NA,1257,4.72,495,0.966721274,1258,BOI,-,-,Please name all of the ways you could use this object. Keep in mind that one object can have many uses. Separate your responses with a comma.,NA,y,18182,NA,NA,2657,16838,NA,NA,NA,"prayer, comfort, wisdom",1
55bd6a44fdf99b4c1b12562d,ccctev8q59,Affordance Norms_Prolific,1,34,2023-01-13T01:18:06+00:00,23.97983098,42,updated stim.csv,Version42.csv,Version 42,List 42,envelope,NA,1252,5.64,913,0.787642352,1253,BOI,-,-,Please name all of the ways you could use this object. Keep in mind that one object can have many uses. Separate your responses with a comma.,NA,y,23359,NA,NA,3688,22843,NA,NA,NA,"post it, put something in it",1
55bd6a44fdf99b4c1b12562d,ccctev8q59,Affordance Norms_Prolific,1,35,2023-01-13T01:18:24+00:00,17.66965795,42,updated stim.csv,Version42.csv,Version 42,List 42,deerskin,NA,1258,4.826086957,766,0.793854008,1259,BOI,-,-,Please name all of the ways you could use this object. Keep in mind that one object can have many uses. Separate your responses with a comma.,NA,y,17152,NA,NA,1598,12886,NA,NA,NA,"clothing, warmth, sew it, cut it",1
55bd6a44fdf99b4c1b12562d,ccctev8q59,Affordance Norms_Prolific,1,36,2023-01-13T01:18:31+00:00,7.160219193,42,updated stim.csv,Version42.csv,Version 42,List 42,bootlace,NA,1236,5.64,283,0.844378633,1237,BOI,-,-,Please name all of the ways you could use this object. Keep in mind that one object can have many uses. Separate your responses with a comma.,NA,y,6808,NA,NA,1813,2611,NA,NA,NA,tie it,1
55bd6a44fdf99b4c1b12562d,ccctev8q59,Affordance Norms_Prolific,1,37,2023-01-13T01:18:39+00:00,7.693423986,42,updated stim.csv,Version42.csv,Version 42,List 42,cracker,NA,1260,5.24,676,0.510191288,1261,BOI,-,-,Please name all of the ways you could use this object. Keep in mind that one object can have many uses. Separate your responses with a comma.,NA,y,7196,NA,NA,2045,5317,NA,NA,NA,"pull, eat",1
55bd6a44fdf99b4c1b12562d,ccctev8q59,Affordance Norms_Prolific,1,38,2023-01-13T01:18:48+00:00,8.759348869,42,updated stim.csv,Version42.csv,Version 42,List 42,moneybags,NA,1231,5,1678,0.303590974,1232,BOI,-,-,Please name all of the ways you could use this object. Keep in mind that one object can have many uses. Separate your responses with a comma.,NA,y,8433,NA,NA,1809,6950,NA,NA,NA," fill, carry",1
55bd6a44fdf99b4c1b12562d,ccctev8q59,Affordance Norms_Prolific,1,39,2023-01-13T01:18:53+00:00,5.910759926,42,updated stim.csv,Version42.csv,Version 42,List 42,stallion,NA,1246,4.88,2505,0.27792808,1247,BOI,-,-,Please name all of the ways you could use this object. Keep in mind that one object can have many uses. Separate your responses with a comma.,NA,y,5558,NA,NA,1683,3724,NA,NA,NA,ride,1
55bd6a44fdf99b4c1b12562d,ccctev8q59,Affordance Norms_Prolific,1,40,2023-01-13T01:19:13+00:00,19.49692512,42,updated stim.csv,Version42.csv,Version 42,List 42,grandparent,NA,1255,5.56,1152,0.167861538,1256,BOI,-,-,Please name all of the ways you could use this object. Keep in mind that one object can have many uses. Separate your responses with a comma.,NA,y,19132,NA,NA,5675,17952,NA,NA,NA,"love, care, advice, support",1
56a8bccb7f24720006942472,4rm1kkwgn1,Affordance Norms_Prolific,1,11,2023-01-09T17:02:28+00:00,31.75983691,18,updated stim.csv,Version18.csv,Version 18,List 18,eyeball,NA,516,5.555555556,930,0.887767133,517,BOI,-,-,Please name all of the ways you could use this object. Keep in mind that one object can have many uses. Separate your responses with a comma.,NA,y,30914,NA,NA,5473,28868,NA,NA,NA,"see, turn, look up, look down",1
56a8bccb7f24720006942472,4rm1kkwgn1,Affordance Norms_Prolific,1,12,2023-01-09T17:03:34+00:00,66.55793715,18,updated stim.csv,Version18.csv,Version 18,List 18,dishwasher,NA,522,5.592592593,803,0.012255055,523,BOI,-,-,Please name all of the ways you could use this object. Keep in mind that one object can have many uses. Separate your responses with a comma.,NA,y,65730,NA,NA,10328,63763,NA,NA,NA,"clean, water, turn on, turn off",1
56a8bccb7f24720006942472,4rm1kkwgn1,Affordance Norms_Prolific,1,13,2023-01-09T17:03:42+00:00,7.301841974,18,updated stim.csv,Version18.csv,Version 18,List 18,capacitor,NA,527,4.375,423,0.29017358,528,BOI,-,-,Please name all of the ways you could use this object. Keep in mind that one object can have many uses. Separate your responses with a comma.,NA,y,6765,NA,NA,2697,4686,NA,NA,NA,no idea,1
56a8bccb7f24720006942472,4rm1kkwgn1,Affordance Norms_Prolific,1,14,2023-01-09T17:04:15+00:00,33.20530486,18,updated stim.csv,Version18.csv,Version 18,List 18,packaging,NA,524,5.038461538,1838,0.013887713,525,BOI,-,-,Please name all of the ways you could use this object. Keep in mind that one object can have many uses. Separate your responses with a comma.,NA,y,32317,NA,NA,4517,30427,NA,NA,NA,"tape, box, mail",1
56a8bccb7f24720006942472,4rm1kkwgn1,Affordance Norms_Prolific,1,15,2023-01-09T17:04:42+00:00,27.07815599,18,updated stim.csv,Version18.csv,Version 18,List 18,semen,NA,523,5.269230769,2310,0.728002682,524,BOI,-,-,Please name all of the ways you could use this object. Keep in mind that one object can have many uses. Separate your responses with a comma.,NA,y,26272,NA,NA,12726,21652,NA,NA,NA,"liquid, cream",1
56a8bccb7f24720006942472,4rm1kkwgn1,Affordance Norms_Prolific,1,16,2023-01-09T17:05:06+00:00,23.89976311,18,updated stim.csv,Version18.csv,Version 18,List 18,cosmetician,NA,520,4.8,655,0.584332234,521,BOI,-,-,Please name all of the ways you could use this object. Keep in mind that one object can have many uses. Separate your responses with a comma.,NA,y,23077,NA,NA,3916,16051,NA,NA,NA,"beauty, face, body",1
56a8bccb7f24720006942472,4rm1kkwgn1,Affordance Norms_Prolific,1,17,2023-01-09T17:07:39+00:00,153.070159,18,updated stim.csv,Version18.csv,Version 18,List 18,adapter,NA,532,4.583333333,13,0.866092268,533,BOI,-,-,Please name all of the ways you could use this object. Keep in mind that one object can have many uses. Separate your responses with a comma.,NA,y,152272,NA,NA,37992,105669,NA,NA,NA,"socket, plug, electric",1
56a8bccb7f24720006942472,4rm1kkwgn1,Affordance Norms_Prolific,1,18,2023-01-09T17:10:12+00:00,153.1509969,18,updated stim.csv,Version18.csv,Version 18,List 18,leopard,NA,534,5.260869565,1492,0.304149864,535,BOI,-,-,Please name all of the ways you could use this object. Keep in mind that one object can have many uses. Separate your responses with a comma.,NA,y,152303,NA,NA,1664,68360,NA,NA,NA,"animal, big cat, run, race, chase",1
56a8bccb7f24720006942472,4rm1kkwgn1,Affordance Norms_Prolific,1,19,2023-01-09T17:11:38+00:00,85.50832605,18,updated stim.csv,Version18.csv,Version 18,List 18,sweater,NA,531,6.592592593,2604,0.037244496,532,BOI,-,-,Please name all of the ways you could use this object. Keep in mind that one object can have many uses. Separate your responses with a comma.,NA,y,84702,NA,NA,5342,79842,NA,NA,NA,"wool, warm, jumper, cold weather",1
56a8bccb7f24720006942472,4rm1kkwgn1,Affordance Norms_Prolific,1,20,2023-01-09T17:12:44+00:00,66.22627592,18,updated stim.csv,Version18.csv,Version 18,List 18,boy,NA,521,4.962962963,296,0.235786191,522,BOI,-,-,Please name all of the ways you could use this object. Keep in mind that one object can have many uses. Separate your responses with a comma.,NA,y,65106,NA,NA,2766,57077,NA,NA,NA,"son, male, grandson, nephew",1
56a8bccb7f24720006942472,4rm1kkwgn1,Affordance Norms_Prolific,1,21,2023-01-09T17:13:07+00:00,23.35366702,18,updated stim.csv,Version18.csv,Version 18,List 18,upholstery,NA,526,5.461538462,2827,0.065017905,527,BOI,-,-,Please name all of the ways you could use this object. Keep in mind that one object can have many uses. Separate your responses with a comma.,NA,y,21367,NA,NA,2598,19397,NA,NA,NA,"furniture, chair, stool, sofa",1
56a8bccb7f24720006942472,4rm1kkwgn1,Affordance Norms_Prolific,1,22,2023-01-09T17:14:38+00:00,90.57821012,18,updated stim.csv,Version18.csv,Version 18,List 18,inventor,NA,529,4.391304348,1366,0.759903521,530,BOI,-,-,Please name all of the ways you could use this object. Keep in mind that one object can have many uses. Separate your responses with a comma.,NA,y,89816,NA,NA,2527,86214,NA,NA,NA,"creator, scientist",1
56a8bccb7f24720006942472,4rm1kkwgn1,Affordance Norms_Prolific,1,23,2023-01-09T17:15:35+00:00,56.93503594,18,updated stim.csv,Version18.csv,Version 18,List 18,croquet,NA,517,4.84,701,0.291263355,518,BOI,-,-,Please name all of the ways you could use this object. Keep in mind that one object can have many uses. Separate your responses with a comma.,NA,y,56116,NA,NA,2590,52462,NA,NA,NA,"game, ball, stick",1
56a8bccb7f24720006942472,4rm1kkwgn1,Affordance Norms_Prolific,1,24,2023-01-09T17:16:01+00:00,26.43729496,18,updated stim.csv,Version18.csv,Version 18,List 18,chimpanzee,NA,512,4.260869565,525,0.027839326,513,BOI,-,-,Please name all of the ways you could use this object. Keep in mind that one object can have many uses. Separate your responses with a comma.,NA,y,25593,NA,NA,1821,23958,NA,NA,NA,"monkey, animal, jungle, zoo, cage",1
56a8bccb7f24720006942472,4rm1kkwgn1,Affordance Norms_Prolific,1,25,2023-01-09T17:16:24+00:00,22.86482596,18,updated stim.csv,Version18.csv,Version 18,List 18,girlfriend,NA,536,5.730769231,1109,0.219592421,537,BOI,-,-,Please name all of the ways you could use this object. Keep in mind that one object can have many uses. Separate your responses with a comma.,NA,y,22055,NA,NA,5568,14798,NA,NA,NA,"partner, fiancee",1
56a8bccb7f24720006942472,4rm1kkwgn1,Affordance Norms_Prolific,1,26,2023-01-09T17:16:48+00:00,24.018121,18,updated stim.csv,Version18.csv,Version 18,List 18,armor,NA,530,5.333333333,74,0.187270689,531,BOI,-,-,Please name all of the ways you could use this object. Keep in mind that one object can have many uses. Separate your responses with a comma.,NA,y,23223,NA,NA,5237,21581,NA,NA,NA,"metal, battle, costume",1
56a8bccb7f24720006942472,4rm1kkwgn1,Affordance Norms_Prolific,1,27,2023-01-09T17:17:44+00:00,56.01872802,18,updated stim.csv,Version18.csv,Version 18,List 18,orphan,NA,514,5.259259259,1824,0.409410216,515,BOI,-,-,Please name all of the ways you could use this object. Keep in mind that one object can have many uses. Separate your responses with a comma.,NA,y,55171,NA,NA,2958,23760,NA,NA,NA,"solitary, alone",1
56a8bccb7f24720006942472,4rm1kkwgn1,Affordance Norms_Prolific,1,28,2023-01-09T17:18:16+00:00,32.27609301,18,updated stim.csv,Version18.csv,Version 18,List 18,bellboy,NA,535,4.8,197,0.341449251,536,BOI,-,-,Please name all of the ways you could use this object. Keep in mind that one object can have many uses. Separate your responses with a comma.,NA,y,31009,NA,NA,11078,27334,NA,NA,NA,"helper, suitcases",1
56a8bccb7f24720006942472,4rm1kkwgn1,Affordance Norms_Prolific,1,29,2023-01-09T17:18:37+00:00,21.10738111,18,updated stim.csv,Version18.csv,Version 18,List 18,breastplate,NA,519,5.136363636,314,0.791797957,520,BOI,-,-,Please name all of the ways you could use this object. Keep in mind that one object can have many uses. Separate your responses with a comma.,NA,y,20194,NA,NA,2144,18556,NA,NA,NA,"armour, metal, battle, protection",1
56a8bccb7f24720006942472,4rm1kkwgn1,Affordance Norms_Prolific,1,30,2023-01-09T17:18:55+00:00,17.30730605,18,updated stim.csv,Version18.csv,Version 18,List 18,appetizer,NA,513,6.12,60,0.088357206,514,BOI,-,-,Please name all of the ways you could use this object. Keep in mind that one object can have many uses. Separate your responses with a comma.,NA,y,16504,NA,NA,1939,14647,NA,NA,NA,"starter, food",1
56a8bccb7f24720006942472,4rm1kkwgn1,Affordance Norms_Prolific,1,31,2023-01-09T17:19:11+00:00,15.85908985,18,updated stim.csv,Version18.csv,Version 18,List 18,thread,NA,528,4.76,2684,0.433773044,529,BOI,-,-,Please name all of the ways you could use this object. Keep in mind that one object can have many uses. Separate your responses with a comma.,NA,y,15312,NA,NA,3006,13813,NA,NA,NA,"thin, cotton, wool, sew",1
56a8bccb7f24720006942472,4rm1kkwgn1,Affordance Norms_Prolific,1,32,2023-01-09T17:19:31+00:00,20.05023098,18,updated stim.csv,Version18.csv,Version 18,List 18,espresso,NA,533,5.24,921,0.53592974,534,BOI,-,-,Please name all of the ways you could use this object. Keep in mind that one object can have many uses. Separate your responses with a comma.,NA,y,19483,NA,NA,2026,18050,NA,NA,NA,"coffee, energy, black, strong",1
56a8bccb7f24720006942472,4rm1kkwgn1,Affordance Norms_Prolific,1,33,2023-01-09T17:19:51+00:00,20.18751502,18,updated stim.csv,Version18.csv,Version 18,List 18,guard,NA,515,5,1184,0.014898881,516,BOI,-,-,Please name all of the ways you could use this object. Keep in mind that one object can have many uses. Separate your responses with a comma.,NA,y,19680,NA,NA,7409,17370,NA,NA,NA,"secure, security",1
56a8bccb7f24720006942472,4rm1kkwgn1,Affordance Norms_Prolific,1,34,2023-01-09T17:20:17+00:00,25.9498291,18,updated stim.csv,Version18.csv,Version 18,List 18,Elevator,NA,537,5.486522911,901,0.750646332,538,BOI,-,-,Please name all of the ways you could use this object. Keep in mind that one object can have many uses. Separate your responses with a comma.,NA,y,25163,NA,NA,2040,23365,NA,NA,NA,"lift, mechanical, electrical",1
56a8bccb7f24720006942472,4rm1kkwgn1,Affordance Norms_Prolific,1,35,2023-01-09T17:20:32+00:00,15.0565629,18,updated stim.csv,Version18.csv,Version 18,List 18,croissant,NA,518,6,699,0.195516583,519,BOI,-,-,Please name all of the ways you could use this object. Keep in mind that one object can have many uses. Separate your responses with a comma.,NA,y,14539,NA,NA,2207,12753,NA,NA,NA,"food, bread, tasty",1
56a8bccb7f24720006942472,4rm1kkwgn1,Affordance Norms_Prolific,1,36,2023-01-09T17:20:54+00:00,21.920434,18,updated stim.csv,Version18.csv,Version 18,List 18,coupon,NA,540,4.821428571,667,0.305307499,541,BOI,-,-,Please name all of the ways you could use this object. Keep in mind that one object can have many uses. Separate your responses with a comma.,NA,y,21149,NA,NA,2548,19556,NA,NA,NA,"ticket, paper, discount",1
56a8bccb7f24720006942472,4rm1kkwgn1,Affordance Norms_Prolific,1,37,2023-01-09T17:21:13+00:00,19.43874907,18,updated stim.csv,Version18.csv,Version 18,List 18,programmer,NA,511,4.695652174,2071,0.979417302,512,BOI,-,-,Please name all of the ways you could use this object. Keep in mind that one object can have many uses. Separate your responses with a comma.,NA,y,18922,NA,NA,5231,15580,NA,NA,NA,"computer, operator, ",1
56a8bccb7f24720006942472,4rm1kkwgn1,Affordance Norms_Prolific,1,38,2023-01-09T17:21:29+00:00,16.24590087,18,updated stim.csv,Version18.csv,Version 18,List 18,tenderloin,NA,539,4.962962963,2663,0.710184563,540,BOI,-,-,Please name all of the ways you could use this object. Keep in mind that one object can have many uses. Separate your responses with a comma.,NA,y,15762,NA,NA,1666,14159,NA,NA,NA,"steak, tasty, meat",1
56a8bccb7f24720006942472,4rm1kkwgn1,Affordance Norms_Prolific,1,39,2023-01-09T17:21:52+00:00,23.10902715,18,updated stim.csv,Version18.csv,Version 18,List 18,basin,NA,538,4.818181818,161,0.378920968,539,BOI,-,-,Please name all of the ways you could use this object. Keep in mind that one object can have many uses. Separate your responses with a comma.,NA,y,22261,NA,NA,1863,20723,NA,NA,NA,"sink, taps, water, hot, cold",1
56a8bccb7f24720006942472,4rm1kkwgn1,Affordance Norms_Prolific,1,40,2023-01-09T17:22:15+00:00,22.17973399,18,updated stim.csv,Version18.csv,Version 18,List 18,skewer,NA,525,4.5,2396,0.276241995,526,BOI,-,-,Please name all of the ways you could use this object. Keep in mind that one object can have many uses. Separate your responses with a comma.,NA,y,21305,NA,NA,2133,19661,NA,NA,NA,"kebab, metal, rod, meat",1
57160a57cd6ea20011dae249,4s32fm4vc2,Affordance Norms_Prolific,1,11,2023-01-11T00:56:36+00:00,39.77630186,82,updated stim.csv,Version82.csv,Version 82,List 82,shrine,NA,2443,4.555555556,2367,0.930741572,2444,BOI,-,-,Please name all of the ways you could use this object. Keep in mind that one object can have many uses. Separate your responses with a comma.,NA,y,38771,NA,NA,4589,21452,NA,NA,NA,"to pray to, to take photos of, to show off to others, to feel calm in",1
57160a57cd6ea20011dae249,4s32fm4vc2,Affordance Norms_Prolific,1,12,2023-01-11T00:57:04+00:00,28.01427722,82,updated stim.csv,Version82.csv,Version 82,List 82,dumpling,NA,2449,4.826086957,867,0.576231689,2450,BOI,-,-,Please name all of the ways you could use this object. Keep in mind that one object can have many uses. Separate your responses with a comma.,NA,y,26968,NA,NA,2795,21851,NA,NA,NA,"to eat, to play catch, to throw at someone, to throw through a window, to put in soup",1
57160a57cd6ea20011dae249,4s32fm4vc2,Affordance Norms_Prolific,1,13,2023-01-11T00:57:48+00:00,44.13878083,82,updated stim.csv,Version82.csv,Version 82,List 82,tablet,NA,2448,6.517241379,2619,0.393271427,2449,BOI,-,-,Please name all of the ways you could use this object. Keep in mind that one object can have many uses. Separate your responses with a comma.,NA,y,43063,NA,NA,4069,40180,NA,NA,NA,"to play games on, to rest a cup on, to watch videos on, to do banking, to contact friends, to do homework, to undertake paid work, to do word processing",1
57160a57cd6ea20011dae249,4s32fm4vc2,Affordance Norms_Prolific,1,14,2023-01-11T00:58:35+00:00,46.68336511,82,updated stim.csv,Version82.csv,Version 82,List 82,blender,NA,2442,5.739130435,236,0.878994835,2443,BOI,-,-,Please name all of the ways you could use this object. Keep in mind that one object can have many uses. Separate your responses with a comma.,NA,y,45442,NA,NA,1965,43224,NA,NA,NA,"to make smoothies, to make babyfood, to make soft food for elderly, to create milkshakes, to bake with, to cook with, to use as a weapon, to use as a decorative piece to sell your home, for a tv show",1
57160a57cd6ea20011dae249,4s32fm4vc2,Affordance Norms_Prolific,1,15,2023-01-11T00:59:10+00:00,35.03251791,82,updated stim.csv,Version82.csv,Version 82,List 82,card,NA,2437,5.56,430,0.002227114,2438,BOI,-,-,Please name all of the ways you could use this object. Keep in mind that one object can have many uses. Separate your responses with a comma.,NA,y,33955,NA,NA,2880,30864,NA,NA,NA,"to make origami, to make a greetings card, to create art, to give someone a paper cut, to make aeroplanes, to make business cards",1
57160a57cd6ea20011dae249,4s32fm4vc2,Affordance Norms_Prolific,1,16,2023-01-11T01:00:01+00:00,50.97657394,82,updated stim.csv,Version82.csv,Version 82,List 82,candlestick,NA,2441,6,411,0.314982696,2442,BOI,-,-,Please name all of the ways you could use this object. Keep in mind that one object can have many uses. Separate your responses with a comma.,NA,y,49937,NA,NA,2596,46740,NA,NA,NA,"to hit someone, to use to break things, to hold candles, as a hammer",1
57160a57cd6ea20011dae249,4s32fm4vc2,Affordance Norms_Prolific,1,17,2023-01-11T01:00:26+00:00,25.08088303,82,updated stim.csv,Version82.csv,Version 82,List 82,announcer,NA,2439,4.296296296,44,0.293508408,2440,BOI,-,-,Please name all of the ways you could use this object. Keep in mind that one object can have many uses. Separate your responses with a comma.,NA,y,24081,NA,NA,3025,19985,NA,NA,NA,"to tell me the timer, to make me feel less alone, to keep life interesting",1
57160a57cd6ea20011dae249,4s32fm4vc2,Affordance Norms_Prolific,1,18,2023-01-11T01:00:50+00:00,24.70756507,82,updated stim.csv,Version82.csv,Version 82,List 82,petroleum,NA,2438,4.333333333,1934,0.18972014,2439,BOI,-,-,Please name all of the ways you could use this object. Keep in mind that one object can have many uses. Separate your responses with a comma.,NA,y,23669,NA,NA,3577,18457,NA,NA,NA,"to burn for heat, to burn things down, to cook with, to fuel my car",1
57160a57cd6ea20011dae249,4s32fm4vc2,Affordance Norms_Prolific,1,19,2023-01-11T01:01:33+00:00,43.03869104,82,updated stim.csv,Version82.csv,Version 82,List 82,backboard,NA,2431,4.565217391,112,0.288232898,2432,BOI,-,-,Please name all of the ways you could use this object. Keep in mind that one object can have many uses. Separate your responses with a comma.,NA,y,42034,NA,NA,4016,40410,NA,NA,NA,"to stabilize furniture, to create artwork, to cover a floor during decorating, as a backdrop for a theatre production, to board up broken windows.",1
57160a57cd6ea20011dae249,4s32fm4vc2,Affordance Norms_Prolific,1,20,2023-01-11T01:01:52+00:00,19.03831291,82,updated stim.csv,Version82.csv,Version 82,List 82,buffet,NA,2451,5.409090909,346,0.793112316,2452,BOI,-,-,Please name all of the ways you could use this object. Keep in mind that one object can have many uses. Separate your responses with a comma.,NA,y,18272,NA,NA,2120,15552,NA,NA,NA,"to feed myself, to save money, to meet new people, to avoid cooking",1
57160a57cd6ea20011dae249,4s32fm4vc2,Affordance Norms_Prolific,1,21,2023-01-11T01:02:29+00:00,36.83235002,82,updated stim.csv,Version82.csv,Version 82,List 82,punter,NA,2454,4.464285714,2100,0.817623298,2455,BOI,-,-,Please name all of the ways you could use this object. Keep in mind that one object can have many uses. Separate your responses with a comma.,NA,y,35775,NA,NA,6726,33782,NA,NA,NA,"to kick a ball at someone I dislike, to run a gambling ring based on distance punted, to smash dinner plates for a Greek wedding",1
57160a57cd6ea20011dae249,4s32fm4vc2,Affordance Norms_Prolific,1,22,2023-01-11T01:02:47+00:00,17.27806401,82,updated stim.csv,Version82.csv,Version 82,List 82,socket,NA,2458,5.24,2440,0.765868539,2459,BOI,-,-,Please name all of the ways you could use this object. Keep in mind that one object can have many uses. Separate your responses with a comma.,NA,y,16474,NA,NA,2467,15275,NA,NA,NA,"to power devices, to test electronics",1
57160a57cd6ea20011dae249,4s32fm4vc2,Affordance Norms_Prolific,1,23,2023-01-11T01:03:12+00:00,25.39897513,82,updated stim.csv,Version82.csv,Version 82,List 82,classmate,NA,2460,5.363636364,549,0.902201284,2461,BOI,-,-,Please name all of the ways you could use this object. Keep in mind that one object can have many uses. Separate your responses with a comma.,NA,y,24360,NA,NA,3177,22418,NA,NA,NA,"to get knowledge from, to get friendship from, to have sex with, to go to parties with, to cook with",1
57160a57cd6ea20011dae249,4s32fm4vc2,Affordance Norms_Prolific,1,24,2023-01-11T01:03:38+00:00,26.16346884,82,updated stim.csv,Version82.csv,Version 82,List 82,arrowhead,NA,2457,4.44,77,0.878580468,2458,BOI,-,-,Please name all of the ways you could use this object. Keep in mind that one object can have many uses. Separate your responses with a comma.,NA,y,25121,NA,NA,3270,20686,NA,NA,NA,"to cut open a fish, to carve a bowl and spoon, to perform surgery",1
57160a57cd6ea20011dae249,4s32fm4vc2,Affordance Norms_Prolific,1,25,2023-01-11T01:04:07+00:00,28.44727898,82,updated stim.csv,Version82.csv,Version 82,List 82,slingshot,NA,2433,5.4,2414,0.097911449,2434,BOI,-,-,Please name all of the ways you could use this object. Keep in mind that one object can have many uses. Separate your responses with a comma.,NA,y,27339,NA,NA,2262,25454,NA,NA,NA,"to known someone out, to get messages over a wall, to throw sweets to my friend's mouths",1
57160a57cd6ea20011dae249,4s32fm4vc2,Affordance Norms_Prolific,1,26,2023-01-11T01:04:42+00:00,35.27024603,82,updated stim.csv,Version82.csv,Version 82,List 82,mattress,NA,2453,6.72,1626,0.986617127,2454,BOI,-,-,Please name all of the ways you could use this object. Keep in mind that one object can have many uses. Separate your responses with a comma.,NA,y,34251,NA,NA,2534,25542,NA,NA,NA,"as a toboggan down the stairs, as a wrestling mat, to perform stuntman moves, as a floor sofa",1
57160a57cd6ea20011dae249,4s32fm4vc2,Affordance Norms_Prolific,1,27,2023-01-11T01:05:10+00:00,28.11717916,82,updated stim.csv,Version82.csv,Version 82,List 82,net,NA,2459,5.208333333,1751,0.421115039,2460,BOI,-,-,Please name all of the ways you could use this object. Keep in mind that one object can have many uses. Separate your responses with a comma.,NA,y,27091,NA,NA,2254,23751,NA,NA,NA,"to capture a burglar, to go fishing, to secure garden items during a storm",1
57160a57cd6ea20011dae249,4s32fm4vc2,Affordance Norms_Prolific,1,28,2023-01-11T01:05:33+00:00,23.11532784,82,updated stim.csv,Version82.csv,Version 82,List 82,Crab,NA,2432,4.889189189,674,0.893830777,2433,BOI,-,-,Please name all of the ways you could use this object. Keep in mind that one object can have many uses. Separate your responses with a comma.,NA,y,22016,NA,NA,2523,19899,NA,NA,NA,"to eat, to watch for entertainment, to pinch people I don't like",1
57160a57cd6ea20011dae249,4s32fm4vc2,Affordance Norms_Prolific,1,29,2023-01-11T01:05:58+00:00,24.82423496,82,updated stim.csv,Version82.csv,Version 82,List 82,saxophone,NA,2456,6.222222222,2257,0.438334646,2457,BOI,-,-,Please name all of the ways you could use this object. Keep in mind that one object can have many uses. Separate your responses with a comma.,NA,y,23822,NA,NA,4437,16430,NA,NA,NA,"to create music, to create a band, as a weapon",1
57160a57cd6ea20011dae249,4s32fm4vc2,Affordance Norms_Prolific,1,30,2023-01-11T01:06:34+00:00,36.34544802,82,updated stim.csv,Version82.csv,Version 82,List 82,oven,NA,2445,5.923076923,1831,0.613415562,2446,BOI,-,-,Please name all of the ways you could use this object. Keep in mind that one object can have many uses. Separate your responses with a comma.,NA,y,35311,NA,NA,2060,32078,NA,NA,NA,"to cook food from fridge, to cook from frozen, to steam foods, to bake foods, to burn things, to reheat foods",1
57160a57cd6ea20011dae249,4s32fm4vc2,Affordance Norms_Prolific,1,31,2023-01-11T01:06:59+00:00,24.78768516,82,updated stim.csv,Version82.csv,Version 82,List 82,buck,NA,2440,4.291666667,340,0.941213361,2441,BOI,-,-,Please name all of the ways you could use this object. Keep in mind that one object can have many uses. Separate your responses with a comma.,NA,y,23777,NA,NA,4776,21696,NA,NA,NA,"to spend, to gamble with, to buy services, to put in the bank.",1
57160a57cd6ea20011dae249,4s32fm4vc2,Affordance Norms_Prolific,1,32,2023-01-11T01:07:29+00:00,29.9432478,82,updated stim.csv,Version82.csv,Version 82,List 82,doorframe,NA,2455,5.086956522,823,0.680509669,2456,BOI,-,-,Please name all of the ways you could use this object. Keep in mind that one object can have many uses. Separate your responses with a comma.,NA,y,28857,NA,NA,6067,26835,NA,NA,NA,"To hang from, to exercise hanging from, to shelter during an earthquake. ",1
57160a57cd6ea20011dae249,4s32fm4vc2,Affordance Norms_Prolific,1,33,2023-01-11T01:07:52+00:00,22.75462914,82,updated stim.csv,Version82.csv,Version 82,List 82,burglar,NA,2447,4.260869565,366,0.636597323,2448,BOI,-,-,Please name all of the ways you could use this object. Keep in mind that one object can have many uses. Separate your responses with a comma.,NA,y,21719,NA,NA,2978,20467,NA,NA,NA,"to get anger out, to get revenge on all criminals, as a punching bag",1
57160a57cd6ea20011dae249,4s32fm4vc2,Affordance Norms_Prolific,1,34,2023-01-11T01:08:14+00:00,22.24808002,82,updated stim.csv,Version82.csv,Version 82,List 82,peppermint,NA,2452,5.391304348,1923,0.275923071,2453,BOI,-,-,Please name all of the ways you could use this object. Keep in mind that one object can have many uses. Separate your responses with a comma.,NA,y,21141,NA,NA,2588,17973,NA,NA,NA,"to deter spiders, to settle your stomach, to freshen breath, to get a sugar lift.",1
57160a57cd6ea20011dae249,4s32fm4vc2,Affordance Norms_Prolific,1,35,2023-01-11T01:08:48+00:00,33.78815889,82,updated stim.csv,Version82.csv,Version 82,List 82,eclair,NA,2435,6.166666667,886,0.376305071,2436,BOI,-,-,Please name all of the ways you could use this object. Keep in mind that one object can have many uses. Separate your responses with a comma.,NA,y,32756,NA,NA,4997,30973,NA,NA,NA,"To throw at someone you're attracted to, to eat, to lick, to share with a date, for sexual gratification with a partner.",1
57160a57cd6ea20011dae249,4s32fm4vc2,Affordance Norms_Prolific,1,36,2023-01-11T01:09:18+00:00,30.52198696,82,updated stim.csv,Version82.csv,Version 82,List 82,sidecar,NA,2434,4.347826087,2376,0.56786032,2435,BOI,-,-,Please name all of the ways you could use this object. Keep in mind that one object can have many uses. Separate your responses with a comma.,NA,y,29452,NA,NA,4021,23782,NA,NA,NA,"to travel with your dog, travel with a friend, travel with a family member, to convey personal effects",1
57160a57cd6ea20011dae249,4s32fm4vc2,Affordance Norms_Prolific,1,37,2023-01-11T01:09:43+00:00,24.25968218,82,updated stim.csv,Version82.csv,Version 82,List 82,corduroy,NA,2446,5.041666667,641,0.863483233,2447,BOI,-,-,Please name all of the ways you could use this object. Keep in mind that one object can have many uses. Separate your responses with a comma.,NA,y,23156,NA,NA,5319,21024,NA,NA,NA,"To create a mural, to make clothes, to cover storage items.",1
57160a57cd6ea20011dae249,4s32fm4vc2,Affordance Norms_Prolific,1,38,2023-01-11T01:10:16+00:00,33.72676182,82,updated stim.csv,Version82.csv,Version 82,List 82,cartridge,NA,2444,5.12,444,0.218092929,2445,BOI,-,-,Please name all of the ways you could use this object. Keep in mind that one object can have many uses. Separate your responses with a comma.,NA,y,32636,NA,NA,3803,23948,NA,NA,NA,"To play catch, to throw at someone to hurt them, to print from a pc",1
57160a57cd6ea20011dae249,4s32fm4vc2,Affordance Norms_Prolific,1,39,2023-01-11T01:10:46+00:00,29.34667301,82,updated stim.csv,Version82.csv,Version 82,List 82,soda,NA,2450,6.47826087,2442,0.228811069,2451,BOI,-,-,Please name all of the ways you could use this object. Keep in mind that one object can have many uses. Separate your responses with a comma.,NA,y,28313,NA,NA,2713,26240,NA,NA,NA,"to freshen my breath, to give me a sugar rush, to get some sugar, to feel more awake, to feel rewarded",1
57160a57cd6ea20011dae249,4s32fm4vc2,Affordance Norms_Prolific,1,40,2023-01-11T01:11:19+00:00,33.39101315,82,updated stim.csv,Version82.csv,Version 82,List 82,teakwood,NA,2436,5.136363636,2647,0.381547921,2437,BOI,-,-,Please name all of the ways you could use this object. Keep in mind that one object can have many uses. Separate your responses with a comma.,NA,y,32431,NA,NA,5542,25413,NA,NA,NA,"to make furniture, to sit on, to create a floor, as a weapon, as a seat",1
572230173fbc810011c58a38,vn333blxky,Affordance Norms_Prolific,1,11,2023-01-11T21:01:46+00:00,53.10327196,94,updated stim.csv,Version94.csv,Version 94,List 94,dispenser,NA,2799,4.708333333,805,0.262195631,2800,BOI,-,-,Please name all of the ways you could use this object. Keep in mind that one object can have many uses. Separate your responses with a comma.,NA,y,52563,NA,NA,8230,51729,NA,NA,NA,"dispense hand cream or soap, door stop, store liquids, make a sand picture, storage",0.966
572230173fbc810011c58a38,vn333blxky,Affordance Norms_Prolific,1,12,2023-01-11T21:03:22+00:00,96.23207307,94,updated stim.csv,Version94.csv,Version 94,List 94,sax,NA,2820,5.045454545,2256,0.271482721,2821,BOI,-,-,Please name all of the ways you could use this object. Keep in mind that one object can have many uses. Separate your responses with a comma.,NA,y,95685,NA,NA,3609,95031,NA,NA,NA,"play music, door stop, hang on wall for decoration, metal detecting practice object ",1
572230173fbc810011c58a38,vn333blxky,Affordance Norms_Prolific,1,13,2023-01-11T21:05:48+00:00,145.6694059,94,updated stim.csv,Version94.csv,Version 94,List 94,nutcrackers,NA,2794,5.347826087,1791,0.072605459,2795,BOI,-,-,Please name all of the ways you could use this object. Keep in mind that one object can have many uses. Separate your responses with a comma.,NA,y,145103,NA,NA,7773,140174,NA,NA,NA,"maracas, hammer a nail with, crush nuts, use as a lever",0.993
572230173fbc810011c58a38,vn333blxky,Affordance Norms_Prolific,1,14,2023-01-11T21:06:52+00:00,64.314888,94,updated stim.csv,Version94.csv,Version 94,List 94,toothpaste,NA,2805,5.76,2733,0.042102383,2806,BOI,-,-,Please name all of the ways you could use this object. Keep in mind that one object can have many uses. Separate your responses with a comma.,NA,y,63711,NA,NA,3513,61086,NA,NA,NA,"stick stuff together, flavour things with mint, spread on toast",0.99
572230173fbc810011c58a38,vn333blxky,Affordance Norms_Prolific,1,15,2023-01-11T21:09:18+00:00,146.2515609,94,updated stim.csv,Version94.csv,Version 94,List 94,snorkel,NA,2807,4.814814815,2428,0.530703777,2808,BOI,-,-,Please name all of the ways you could use this object. Keep in mind that one object can have many uses. Separate your responses with a comma.,NA,y,145228,NA,NA,3091,144185,NA,NA,NA,"breathe under water, blow bubbles from, fancy dress ",1
572230173fbc810011c58a38,vn333blxky,Affordance Norms_Prolific,1,16,2023-01-11T21:11:50+00:00,151.532635,94,updated stim.csv,Version94.csv,Version 94,List 94,lighthouse,NA,2795,4.791666667,1507,0.115692455,2796,BOI,-,-,Please name all of the ways you could use this object. Keep in mind that one object can have many uses. Separate your responses with a comma.,NA,y,150981,NA,NA,3785,150160,NA,NA,NA,"hotel, guest house, holiday destination",1
572230173fbc810011c58a38,vn333blxky,Affordance Norms_Prolific,1,17,2023-01-11T21:12:56+00:00,66.53069806,94,updated stim.csv,Version94.csv,Version 94,List 94,bassinet,NA,2808,5.375,165,0.942939522,2809,BOI,-,-,Please name all of the ways you could use this object. Keep in mind that one object can have many uses. Separate your responses with a comma.,NA,y,65987,NA,NA,2905,60792,NA,NA,NA,"dog basket, storage basket, shopping bag",1
572230173fbc810011c58a38,vn333blxky,Affordance Norms_Prolific,1,18,2023-01-11T21:13:36+00:00,40.14699006,94,updated stim.csv,Version94.csv,Version 94,List 94,fag,NA,2798,4.8,942,0.41812496,2799,BOI,-,-,Please name all of the ways you could use this object. Keep in mind that one object can have many uses. Separate your responses with a comma.,NA,y,39566,NA,NA,11577,32479,NA,NA,NA,"to light a fire, ",1
572230173fbc810011c58a38,vn333blxky,Affordance Norms_Prolific,1,19,2023-01-11T21:14:47+00:00,70.47435784,94,updated stim.csv,Version94.csv,Version 94,List 94,sheet,NA,2793,5.708333333,2331,0.953838586,2794,BOI,-,-,Please name all of the ways you could use this object. Keep in mind that one object can have many uses. Separate your responses with a comma.,NA,y,69410,NA,NA,2840,65595,NA,NA,NA,"ghost costume, tablecloth, fabric for clothing, sofa cover, toga",1
572230173fbc810011c58a38,vn333blxky,Affordance Norms_Prolific,1,20,2023-01-11T21:15:16+00:00,29.04106712,94,updated stim.csv,Version94.csv,Version 94,List 94,cafe,NA,2814,4.772727273,396,0.016959145,2815,BOI,-,-,Please name all of the ways you could use this object. Keep in mind that one object can have many uses. Separate your responses with a comma.,NA,y,28495,NA,NA,8720,21509,NA,NA,NA,"wedding venue, tourist destination",1
572230173fbc810011c58a38,vn333blxky,Affordance Norms_Prolific,1,21,2023-01-11T21:16:03+00:00,46.68839288,94,updated stim.csv,Version94.csv,Version 94,List 94,hanky,NA,2815,4.481481481,1247,0.363795056,2816,BOI,-,-,Please name all of the ways you could use this object. Keep in mind that one object can have many uses. Separate your responses with a comma.,NA,y,46135,NA,NA,3174,45189,NA,NA,NA,"cleaning cloth, headscarf, bib, neck scarf, block a draft",1
572230173fbc810011c58a38,vn333blxky,Affordance Norms_Prolific,1,22,2023-01-11T21:16:35+00:00,32.33655715,94,updated stim.csv,Version94.csv,Version 94,List 94,kazoo,NA,2792,5.6,1401,0.310136054,2793,BOI,-,-,Please name all of the ways you could use this object. Keep in mind that one object can have many uses. Separate your responses with a comma.,NA,y,31769,NA,NA,5235,15926,NA,NA,NA,"straw, attract animals",1
572230173fbc810011c58a38,vn333blxky,Affordance Norms_Prolific,1,23,2023-01-11T21:17:45+00:00,70.43297791,94,updated stim.csv,Version94.csv,Version 94,List 94,fishbone,NA,2816,5.173913043,990,0.879116537,2817,BOI,-,-,Please name all of the ways you could use this object. Keep in mind that one object can have many uses. Separate your responses with a comma.,NA,y,69790,NA,NA,5406,68726,NA,NA,NA,"stick to write with, make soup stock, make into needle",1
572230173fbc810011c58a38,vn333blxky,Affordance Norms_Prolific,1,24,2023-01-11T21:18:46+00:00,61.02140713,94,updated stim.csv,Version94.csv,Version 94,List 94,cigar,NA,2811,5.962962963,542,0.389740937,2812,BOI,-,-,Please name all of the ways you could use this object. Keep in mind that one object can have many uses. Separate your responses with a comma.,NA,y,60386,NA,NA,10145,14232,NA,NA,NA,"dibber for gardening, ",1
572230173fbc810011c58a38,vn333blxky,Affordance Norms_Prolific,1,25,2023-01-11T21:19:10+00:00,23.42865491,94,updated stim.csv,Version94.csv,Version 94,List 94,bridge,NA,2810,5.52173913,322,0.069552783,2811,BOI,-,-,Please name all of the ways you could use this object. Keep in mind that one object can have many uses. Separate your responses with a comma.,NA,y,22871,NA,NA,9088,21779,NA,NA,NA,"running track, decorate with lights, get from A to B",1
572230173fbc810011c58a38,vn333blxky,Affordance Norms_Prolific,1,26,2023-01-11T21:19:58+00:00,48.58183193,94,updated stim.csv,Version94.csv,Version 94,List 94,aircraft,NA,2801,4.925925926,19,0.385530787,2802,BOI,-,-,Please name all of the ways you could use this object. Keep in mind that one object can have many uses. Separate your responses with a comma.,NA,y,48028,NA,NA,1834,47170,NA,NA,NA,"fly across the world, fancy hotel, wedding venue",1
572230173fbc810011c58a38,vn333blxky,Affordance Norms_Prolific,1,27,2023-01-11T21:20:44+00:00,45.92387104,94,updated stim.csv,Version94.csv,Version 94,List 94,retriever,NA,2803,4.96,2160,0.323930836,2804,BOI,-,-,Please name all of the ways you could use this object. Keep in mind that one object can have many uses. Separate your responses with a comma.,NA,y,45338,NA,NA,8417,44193,NA,NA,NA,"guide dog, friend, trainer",1
572230173fbc810011c58a38,vn333blxky,Affordance Norms_Prolific,1,28,2023-01-11T21:22:44+00:00,119.5288191,94,updated stim.csv,Version94.csv,Version 94,List 94,omelet,NA,2806,5.6,1807,0.790169092,2807,BOI,-,-,Please name all of the ways you could use this object. Keep in mind that one object can have many uses. Separate your responses with a comma.,NA,y,118980,NA,NA,115690,118025,NA,NA,NA,"dinner, lunch, snack",0.472
572230173fbc810011c58a38,vn333blxky,Affordance Norms_Prolific,1,29,2023-01-11T21:23:08+00:00,23.57826591,94,updated stim.csv,Version94.csv,Version 94,List 94,garland,NA,2819,5.166666667,1079,0.487831192,2820,BOI,-,-,Please name all of the ways you could use this object. Keep in mind that one object can have many uses. Separate your responses with a comma.,NA,y,22788,NA,NA,4824,21607,NA,NA,NA,"wear on head, hang on door, hang round neck",1
572230173fbc810011c58a38,vn333blxky,Affordance Norms_Prolific,1,30,2023-01-11T21:24:31+00:00,83.66357613,94,updated stim.csv,Version94.csv,Version 94,List 94,oyster,NA,2813,5.407407407,1834,0.932964259,2814,BOI,-,-,Please name all of the ways you could use this object. Keep in mind that one object can have many uses. Separate your responses with a comma.,NA,y,83087,NA,NA,69402,82148,NA,NA,NA,"fish bait, food, food for birds",0.859
572230173fbc810011c58a38,vn333blxky,Affordance Norms_Prolific,1,31,2023-01-11T21:26:09+00:00,97.94007802,94,updated stim.csv,Version94.csv,Version 94,List 94,booze,NA,2800,5.84,285,0.455584343,2801,BOI,-,-,Please name all of the ways you could use this object. Keep in mind that one object can have many uses. Separate your responses with a comma.,NA,y,97246,NA,NA,11686,96283,NA,NA,NA,"drain cleaner, cook with",1
572230173fbc810011c58a38,vn333blxky,Affordance Norms_Prolific,1,32,2023-01-11T21:27:11+00:00,62.22443891,94,updated stim.csv,Version94.csv,Version 94,List 94,cheerleader,NA,2818,5.285714286,505,0.580282419,2819,BOI,-,-,Please name all of the ways you could use this object. Keep in mind that one object can have many uses. Separate your responses with a comma.,NA,y,61648,NA,NA,7444,60676,NA,NA,NA,"encourage a team, act as a cheerleader on tv, entertain people",1
572230173fbc810011c58a38,vn333blxky,Affordance Norms_Prolific,1,33,2023-01-11T21:27:52+00:00,40.3142941,94,updated stim.csv,Version94.csv,Version 94,List 94,sack,NA,2817,5.083333333,2210,0.51753878,2818,BOI,-,-,Please name all of the ways you could use this object. Keep in mind that one object can have many uses. Separate your responses with a comma.,NA,y,39726,NA,NA,2506,36314,NA,NA,NA,"hold potatoes, sack race, carry items in",1
572230173fbc810011c58a38,vn333blxky,Affordance Norms_Prolific,1,34,2023-01-11T21:28:13+00:00,21.4069519,94,updated stim.csv,Version94.csv,Version 94,List 94,catnip,NA,2804,4.52,461,0.804980444,2805,BOI,-,-,Please name all of the ways you could use this object. Keep in mind that one object can have many uses. Separate your responses with a comma.,NA,y,20773,NA,NA,2042,19641,NA,NA,NA,"attract cats, make into a toy, scent things with, plant in garden",1
572230173fbc810011c58a38,vn333blxky,Affordance Norms_Prolific,1,35,2023-01-11T21:28:25+00:00,12.22965097,94,updated stim.csv,Version94.csv,Version 94,List 94,pork,NA,2796,4.916666667,2037,0.339315341,2797,BOI,-,-,Please name all of the ways you could use this object. Keep in mind that one object can have many uses. Separate your responses with a comma.,NA,y,11886,NA,NA,1586,8411,NA,NA,NA,"eat, feed to a carnivore animal",1
572230173fbc810011c58a38,vn333blxky,Affordance Norms_Prolific,1,36,2023-01-11T21:28:49+00:00,24.00660992,94,updated stim.csv,Version94.csv,Version 94,List 94,maggot,NA,2791,4.44,1570,0.788570737,2792,BOI,-,-,Please name all of the ways you could use this object. Keep in mind that one object can have many uses. Separate your responses with a comma.,NA,y,23379,NA,NA,2057,22168,NA,NA,NA,"eat dead flesh to heal a wound, fishing bait, feed the birds",1
572230173fbc810011c58a38,vn333blxky,Affordance Norms_Prolific,1,37,2023-01-11T21:30:29+00:00,99.8896482,94,updated stim.csv,Version94.csv,Version 94,List 94,jeep,NA,2812,5.409090909,1380,0.355780564,2813,BOI,-,-,Please name all of the ways you could use this object. Keep in mind that one object can have many uses. Separate your responses with a comma.,NA,y,99325,NA,NA,73142,98434,NA,NA,NA,"drive offroad, hide in from the rain",0.998
572230173fbc810011c58a38,vn333blxky,Affordance Norms_Prolific,1,38,2023-01-11T21:31:05+00:00,35.93317699,94,updated stim.csv,Version94.csv,Version 94,List 94,girl,NA,2809,5.52,1108,0.249735431,2810,BOI,-,-,Please name all of the ways you could use this object. Keep in mind that one object can have many uses. Separate your responses with a comma.,NA,y,35359,NA,NA,9858,32594,NA,NA,NA,"play games with, practice hairstyle on ",1
572230173fbc810011c58a38,vn333blxky,Affordance Norms_Prolific,1,39,2023-01-11T21:32:37+00:00,92.23014998,94,updated stim.csv,Version94.csv,Version 94,List 94,sackcloth,NA,2802,4.913043478,2211,0.489130765,2803,BOI,-,-,Please name all of the ways you could use this object. Keep in mind that one object can have many uses. Separate your responses with a comma.,NA,y,91651,NA,NA,22994,90713,NA,NA,NA,make a sack with ,1
572230173fbc810011c58a38,vn333blxky,Affordance Norms_Prolific,1,40,2023-01-11T21:32:56+00:00,19.055058,94,updated stim.csv,Version94.csv,Version 94,List 94,kernel,NA,2797,4.5,1407,0.356725928,2798,BOI,-,-,Please name all of the ways you could use this object. Keep in mind that one object can have many uses. Separate your responses with a comma.,NA,y,18732,NA,NA,7135,16543,NA,NA,NA,"plant, eat, grind, bake",1
573192985b8b06000f7c2718,cdin8ekw5o,Affordance Norms_Prolific,1,11,2023-01-11T01:02:34+00:00,101.5901279,83,updated stim.csv,Version83.csv,Version 83,List 83,lawn,NA,2484,5.695652174,1474,0.325629192,2485,BOI,-,-,Please name all of the ways you could use this object. Keep in mind that one object can have many uses. Separate your responses with a comma.,NA,y,101227,NA,NA,2218,94066,NA,NA,NA,"mow, run or walk on, dig holes into, let animals/people play on, eat grass, plant plants, place things on like playground equipment, roll on, step on, kick up clods of dirt, lie on, watch clouds from, place blankets on, urinate/defecate on, ",1
573192985b8b06000f7c2718,cdin8ekw5o,Affordance Norms_Prolific,1,12,2023-01-11T01:04:16+00:00,101.753618,83,updated stim.csv,Version83.csv,Version 83,List 83,greenback,NA,2467,4.904761905,1169,0.876784347,2468,BOI,-,-,Please name all of the ways you could use this object. Keep in mind that one object can have many uses. Separate your responses with a comma.,NA,y,101366,NA,NA,1916,90194,NA,NA,NA,"spend, use as art, give to someone, earn, give a papercut to someone, put in washing machine, rip or tear, eat, count with, use to measure other things, stack, roll, put in wallet, cut, step on, flush down toilet, ",1
573192985b8b06000f7c2718,cdin8ekw5o,Affordance Norms_Prolific,1,13,2023-01-11T01:05:19+00:00,62.38318992,83,updated stim.csv,Version83.csv,Version 83,List 83,prune,NA,2483,5.074074074,2083,0.178062808,2484,BOI,-,-,Please name all of the ways you could use this object. Keep in mind that one object can have many uses. Separate your responses with a comma.,NA,y,62004,NA,NA,4696,59840,NA,NA,NA,"eat, rehydrate, make into juice, use in a recipe, stick up an orifice, step on, kick, squeeze, feed to someone, place on something, give to someone, rub on self",1
573192985b8b06000f7c2718,cdin8ekw5o,Affordance Norms_Prolific,1,14,2023-01-11T01:07:16+00:00,117.6208551,83,updated stim.csv,Version83.csv,Version 83,List 83,submarine,NA,2477,4.826086957,2575,0.070245773,2478,BOI,-,-,Please name all of the ways you could use this object. Keep in mind that one object can have many uses. Separate your responses with a comma.,NA,y,117141,NA,NA,1933,115371,NA,NA,NA,"go underwater, navigate with, see exotic sealife, sit inside, use in nuclear warfare, use in war, detect enemy ships, build, stack, eat if you're that one french (?) man who digests metal, hit, kick, knock someone's head into, sell, buy, dock, use spyglass, sneak up on something, sail with, jump on, transport things with",1
573192985b8b06000f7c2718,cdin8ekw5o,Affordance Norms_Prolific,1,15,2023-01-11T01:08:42+00:00,85.34218097,83,updated stim.csv,Version83.csv,Version 83,List 83,nylon,NA,2486,4.928571429,1794,0.452621743,2487,BOI,-,-,Please name all of the ways you could use this object. Keep in mind that one object can have many uses. Separate your responses with a comma.,NA,y,84899,NA,NA,1625,83539,NA,NA,NA,"wear, make clothing, eat, rub on something, weave together, put something in, stretch, place on wall, put in or on something, step on, hit, kick, use as a slingshot, make other things with",1
573192985b8b06000f7c2718,cdin8ekw5o,Affordance Norms_Prolific,1,16,2023-01-11T01:10:04+00:00,81.98457789,83,updated stim.csv,Version83.csv,Version 83,List 83,floss,NA,2481,5.166666667,1012,0.408908776,2482,BOI,-,-,Please name all of the ways you could use this object. Keep in mind that one object can have many uses. Separate your responses with a comma.,NA,y,81599,NA,NA,1863,80362,NA,NA,NA,"floss teeth, braid/use in arts & crafts, eat, tie knots with, tie off skintag with so it kills the bloodflow to it, dig underneath nails with to get dirt out, use to measure something, use to tie something up, tickle someone with, step on, garrote someone, throw away, use as an accessory",1
573192985b8b06000f7c2718,cdin8ekw5o,Affordance Norms_Prolific,1,17,2023-01-11T01:11:26+00:00,82.470752,83,updated stim.csv,Version83.csv,Version 83,List 83,kebab,NA,2468,5.916666667,1402,0.726814942,2469,BOI,-,-,Please name all of the ways you could use this object. Keep in mind that one object can have many uses. Separate your responses with a comma.,NA,y,82072,NA,NA,2053,76837,NA,NA,NA,"eat, grill, use skewer as murder weapon, use skewer as helpful tool, feed to something, give to someone, stab self with, put down throat like firebreathers, measure something with, step on (ow!), poke, kick, touch, grasp, scratch, ",1
573192985b8b06000f7c2718,cdin8ekw5o,Affordance Norms_Prolific,1,18,2023-01-11T01:12:45+00:00,79.44433713,83,updated stim.csv,Version83.csv,Version 83,List 83,nightgown,NA,2466,5.92,1770,0.910602856,2467,BOI,-,-,Please name all of the ways you could use this object. Keep in mind that one object can have many uses. Separate your responses with a comma.,NA,y,79035,NA,NA,1505,73501,NA,NA,NA,"wear, put on clothesline, wash / dry, wrap something in, put in something, touch, rub on self/other, grasp, touch, strangle someone, hide something in, cosplay scrooge, give, step on, kick, put over head, lie on, ",1
573192985b8b06000f7c2718,cdin8ekw5o,Affordance Norms_Prolific,1,19,2023-01-11T01:14:07+00:00,81.08879685,83,updated stim.csv,Version83.csv,Version 83,List 83,sandpaper,NA,2487,5.913043478,2237,0.374386596,2488,BOI,-,-,Please name all of the ways you could use this object. Keep in mind that one object can have many uses. Separate your responses with a comma.,NA,y,80672,NA,NA,2206,79592,NA,NA,NA,"rub something with, use as toilet paper if desperate, step on, throw, put something on it, keep, give to someone, sell someone, get dog to rasp their toenails on, trim own nails with, cover furniture with",1
573192985b8b06000f7c2718,cdin8ekw5o,Affordance Norms_Prolific,1,20,2023-01-11T01:15:17+00:00,70.64795303,83,updated stim.csv,Version83.csv,Version 83,List 83,juror,NA,2479,4.782608696,1398,0.986222376,2480,BOI,-,-,Please name all of the ways you could use this object. Keep in mind that one object can have many uses. Separate your responses with a comma.,NA,y,70261,NA,NA,2744,69077,NA,NA,NA,"eat, pay, have them decide a trial, sit on them, bribe them, talk to them, touch them, grasp them, kick them, step on them, have sex with them, anything else you can do with a human?, have them star in a movie, make them become angry",1
573192985b8b06000f7c2718,cdin8ekw5o,Affordance Norms_Prolific,1,21,2023-01-11T01:16:26+00:00,69.02777004,83,updated stim.csv,Version83.csv,Version 83,List 83,hickory,NA,2472,4.357142857,1286,0.382292447,2473,BOI,-,-,Please name all of the ways you could use this object. Keep in mind that one object can have many uses. Separate your responses with a comma.,NA,y,68634,NA,NA,2968,65895,NA,NA,NA,"cut down, use to BBQ with, make wood from, build treehouse in, put swing in, use as an outlook, bite, make furniture from, kick, bang head against, touch, pollinate",1
573192985b8b06000f7c2718,cdin8ekw5o,Affordance Norms_Prolific,1,22,2023-01-11T01:17:21+00:00,54.34183812,83,updated stim.csv,Version83.csv,Version 83,List 83,gardenia,NA,2478,4.476190476,1078,0.541165796,2479,BOI,-,-,Please name all of the ways you could use this object. Keep in mind that one object can have many uses. Separate your responses with a comma.,NA,y,53959,NA,NA,1930,50943,NA,NA,NA,"pollinate, plant, dig up, eat, feed to someone / thing, give to someone, put in a bouquet, smell, step on, kick, touch, grasp",1
573192985b8b06000f7c2718,cdin8ekw5o,Affordance Norms_Prolific,1,23,2023-01-11T01:18:25+00:00,64.82650089,83,updated stim.csv,Version83.csv,Version 83,List 83,roosters,NA,2485,4.6,2190,0.895074311,2486,BOI,-,-,Please name all of the ways you could use this object. Keep in mind that one object can have many uses. Separate your responses with a comma.,NA,y,64443,NA,NA,1685,62813,NA,NA,NA,"eat, protect hens, fertilize eggs, fight them (you or have them fight each other), feed to self / animal, pluck feathers from, kick, step on, touch, kiss, pet, have them help you out with your bug problem, put in hutch, slaughter",1
573192985b8b06000f7c2718,cdin8ekw5o,Affordance Norms_Prolific,1,24,2023-01-11T01:19:09+00:00,43.26801491,83,updated stim.csv,Version83.csv,Version 83,List 83,syringe,NA,2489,5.535714286,2612,0.879060654,2490,BOI,-,-,Please name all of the ways you could use this object. Keep in mind that one object can have many uses. Separate your responses with a comma.,NA,y,42885,NA,NA,1907,41126,NA,NA,NA,"inject someone, poke holes in something, use as measuring tool, step on, give someone a piercing, take fluid out of something, vaccinate someone with, hit someone with, step on, kick, feel, grasp",1
573192985b8b06000f7c2718,cdin8ekw5o,Affordance Norms_Prolific,1,25,2023-01-11T01:19:56+00:00,47.28013206,83,updated stim.csv,Version83.csv,Version 83,List 83,mountain,NA,2475,4.307692308,1699,0.218032509,2476,BOI,-,-,Please name all of the ways you could use this object. Keep in mind that one object can have many uses. Separate your responses with a comma.,NA,y,46903,NA,NA,1714,45659,NA,NA,NA,"climb, take rocks off, induce a rockslide / avalanche, build on, hike, step on, push someone off of, use to strengthen lungs, use as a landmark",1
573192985b8b06000f7c2718,cdin8ekw5o,Affordance Norms_Prolific,1,26,2023-01-11T01:20:42+00:00,46.42699003,83,updated stim.csv,Version83.csv,Version 83,List 83,paint,NA,2473,5.090909091,1847,0.094558685,2474,BOI,-,-,Please name all of the ways you could use this object. Keep in mind that one object can have many uses. Separate your responses with a comma.,NA,y,46054,NA,NA,5491,42448,NA,NA,NA,"eat, make art with it, use in construction, drink it, give to someone, sell, buy, touch, step on, mark something, dye clothing, ",1
573192985b8b06000f7c2718,cdin8ekw5o,Affordance Norms_Prolific,1,27,2023-01-11T01:21:32+00:00,49.40228605,83,updated stim.csv,Version83.csv,Version 83,List 83,window,NA,2465,5.68,2942,0.261751152,2466,BOI,-,-,Please name all of the ways you could use this object. Keep in mind that one object can have many uses. Separate your responses with a comma.,NA,y,49002,NA,NA,1731,47864,NA,NA,NA,"defenestrate someone, look through, open, close, touch, kick, punch, replace, build, smear with something, cover, build sill for, make spiderweb in corner",1
573192985b8b06000f7c2718,cdin8ekw5o,Affordance Norms_Prolific,1,28,2023-01-11T01:22:06+00:00,34.32674599,83,updated stim.csv,Version83.csv,Version 83,List 83,sandwich,NA,2463,6.333333333,2238,0.934753006,2464,BOI,-,-,Please name all of the ways you could use this object. Keep in mind that one object can have many uses. Separate your responses with a comma.,NA,y,33812,NA,NA,1404,32742,NA,NA,NA,"eat, step on, give to someone, buy, sell, touch, blend, hit someone, make, put something in, put on something",1
573192985b8b06000f7c2718,cdin8ekw5o,Affordance Norms_Prolific,1,29,2023-01-11T01:22:44+00:00,37.88775992,83,updated stim.csv,Version83.csv,Version 83,List 83,meal,NA,2462,5.958333333,1632,0.954871342,2463,BOI,-,-,Please name all of the ways you could use this object. Keep in mind that one object can have many uses. Separate your responses with a comma.,NA,y,37515,NA,NA,1550,35747,NA,NA,NA,"eat, feed someone/thing, touch, step on, kick, buy, sell, give, cook, order",1
573192985b8b06000f7c2718,cdin8ekw5o,Affordance Norms_Prolific,1,30,2023-01-11T01:23:16+00:00,32.25352716,83,updated stim.csv,Version83.csv,Version 83,List 83,thermos,NA,2464,5.518518519,2677,0.908657891,2465,BOI,-,-,Please name all of the ways you could use this object. Keep in mind that one object can have many uses. Separate your responses with a comma.,NA,y,31862,NA,NA,1752,29853,NA,NA,NA,"store something you want to keep hot/cold in, hit someone on head with, touch, step on, kick, drink from, eat from, pee in",1
573192985b8b06000f7c2718,cdin8ekw5o,Affordance Norms_Prolific,1,31,2023-01-11T01:23:43+00:00,26.86220098,83,updated stim.csv,Version83.csv,Version 83,List 83,homework,NA,2488,5.32,1301,0.932101775,2489,BOI,-,-,Please name all of the ways you could use this object. Keep in mind that one object can have many uses. Separate your responses with a comma.,NA,y,26411,NA,NA,1973,25215,NA,NA,NA,"eat, have your dog eat, complete, give to teacher, pay someone to do it for you for money, give someone a papercut, step on, touch, turn in",1
573192985b8b06000f7c2718,cdin8ekw5o,Affordance Norms_Prolific,1,32,2023-01-11T01:24:11+00:00,27.81770301,83,updated stim.csv,Version83.csv,Version 83,List 83,curd,NA,2470,4.875,729,0.353815,2471,BOI,-,-,Please name all of the ways you could use this object. Keep in mind that one object can have many uses. Separate your responses with a comma.,NA,y,27455,NA,NA,3461,25982,NA,NA,NA,"put on poutine, use in goldilocks story, eat, give to someone, buy, sell, step on, touch, kick",1
573192985b8b06000f7c2718,cdin8ekw5o,Affordance Norms_Prolific,1,33,2023-01-11T01:24:42+00:00,31.404212,83,updated stim.csv,Version83.csv,Version 83,List 83,tourist,NA,2476,5,2744,0.891249972,2477,BOI,-,-,Please name all of the ways you could use this object. Keep in mind that one object can have many uses. Separate your responses with a comma.,NA,y,31009,NA,NA,4537,29461,NA,NA,NA,"go sightseeing, touch, step on, kick, talk to, feel, have sex with, anything you can do with a human",1
573192985b8b06000f7c2718,cdin8ekw5o,Affordance Norms_Prolific,1,34,2023-01-11T01:25:28+00:00,45.53869796,83,updated stim.csv,Version83.csv,Version 83,List 83,dachshund,NA,2461,5.125,743,0.091047338,2462,BOI,-,-,Please name all of the ways you could use this object. Keep in mind that one object can have many uses. Separate your responses with a comma.,NA,y,45166,NA,NA,2236,43449,NA,NA,NA,"pet, play with, laugh at how long they are, put in hysterical hot dog bun costume, kill, eat, hunt with, show in conformation, do other dog sports with, step on, kick, give, buy, sell",1
573192985b8b06000f7c2718,cdin8ekw5o,Affordance Norms_Prolific,1,35,2023-01-11T01:25:57+00:00,28.86249089,83,updated stim.csv,Version83.csv,Version 83,List 83,pitchfork,NA,2490,5.681818182,1981,0.189208838,2491,BOI,-,-,Please name all of the ways you could use this object. Keep in mind that one object can have many uses. Separate your responses with a comma.,NA,y,28480,NA,NA,1608,26561,NA,NA,NA,"stab someone with, use to grab hay or other objects, touch, give, buy, sell, step on and have the cartoon thing happen to you, hold in a riot",1
573192985b8b06000f7c2718,cdin8ekw5o,Affordance Norms_Prolific,1,36,2023-01-11T01:26:36+00:00,38.96517706,83,updated stim.csv,Version83.csv,Version 83,List 83,grill,NA,2482,5.72,1176,0.714189519,2483,BOI,-,-,Please name all of the ways you could use this object. Keep in mind that one object can have many uses. Separate your responses with a comma.,NA,y,38591,NA,NA,1511,37321,NA,NA,NA,"use to heat up food, touch, get burned, kick, step on, use as a heat source, hide something in, move, buy, sell, give",1
573192985b8b06000f7c2718,cdin8ekw5o,Affordance Norms_Prolific,1,37,2023-01-11T01:27:01+00:00,25.78756189,83,updated stim.csv,Version83.csv,Version 83,List 83,smooch,NA,2480,4.32,2422,0.467075011,2481,BOI,-,-,Please name all of the ways you could use this object. Keep in mind that one object can have many uses. Separate your responses with a comma.,NA,y,25400,NA,NA,2684,22877,NA,NA,NA,"receive, give, throw away, buy, sell, ",1
573192985b8b06000f7c2718,cdin8ekw5o,Affordance Norms_Prolific,1,38,2023-01-11T01:28:00+00:00,58.02908111,83,updated stim.csv,Version83.csv,Version 83,List 83,asshole,NA,2474,4.5,90,0.423065818,2475,BOI,-,-,Please name all of the ways you could use this object. Keep in mind that one object can have many uses. Separate your responses with a comma.,NA,y,57657,NA,NA,1613,56010,NA,NA,NA,"shit from, fuck, put something else up (suppository), fart, kick, kiss, touch, tattoo, lick, brownnose",1
573192985b8b06000f7c2718,cdin8ekw5o,Affordance Norms_Prolific,1,39,2023-01-11T01:28:35+00:00,35.1188221,83,updated stim.csv,Version83.csv,Version 83,List 83,publisher,NA,2469,4.44,2086,0.394936257,2470,BOI,-,-,Please name all of the ways you could use this object. Keep in mind that one object can have many uses. Separate your responses with a comma.,NA,y,34729,NA,NA,9147,33542,NA,NA,NA,"eat, touch, kiss, use to publish your book or other written work, anything else you can do with a human.",1
573192985b8b06000f7c2718,cdin8ekw5o,Affordance Norms_Prolific,1,40,2023-01-11T01:29:05+00:00,30.83697486,83,updated stim.csv,Version83.csv,Version 83,List 83,kin,NA,2471,4.47826087,1419,0.4340372,2472,BOI,-,-,Please name all of the ways you could use this object. Keep in mind that one object can have many uses. Separate your responses with a comma.,NA,y,30468,NA,NA,4449,28503,NA,NA,NA,"nepotism, hug, kiss, touch, kick, step on, punch, rely on, anything else you can do wit ha human",1
57aa0bdb9ff3e900014135d9,pvcu3dc568,Affordance Norms_Prolific,1,11,2023-01-11T00:40:13+00:00,34.95377493,69,updated stim.csv,Version69.csv,Version 69,List 69,foot,NA,2060,6,1029,0.672429638,2061,BOI,-,-,Please name all of the ways you could use this object. Keep in mind that one object can have many uses. Separate your responses with a comma.,NA,y,34601,NA,NA,4152,31507,NA,NA,NA,"massaged, walked on, used to kick, tickled, washed, ",1
57aa0bdb9ff3e900014135d9,pvcu3dc568,Affordance Norms_Prolific,1,12,2023-01-11T00:40:44+00:00,30.30125618,69,updated stim.csv,Version69.csv,Version 69,List 69,farmhouse,NA,2055,5.068965517,949,0.607320841,2056,BOI,-,-,Please name all of the ways you could use this object. Keep in mind that one object can have many uses. Separate your responses with a comma.,NA,y,29960,NA,NA,2774,28272,NA,NA,NA,"live in, demolish, renovate, raise a family, throw a party, cook in, ",1
57aa0bdb9ff3e900014135d9,pvcu3dc568,Affordance Norms_Prolific,1,13,2023-01-11T00:41:04+00:00,20.24335003,69,updated stim.csv,Version69.csv,Version 69,List 69,firecracker,NA,2047,4.916666667,985,0.557520939,2048,BOI,-,-,Please name all of the ways you could use this object. Keep in mind that one object can have many uses. Separate your responses with a comma.,NA,y,19922,NA,NA,2193,19394,NA,NA,NA,"light on fire, play with, put on a show,",1
57aa0bdb9ff3e900014135d9,pvcu3dc568,Affordance Norms_Prolific,1,14,2023-01-11T00:41:21+00:00,16.82126284,69,updated stim.csv,Version69.csv,Version 69,List 69,nightie,NA,2042,5.62962963,1771,0.901097667,2043,BOI,-,-,Please name all of the ways you could use this object. Keep in mind that one object can have many uses. Separate your responses with a comma.,NA,y,16467,NA,NA,1710,11727,NA,NA,NA,"wear at night, sleep in, use as a cloth, ",1
57aa0bdb9ff3e900014135d9,pvcu3dc568,Affordance Norms_Prolific,1,15,2023-01-11T00:41:35+00:00,14.41816711,69,updated stim.csv,Version69.csv,Version 69,List 69,radiator,NA,2054,5.217391304,2121,0.849996905,2055,BOI,-,-,Please name all of the ways you could use this object. Keep in mind that one object can have many uses. Separate your responses with a comma.,NA,y,14090,NA,NA,2039,13581,NA,NA,NA,"heating source, as a shelf,",1
57aa0bdb9ff3e900014135d9,pvcu3dc568,Affordance Norms_Prolific,1,16,2023-01-11T00:41:49+00:00,13.56929183,69,updated stim.csv,Version69.csv,Version 69,List 69,kite,NA,2044,5.8,1427,0.898180033,2045,BOI,-,-,Please name all of the ways you could use this object. Keep in mind that one object can have many uses. Separate your responses with a comma.,NA,y,13267,NA,NA,1453,6379,NA,NA,NA,"fly it, store it, ",1
57aa0bdb9ff3e900014135d9,pvcu3dc568,Affordance Norms_Prolific,1,17,2023-01-11T00:42:04+00:00,15.26800513,69,updated stim.csv,Version69.csv,Version 69,List 69,brace,NA,2062,5.04,299,0.200654341,2063,BOI,-,-,Please name all of the ways you could use this object. Keep in mind that one object can have many uses. Separate your responses with a comma.,NA,y,14942,NA,NA,4695,9030,NA,NA,NA,"support a ligament, ",1
57aa0bdb9ff3e900014135d9,pvcu3dc568,Affordance Norms_Prolific,1,18,2023-01-11T00:42:22+00:00,18.40449309,69,updated stim.csv,Version69.csv,Version 69,List 69,neckerchief,NA,2051,5.347826087,1740,0.029417573,2052,BOI,-,-,Please name all of the ways you could use this object. Keep in mind that one object can have many uses. Separate your responses with a comma.,NA,y,18075,NA,NA,2837,15538,NA,NA,NA,"worn around neck, worn on other parts, used as a rag, ",1
57aa0bdb9ff3e900014135d9,pvcu3dc568,Affordance Norms_Prolific,1,19,2023-01-11T00:42:51+00:00,28.2996788,69,updated stim.csv,Version69.csv,Version 69,List 69,bleach,NA,2065,5.32,234,0.58088773,2066,BOI,-,-,Please name all of the ways you could use this object. Keep in mind that one object can have many uses. Separate your responses with a comma.,NA,y,27987,NA,NA,3678,26691,NA,NA,NA,"cleaning, disinfecting, bleaching fabric, dyeing hair,",1
57aa0bdb9ff3e900014135d9,pvcu3dc568,Affordance Norms_Prolific,1,20,2023-01-11T00:43:09+00:00,17.88981009,69,updated stim.csv,Version69.csv,Version 69,List 69,home,NA,2058,5.434782609,1299,0.801909438,2059,BOI,-,-,Please name all of the ways you could use this object. Keep in mind that one object can have many uses. Separate your responses with a comma.,NA,y,17600,NA,NA,1565,15444,NA,NA,NA,"live in, cook in, use as income property,",1
57aa0bdb9ff3e900014135d9,pvcu3dc568,Affordance Norms_Prolific,1,21,2023-01-11T00:43:33+00:00,24.83611512,69,updated stim.csv,Version69.csv,Version 69,List 69,mascara,NA,2057,5.703703704,1612,0.241914287,2058,BOI,-,-,Please name all of the ways you could use this object. Keep in mind that one object can have many uses. Separate your responses with a comma.,NA,y,24505,NA,NA,3034,23018,NA,NA,NA,"used on eyes as makeup, write with, paint something black, ",1
57aa0bdb9ff3e900014135d9,pvcu3dc568,Affordance Norms_Prolific,1,22,2023-01-11T00:43:53+00:00,19.86455798,69,updated stim.csv,Version69.csv,Version 69,List 69,crop,NA,2050,4.833333333,700,0.508408081,2051,BOI,-,-,Please name all of the ways you could use this object. Keep in mind that one object can have many uses. Separate your responses with a comma.,NA,y,19533,NA,NA,2261,18423,NA,NA,NA,"harvest, plant it, sell it, water a crop, ",1
57aa0bdb9ff3e900014135d9,pvcu3dc568,Affordance Norms_Prolific,1,23,2023-01-11T00:44:06+00:00,12.24722481,69,updated stim.csv,Version69.csv,Version 69,List 69,battery,NA,2061,4.8,172,0.309515417,2062,BOI,-,-,Please name all of the ways you could use this object. Keep in mind that one object can have many uses. Separate your responses with a comma.,NA,y,11928,NA,NA,1504,10912,NA,NA,NA,"used in electronics, to power a device, ",1
57aa0bdb9ff3e900014135d9,pvcu3dc568,Affordance Norms_Prolific,1,24,2023-01-11T00:44:29+00:00,23.67849207,69,updated stim.csv,Version69.csv,Version 69,List 69,cape,NA,2053,5.416666667,424,0.375751754,2054,BOI,-,-,Please name all of the ways you could use this object. Keep in mind that one object can have many uses. Separate your responses with a comma.,NA,y,23326,NA,NA,1533,22343,NA,NA,NA,"wear as a cape, a cleaning cloth, to cover something, as a blanket, ",1
57aa0bdb9ff3e900014135d9,pvcu3dc568,Affordance Norms_Prolific,1,25,2023-01-11T00:44:41+00:00,11.71247506,69,updated stim.csv,Version69.csv,Version 69,List 69,bunk,NA,2066,4.260869565,360,0.933970977,2067,BOI,-,-,Please name all of the ways you could use this object. Keep in mind that one object can have many uses. Separate your responses with a comma.,NA,y,11354,NA,NA,1605,7651,NA,NA,NA,"sleep in, store things on, ",1
57aa0bdb9ff3e900014135d9,pvcu3dc568,Affordance Norms_Prolific,1,26,2023-01-11T00:44:56+00:00,15.08230996,69,updated stim.csv,Version69.csv,Version 69,List 69,moonshine,NA,2064,5.260869565,1682,0.261203355,2065,BOI,-,-,Please name all of the ways you could use this object. Keep in mind that one object can have many uses. Separate your responses with a comma.,NA,y,14749,NA,NA,2059,13668,NA,NA,NA,"drink, disinfect, mix with drinks, ",1
57aa0bdb9ff3e900014135d9,pvcu3dc568,Affordance Norms_Prolific,1,27,2023-01-11T00:45:17+00:00,20.65157509,69,updated stim.csv,Version69.csv,Version 69,List 69,armoire,NA,2041,4.904761905,73,0.052185151,2042,BOI,-,-,Please name all of the ways you could use this object. Keep in mind that one object can have many uses. Separate your responses with a comma.,NA,y,20359,NA,NA,1654,19108,NA,NA,NA,"store clothes in, used as decorative item, put things on top,",1
57aa0bdb9ff3e900014135d9,pvcu3dc568,Affordance Norms_Prolific,1,28,2023-01-11T00:45:32+00:00,15.2868979,69,updated stim.csv,Version69.csv,Version 69,List 69,medallion,NA,2059,5.541666667,1635,0.593281575,2060,BOI,-,-,Please name all of the ways you could use this object. Keep in mind that one object can have many uses. Separate your responses with a comma.,NA,y,14986,NA,NA,4332,14103,NA,NA,NA,"wear it, store it, keep as keepsake,",1
57aa0bdb9ff3e900014135d9,pvcu3dc568,Affordance Norms_Prolific,1,29,2023-01-11T00:46:10+00:00,38.10307312,69,updated stim.csv,Version69.csv,Version 69,List 69,cuff,NA,2067,5.333333333,724,0.92115639,2068,BOI,-,-,Please name all of the ways you could use this object. Keep in mind that one object can have many uses. Separate your responses with a comma.,NA,y,37771,NA,NA,1917,30737,NA,NA,NA,"keep wrist warm, ",0.804
57aa0bdb9ff3e900014135d9,pvcu3dc568,Affordance Norms_Prolific,1,30,2023-01-11T00:46:20+00:00,9.488320827,69,updated stim.csv,Version69.csv,Version 69,List 69,rubbish,NA,2049,4.666666667,2201,0.65494414,2050,BOI,-,-,Please name all of the ways you could use this object. Keep in mind that one object can have many uses. Separate your responses with a comma.,NA,y,9155,NA,NA,3998,6729,NA,NA,NA,"throw away, ",1
57aa0bdb9ff3e900014135d9,pvcu3dc568,Affordance Norms_Prolific,1,31,2023-01-11T00:47:38+00:00,78.75609803,69,updated stim.csv,Version69.csv,Version 69,List 69,phone,NA,2046,6.5,1940,0.865824601,2047,BOI,-,-,Please name all of the ways you could use this object. Keep in mind that one object can have many uses. Separate your responses with a comma.,NA,y,78450,NA,NA,1503,76989,NA,NA,NA,"make calls, send/receive texts, browse internet, social media, play games, schedule, fitness tracking, gps, research, take pictures, record video/audio,",1
57aa0bdb9ff3e900014135d9,pvcu3dc568,Affordance Norms_Prolific,1,32,2023-01-11T00:48:00+00:00,21.74099398,69,updated stim.csv,Version69.csv,Version 69,List 69,medicine,NA,2063,5.692307692,1638,0.021183078,2064,BOI,-,-,Please name all of the ways you could use this object. Keep in mind that one object can have many uses. Separate your responses with a comma.,NA,y,21407,NA,NA,6712,18989,NA,NA,NA,"to relieve ailments, cure illness, overdose, ",1
57aa0bdb9ff3e900014135d9,pvcu3dc568,Affordance Norms_Prolific,1,33,2023-01-11T00:48:09+00:00,9.148276091,69,updated stim.csv,Version69.csv,Version 69,List 69,cheekbone,NA,2045,4.88,504,0.553378119,2046,BOI,-,-,Please name all of the ways you could use this object. Keep in mind that one object can have many uses. Separate your responses with a comma.,NA,y,8821,NA,NA,2968,8153,NA,NA,NA,"keep face protected,",1
57aa0bdb9ff3e900014135d9,pvcu3dc568,Affordance Norms_Prolific,1,34,2023-01-11T00:48:22+00:00,12.77213097,69,updated stim.csv,Version69.csv,Version 69,List 69,candidate,NA,2056,4.739130435,409,0.163378695,2057,BOI,-,-,Please name all of the ways you could use this object. Keep in mind that one object can have many uses. Separate your responses with a comma.,NA,y,12464,NA,NA,2936,11082,NA,NA,NA,"manipulate, vote, discredit,",1
57aa0bdb9ff3e900014135d9,pvcu3dc568,Affordance Norms_Prolific,1,35,2023-01-11T00:48:29+00:00,6.772336006,69,updated stim.csv,Version69.csv,Version 69,List 69,snack,NA,2043,6.142857143,2425,0.564086134,2044,BOI,-,-,Please name all of the ways you could use this object. Keep in mind that one object can have many uses. Separate your responses with a comma.,NA,y,6462,NA,NA,1225,5171,NA,NA,NA,"eat, store, share,",1
57aa0bdb9ff3e900014135d9,pvcu3dc568,Affordance Norms_Prolific,1,36,2023-01-11T00:48:47+00:00,18.1789031,69,updated stim.csv,Version69.csv,Version 69,List 69,thimble,NA,2048,5.347826087,2681,0.809801416,2049,BOI,-,-,Please name all of the ways you could use this object. Keep in mind that one object can have many uses. Separate your responses with a comma.,NA,y,17849,NA,NA,3009,16758,NA,NA,NA,"protect finger from needle, use as monopoly piece, ",1
57aa0bdb9ff3e900014135d9,pvcu3dc568,Affordance Norms_Prolific,1,37,2023-01-11T00:49:05+00:00,17.79997778,69,updated stim.csv,Version69.csv,Version 69,List 69,masseur,NA,2068,5.6,1615,0.872292757,2069,BOI,-,-,Please name all of the ways you could use this object. Keep in mind that one object can have many uses. Separate your responses with a comma.,NA,y,17435,NA,NA,3624,16504,NA,NA,NA,"give a massage, talk to, ",1
57aa0bdb9ff3e900014135d9,pvcu3dc568,Affordance Norms_Prolific,1,38,2023-01-11T00:49:23+00:00,18.62001419,69,updated stim.csv,Version69.csv,Version 69,List 69,sponge,NA,2069,6.5,2480,0.696963991,2070,BOI,-,-,Please name all of the ways you could use this object. Keep in mind that one object can have many uses. Separate your responses with a comma.,NA,y,18287,NA,NA,1694,16974,NA,NA,NA,"wash dishes, wash self, wash things, soak up a spill, ",1
57aa0bdb9ff3e900014135d9,pvcu3dc568,Affordance Norms_Prolific,1,39,2023-01-11T00:49:34+00:00,11.03211784,69,updated stim.csv,Version69.csv,Version 69,List 69,lily,NA,2052,4.884615385,1510,0.933135702,2053,BOI,-,-,Please name all of the ways you could use this object. Keep in mind that one object can have many uses. Separate your responses with a comma.,NA,y,10723,NA,NA,2604,8521,NA,NA,NA,"put in a vase, admire, plant, ",1
57aa0bdb9ff3e900014135d9,pvcu3dc568,Affordance Norms_Prolific,1,40,2023-01-11T00:50:02+00:00,27.432271,69,updated stim.csv,Version69.csv,Version 69,List 69,cloth,NA,2070,5.961538462,568,0.069972611,2071,BOI,-,-,Please name all of the ways you could use this object. Keep in mind that one object can have many uses. Separate your responses with a comma.,NA,y,27140,NA,NA,2294,25920,NA,NA,NA,"make clothing, use a rag, use as art, cover jars, wrap gifts, ",1
581ccd016c73180001fa5b2a,bne3ej2rx0,Affordance Norms_Prolific,1,11,2023-01-09T18:26:21+00:00,51.31559801,25,updated stim.csv,Version25.csv,Version 25,List 25,railroad,NA,735,4.333333333,2128,0.54684231,736,BOI,-,-,Please name all of the ways you could use this object. Keep in mind that one object can have many uses. Separate your responses with a comma.,NA,y,50367,NA,NA,20471,34472,NA,NA,NA,travel on train,0.886
581ccd016c73180001fa5b2a,bne3ej2rx0,Affordance Norms_Prolific,1,12,2023-01-09T18:27:40+00:00,79.42930412,25,updated stim.csv,Version25.csv,Version 25,List 25,sandbag,NA,734,5.25,2233,0.672046976,735,BOI,-,-,Please name all of the ways you could use this object. Keep in mind that one object can have many uses. Separate your responses with a comma.,NA,y,78537,NA,NA,3490,36841,NA,NA,NA,"lifting, stop flooding, carrying, ",0.795
581ccd016c73180001fa5b2a,bne3ej2rx0,Affordance Norms_Prolific,1,13,2023-01-09T18:27:57+00:00,16.57003999,25,updated stim.csv,Version25.csv,Version 25,List 25,salmon,NA,748,4.454545455,2224,0.308621104,749,BOI,-,-,Please name all of the ways you could use this object. Keep in mind that one object can have many uses. Separate your responses with a comma.,NA,y,15894,NA,NA,1683,8722,NA,NA,NA,"eat, bait, ",1
581ccd016c73180001fa5b2a,bne3ej2rx0,Affordance Norms_Prolific,1,14,2023-01-09T18:28:50+00:00,52.94737005,25,updated stim.csv,Version25.csv,Version 25,List 25,capes,NA,730,4.481481481,425,0.058894933,731,BOI,-,-,Please name all of the ways you could use this object. Keep in mind that one object can have many uses. Separate your responses with a comma.,NA,y,52058,NA,NA,18671,50323,NA,NA,NA,"keep warm, fancy dress, tablecloth, put on puddle",0.944
581ccd016c73180001fa5b2a,bne3ej2rx0,Affordance Norms_Prolific,1,15,2023-01-09T18:29:25+00:00,35.01334095,25,updated stim.csv,Version25.csv,Version 25,List 25,baton,NA,744,5.913043478,171,0.883078478,745,BOI,-,-,Please name all of the ways you could use this object. Keep in mind that one object can have many uses. Separate your responses with a comma.,NA,y,34107,NA,NA,2347,32243,NA,NA,NA,"hitting, team running",0.893
581ccd016c73180001fa5b2a,bne3ej2rx0,Affordance Norms_Prolific,1,16,2023-01-09T18:30:17+00:00,51.66385388,25,updated stim.csv,Version25.csv,Version 25,List 25,drunkard,NA,739,4.571428571,856,0.285998193,740,BOI,-,-,Please name all of the ways you could use this object. Keep in mind that one object can have many uses. Separate your responses with a comma.,NA,y,50837,NA,NA,34852,49247,NA,NA,NA,"laugh at, make example of",0.969
581ccd016c73180001fa5b2a,bne3ej2rx0,Affordance Norms_Prolific,1,17,2023-01-09T18:31:15+00:00,58.23063707,25,updated stim.csv,Version25.csv,Version 25,List 25,turntable,NA,725,5.347826087,2804,0.886697019,726,BOI,-,-,Please name all of the ways you could use this object. Keep in mind that one object can have many uses. Separate your responses with a comma.,NA,y,57410,NA,NA,48065,56193,NA,NA,NA,"play music, throwing, burn",0.611
581ccd016c73180001fa5b2a,bne3ej2rx0,Affordance Norms_Prolific,1,18,2023-01-09T18:31:40+00:00,24.64159393,25,updated stim.csv,Version25.csv,Version 25,List 25,painkiller,NA,743,5.518518519,1846,0.316542551,744,BOI,-,-,Please name all of the ways you could use this object. Keep in mind that one object can have many uses. Separate your responses with a comma.,NA,y,23751,NA,NA,4256,21216,NA,NA,NA,"ease pain, poison, sell",1
581ccd016c73180001fa5b2a,bne3ej2rx0,Affordance Norms_Prolific,1,19,2023-01-09T18:31:56+00:00,16.25798917,25,updated stim.csv,Version25.csv,Version 25,List 25,housemaid,NA,724,4.84,1332,0.082167944,725,BOI,-,-,Please name all of the ways you could use this object. Keep in mind that one object can have many uses. Separate your responses with a comma.,NA,y,15693,NA,NA,5212,14633,NA,NA,NA,"cleaning, washing, cooking",1
581ccd016c73180001fa5b2a,bne3ej2rx0,Affordance Norms_Prolific,1,20,2023-01-09T18:32:53+00:00,56.87483287,25,updated stim.csv,Version25.csv,Version 25,List 25,snowflake,NA,723,5,2434,0.972688735,724,BOI,-,-,Please name all of the ways you could use this object. Keep in mind that one object can have many uses. Separate your responses with a comma.,NA,y,55963,NA,NA,43231,44654,NA,NA,NA,"swallow, ",1
