Username,ID,ExperimentName,Session,Trial,Date,TimeDif,"Condition Number","Stimuli File","Order File","Condition Description","Condition Notes",Stimuli*Cue,Stimuli*Answer,Stimuli*Shuffle,"Stimuli*Stimuli Notes",Stimuli*Value,Procedure*Item,"Procedure*Trial Type","Procedure*Max Time","Procedure*Min Time",Procedure*Text,"Procedure*Procedure Notes",Procedure*Shuffle,Response*RT,Response*Response,Response*Accuracy,Response*RTfirst,Response*RTlast,Response*strictAcc,Response*lenientAcc,Response*focus,Response*JOL,Response*Focus
tmjones@my.ccsu.edu,s5q3wvdcdo,"Affordance Norms_CCSU",1,1,2023-04-27T17:08:40+00:00,11.177778959274,48,"updated stim.csv",Version98.csv,"Version 98","List 98",,,,,,0,Instruct,-,10,"In this section, you will be presented with a series of objects. Please name as many possible uses for this object as you can think of by typing them in the box below each object.",,Instruct1,11073,,,-1,-1,,,,,1
tmjones@my.ccsu.edu,s5q3wvdcdo,"Affordance Norms_CCSU",1,2,2023-04-27T17:08:52+00:00,11.77285695076,48,"updated stim.csv",Version98.csv,"Version 98","List 98",,,,,,0,Instruct,-,10,"Please keep in mind that a single object will have more than one use. For example, a ball can be thrown or can be bounced or even stepped on. When listing multiple uses for one object, please separate each use with a comma (i.e., thrown, bounced, stepped on)",,Instruct2,11096,,,-1,-1,,,,,1
tmjones@my.ccsu.edu,s5q3wvdcdo,"Affordance Norms_CCSU",1,3,2023-04-27T17:08:54+00:00,1.8614270687103,48,"updated stim.csv",Version98.csv,"Version 98","List 98",,,,,,0,Instruct,-,-,"Before starting the experiment, you will complete a short practice sesstion. Press ENTER when you are ready to begin.",,Instruct3,1444,,,-1,-1,,,,,1
tmjones@my.ccsu.edu,s5q3wvdcdo,"Affordance Norms_CCSU",1,4,2023-04-27T17:09:16+00:00,22.128148078918,48,"updated stim.csv",Version98.csv,"Version 98","List 98",spaghetti,,3003,6,2461,3004,BOI,-,-,"Please name all of the ways you could use this object. Keep in mind that one object can have many uses. Separate your responses with a comma.",,n,21097,,,19722,20495,,,,eat,1
tmjones@my.ccsu.edu,s5q3wvdcdo,"Affordance Norms_CCSU",1,5,2023-04-27T17:09:23+00:00,7.167151927948,48,"updated stim.csv",Version98.csv,"Version 98","List 98",saucer,,3005,5.777777778,2249,3006,BOI,-,-,"Please name all of the ways you could use this object. Keep in mind that one object can have many uses. Separate your responses with a comma.",,n,6966,,,5074,6303,,,,"put food",1
tmjones@my.ccsu.edu,s5q3wvdcdo,"Affordance Norms_CCSU",1,6,2023-04-27T17:09:27+00:00,3.4408130645752,48,"updated stim.csv",Version98.csv,"Version 98","List 98",grain,,3004,5.217391304,1143,3005,BOI,-,-,"Please name all of the ways you could use this object. Keep in mind that one object can have many uses. Separate your responses with a comma.",,n,2775,,,2138,2558,,,,eat,1
tmjones@my.ccsu.edu,s5q3wvdcdo,"Affordance Norms_CCSU",1,7,2023-04-27T17:09:39+00:00,12.739332914352,48,"updated stim.csv",Version98.csv,"Version 98","List 98",paperwork,,3001,5.625,1866,3002,BOI,-,-,"Please name all of the ways you could use this object. Keep in mind that one object can have many uses. Separate your responses with a comma.",,n,12232,,,9069,11025,,,,"office job",1
tmjones@my.ccsu.edu,s5q3wvdcdo,"Affordance Norms_CCSU",1,8,2023-04-27T17:09:46+00:00,6.325511932373,48,"updated stim.csv",Version98.csv,"Version 98","List 98",shortening,,3002,4.92,2358,3003,BOI,-,-,"Please name all of the ways you could use this object. Keep in mind that one object can have many uses. Separate your responses with a comma.",,n,6043,,,2754,5379,,,,"i don't know",1
tmjones@my.ccsu.edu,s5q3wvdcdo,"Affordance Norms_CCSU",1,9,2023-04-27T17:09:48+00:00,2.0710031986237,48,"updated stim.csv",Version98.csv,"Version 98","List 98",,,,,,0,Instruct,-,-,"You have completed this section. Press ENTER to continue",,"Instruct 5",1398,,,-1,-1,,,,,1
tmjones@my.ccsu.edu,s5q3wvdcdo,"Affordance Norms_CCSU",1,10,2023-04-27T17:09:49+00:00,1.5511519908905,48,"updated stim.csv",Version98.csv,"Version 98","List 98",,,,,,0,Instruct,-,-,"You will now start the full experiment. Press ENTER when you are ready to begin.",,,795,,,-1,-1,,,,,1
tmjones@my.ccsu.edu,s5q3wvdcdo,"Affordance Norms_CCSU",1,11,2023-04-27T17:09:53+00:00,3.4781498908997,48,"updated stim.csv",Version98.csv,"Version 98","List 98",wrestler,,2920,4.96,2981,2921,BOI,-,-,"Please name all of the ways you could use this object. Keep in mind that one object can have many uses. Separate your responses with a comma.",,y,3049,,,1978,2879,,,,fight,1
tmjones@my.ccsu.edu,s5q3wvdcdo,"Affordance Norms_CCSU",1,12,2023-04-27T17:09:56+00:00,2.7190029621124,48,"updated stim.csv",Version98.csv,"Version 98","List 98",buttercup,,2933,5.48,376,2934,BOI,-,-,"Please name all of the ways you could use this object. Keep in mind that one object can have many uses. Separate your responses with a comma.",,y,2376,,,1667,2194,,,,eat,1
tmjones@my.ccsu.edu,s5q3wvdcdo,"Affordance Norms_CCSU",1,13,2023-04-27T17:10:02+00:00,6.6058881282806,48,"updated stim.csv",Version98.csv,"Version 98","List 98",aluminum,,2930,5.083333333,32,2931,BOI,-,-,"Please name all of the ways you could use this object. Keep in mind that one object can have many uses. Separate your responses with a comma.",,y,5686,,,2623,5469,,,,"hold food",1
tmjones@my.ccsu.edu,s5q3wvdcdo,"Affordance Norms_CCSU",1,14,2023-04-27T17:10:06+00:00,3.6056349277496,48,"updated stim.csv",Version98.csv,"Version 98","List 98",astronaut,,2919,4.357142857,91,2920,BOI,-,-,"Please name all of the ways you could use this object. Keep in mind that one object can have many uses. Separate your responses with a comma.",,y,2753,,,1871,2566,,,,space,1
tmjones@my.ccsu.edu,s5q3wvdcdo,"Affordance Norms_CCSU",1,15,2023-04-27T17:10:11+00:00,5.2875800132751,48,"updated stim.csv",Version98.csv,"Version 98","List 98",hiker,,2927,5.260869565,1287,2928,BOI,-,-,"Please name all of the ways you could use this object. Keep in mind that one object can have many uses. Separate your responses with a comma.",,y,4178,,,1966,3911,,,,excercise,1
tmjones@my.ccsu.edu,s5q3wvdcdo,"Affordance Norms_CCSU",1,16,2023-04-27T17:10:18+00:00,6.7063760757446,48,"updated stim.csv",Version98.csv,"Version 98","List 98",plaque,,2914,4.52,1992,2915,BOI,-,-,"Please name all of the ways you could use this object. Keep in mind that one object can have many uses. Separate your responses with a comma.",,y,5535,,,4296,5111,,,,award,1
tmjones@my.ccsu.edu,s5q3wvdcdo,"Affordance Norms_CCSU",1,17,2023-04-27T17:10:24+00:00,6.4858238697052,48,"updated stim.csv",Version98.csv,"Version 98","List 98",fender,,2926,4.791666667,963,2927,BOI,-,-,"Please name all of the ways you could use this object. Keep in mind that one object can have many uses. Separate your responses with a comma.",,y,5061,,,1103,4846,,,,"i don't know",1
tmjones@my.ccsu.edu,s5q3wvdcdo,"Affordance Norms_CCSU",1,18,2023-04-27T17:10:31+00:00,6.5357091426849,48,"updated stim.csv",Version98.csv,"Version 98","List 98",noose,,2929,4.708333333,1778,2930,BOI,-,-,"Please name all of the ways you could use this object. Keep in mind that one object can have many uses. Separate your responses with a comma.",,y,6128,,,1765,5959,,,,"i don't know",1
tmjones@my.ccsu.edu,s5q3wvdcdo,"Affordance Norms_CCSU",1,19,2023-04-27T17:10:34+00:00,3.0294868946075,48,"updated stim.csv",Version98.csv,"Version 98","List 98",kale,,2912,5.652173913,1399,2913,BOI,-,-,"Please name all of the ways you could use this object. Keep in mind that one object can have many uses. Separate your responses with a comma.",,y,2330,,,1615,2131,,,,eat,1
tmjones@my.ccsu.edu,s5q3wvdcdo,"Affordance Norms_CCSU",1,20,2023-04-27T17:11:08+00:00,34.428350925446,48,"updated stim.csv",Version98.csv,"Version 98","List 98",schoolwork,,2918,4.5,2273,2919,BOI,-,-,"Please name all of the ways you could use this object. Keep in mind that one object can have many uses. Separate your responses with a comma.",,y,33400,,,31513,32843,,,,education,1
tmjones@my.ccsu.edu,s5q3wvdcdo,"Affordance Norms_CCSU",1,21,2023-04-27T17:11:11+00:00,2.4444200992584,48,"updated stim.csv",Version98.csv,"Version 98","List 98",knot,,2916,5.76,1438,2917,BOI,-,-,"Please name all of the ways you could use this object. Keep in mind that one object can have many uses. Separate your responses with a comma.",,y,1902,,,1349,1611,,,,tie,1
tmjones@my.ccsu.edu,s5q3wvdcdo,"Affordance Norms_CCSU",1,22,2023-04-27T17:11:26+00:00,14.943360090256,48,"updated stim.csv",Version98.csv,"Version 98","List 98",cowhide,,2922,4.6,672,2923,BOI,-,-,"Please name all of the ways you could use this object. Keep in mind that one object can have many uses. Separate your responses with a comma.",,y,14111,,,11206,13605,,,,"i don't know",1
tmjones@my.ccsu.edu,s5q3wvdcdo,"Affordance Norms_CCSU",1,23,2023-04-27T17:11:31+00:00,5.828293800354,48,"updated stim.csv",Version98.csv,"Version 98","List 98",magnet,,2940,5.615384615,1572,2941,BOI,-,-,"Please name all of the ways you could use this object. Keep in mind that one object can have many uses. Separate your responses with a comma.",,y,5193,,,2580,5004,,,,pull,1
tmjones@my.ccsu.edu,s5q3wvdcdo,"Affordance Norms_CCSU",1,24,2023-04-27T17:11:35+00:00,3.4706501960754,48,"updated stim.csv",Version98.csv,"Version 98","List 98",gun,,2923,6.12,1198,2924,BOI,-,-,"Please name all of the ways you could use this object. Keep in mind that one object can have many uses. Separate your responses with a comma.",,y,2257,,,1498,2071,,,,kill,1
tmjones@my.ccsu.edu,s5q3wvdcdo,"Affordance Norms_CCSU",1,25,2023-04-27T17:11:38+00:00,3.2194550037384,48,"updated stim.csv",Version98.csv,"Version 98","List 98",clothes,,2939,6.08,569,2940,BOI,-,-,"Please name all of the ways you could use this object. Keep in mind that one object can have many uses. Separate your responses with a comma.",,y,1980,,,1232,1708,,,,wash,1
tmjones@my.ccsu.edu,s5q3wvdcdo,"Affordance Norms_CCSU",1,26,2023-04-27T17:11:42+00:00,4.2677149772644,48,"updated stim.csv",Version98.csv,"Version 98","List 98",gynecologist,,2911,4.833333333,1206,2912,BOI,-,-,"Please name all of the ways you could use this object. Keep in mind that one object can have many uses. Separate your responses with a comma.",,y,3868,,,2650,3671,,,,doctor,1
tmjones@my.ccsu.edu,s5q3wvdcdo,"Affordance Norms_CCSU",1,27,2023-04-27T17:11:47+00:00,4.2432858943939,48,"updated stim.csv",Version98.csv,"Version 98","List 98",pinball,,2925,5.782608696,1968,2926,BOI,-,-,"Please name all of the ways you could use this object. Keep in mind that one object can have many uses. Separate your responses with a comma.",,y,3813,,,2394,3268,,,,play,1
tmjones@my.ccsu.edu,s5q3wvdcdo,"Affordance Norms_CCSU",1,28,2023-04-27T17:11:55+00:00,8.2022230625153,48,"updated stim.csv",Version98.csv,"Version 98","List 98",lens,,2917,5.115384615,1491,2918,BOI,-,-,"Please name all of the ways you could use this object. Keep in mind that one object can have many uses. Separate your responses with a comma.",,y,6708,,,5517,6008,,,,see,1
tmjones@my.ccsu.edu,s5q3wvdcdo,"Affordance Norms_CCSU",1,29,2023-04-27T17:12:14+00:00,19.150307893753,48,"updated stim.csv",Version98.csv,"Version 98","List 98",tutu,,2932,5.413793103,2808,2933,BOI,-,-,"Please name all of the ways you could use this object. Keep in mind that one object can have many uses. Separate your responses with a comma.",,y,18817,,,16575,17439,,,,eat,1
tmjones@my.ccsu.edu,s5q3wvdcdo,"Affordance Norms_CCSU",1,30,2023-04-27T17:13:01+00:00,46.787520170212,48,"updated stim.csv",Version98.csv,"Version 98","List 98",townspeople,,2928,4.909090909,2749,2929,BOI,-,-,"Please name all of the ways you could use this object. Keep in mind that one object can have many uses. Separate your responses with a comma.",,y,46135,,,42053,45585,,,,"i don't know",1
tmjones@my.ccsu.edu,s5q3wvdcdo,"Affordance Norms_CCSU",1,31,2023-04-27T17:13:14+00:00,12.754117965698,48,"updated stim.csv",Version98.csv,"Version 98","List 98",companion,,2936,5.739130435,611,2937,BOI,-,-,"Please name all of the ways you could use this object. Keep in mind that one object can have many uses. Separate your responses with a comma.",,y,12320,,,8173,12151,,,,"i don't know",1
tmjones@my.ccsu.edu,s5q3wvdcdo,"Affordance Norms_CCSU",1,32,2023-04-27T17:13:18+00:00,4.7700438499451,48,"updated stim.csv",Version98.csv,"Version 98","List 98",scallop,,2921,5.48,2261,2922,BOI,-,-,"Please name all of the ways you could use this object. Keep in mind that one object can have many uses. Separate your responses with a comma.",,y,4123,,,2184,2816,,,,eat,1
tmjones@my.ccsu.edu,s5q3wvdcdo,"Affordance Norms_CCSU",1,33,2023-04-27T17:14:33+00:00,74.424880027771,48,"updated stim.csv",Version98.csv,"Version 98","List 98",busman,,2931,4.68,372,2932,BOI,-,-,"Please name all of the ways you could use this object. Keep in mind that one object can have many uses. Separate your responses with a comma.",,y,73092,,,72418,72741,,,,job,1
tmjones@my.ccsu.edu,s5q3wvdcdo,"Affordance Norms_CCSU",1,34,2023-04-27T17:14:38+00:00,5.0898470878601,48,"updated stim.csv",Version98.csv,"Version 98","List 98",harness,,2913,4.4,1252,2914,BOI,-,-,"Please name all of the ways you could use this object. Keep in mind that one object can have many uses. Separate your responses with a comma.",,y,4907,,,1499,4530,,,,"i don't know",1
tmjones@my.ccsu.edu,s5q3wvdcdo,"Affordance Norms_CCSU",1,35,2023-04-27T17:14:42+00:00,3.7458610534668,48,"updated stim.csv",Version98.csv,"Version 98","List 98",document,,2915,4.818181818,810,2916,BOI,-,-,"Please name all of the ways you could use this object. Keep in mind that one object can have many uses. Separate your responses with a comma.",,y,2753,,,1469,1998,,,,paper,1
tmjones@my.ccsu.edu,s5q3wvdcdo,"Affordance Norms_CCSU",1,36,2023-04-27T17:14:48+00:00,6.2900869846344,48,"updated stim.csv",Version98.csv,"Version 98","List 98",nipple,,2934,5.625,1775,2935,BOI,-,-,"Please name all of the ways you could use this object. Keep in mind that one object can have many uses. Separate your responses with a comma.",,y,5025,,,4686,4686,,,,?,1
tmjones@my.ccsu.edu,s5q3wvdcdo,"Affordance Norms_CCSU",1,37,2023-04-27T17:14:52+00:00,4.3268568515778,48,"updated stim.csv",Version98.csv,"Version 98","List 98",sand,,2937,5.956521739,2231,2938,BOI,-,-,"Please name all of the ways you could use this object. Keep in mind that one object can have many uses. Separate your responses with a comma.",,y,3391,,,2314,3023,,,,beach,1
tmjones@my.ccsu.edu,s5q3wvdcdo,"Affordance Norms_CCSU",1,38,2023-04-27T17:14:59+00:00,6.6825971603394,48,"updated stim.csv",Version98.csv,"Version 98","List 98",meteorologist,,2935,4.875,1652,2936,BOI,-,-,"Please name all of the ways you could use this object. Keep in mind that one object can have many uses. Separate your responses with a comma.",,y,5674,,,1677,2763,,,,weather,1
tmjones@my.ccsu.edu,s5q3wvdcdo,"Affordance Norms_CCSU",1,39,2023-04-27T17:15:02+00:00,2.9229588508606,48,"updated stim.csv",Version98.csv,"Version 98","List 98",hostel,,2924,4.708333333,1320,2925,BOI,-,-,"Please name all of the ways you could use this object. Keep in mind that one object can have many uses. Separate your responses with a comma.",,y,1874,,,1620,1620,,,,?,1
tmjones@my.ccsu.edu,s5q3wvdcdo,"Affordance Norms_CCSU",1,40,2023-04-27T17:15:07+00:00,5.2091341018677,48,"updated stim.csv",Version98.csv,"Version 98","List 98",quarterback,,2938,4.346153846,2111,2939,BOI,-,-,"Please name all of the ways you could use this object. Keep in mind that one object can have many uses. Separate your responses with a comma.",,y,4177,,,1852,3867,,,,football,1
tmjones@my.ccsu.edu,s5q3wvdcdo,"Affordance Norms_CCSU",1,41,2023-04-27T17:15:10+00:00,2.6665329933167,48,"updated stim.csv",Version98.csv,"Version 98","List 98",,,,,,0,Instruct,,,"You will now be asked a few questions about your experience today.",,"Instruct 4",1715,,,-1,-1,,,,,1
