Username,ID,ExperimentName,Session,Trial,Date,TimeDif,"Condition Number","Stimuli File","Order File","Condition Description","Condition Notes",Stimuli*Cue,Stimuli*Answer,Stimuli*Shuffle,"Stimuli*Stimuli Notes",Stimuli*Value,Procedure*Item,"Procedure*Trial Type","Procedure*Max Time","Procedure*Min Time",Procedure*Text,"Procedure*Procedure Notes",Procedure*Shuffle,Response*RT,Response*Response,Response*Accuracy,Response*RTfirst,Response*RTlast,Response*strictAcc,Response*lenientAcc,Response*focus,Response*JOL,Response*Focus
laney.kosakowski@my.ccsu.edu,azf9fropk8,"Affordance Norms_CCSU",1,1,2022-11-14T22:48:27+00:00,10.250702857971,49,"updated stim.csv",Version99.csv,"Version 99","List 99",,,,,,0,Instruct,-,10,"In this section, you will be presented with a series of objects. Please name as many possible uses for this object as you can think of by typing them in the box below each object.",,Instruct1,10124,,,-1,-1,,,,,1
laney.kosakowski@my.ccsu.edu,azf9fropk8,"Affordance Norms_CCSU",1,2,2022-11-14T22:48:38+00:00,11.065870046616,49,"updated stim.csv",Version99.csv,"Version 99","List 99",,,,,,0,Instruct,-,10,"Please keep in mind that a single object will have more than one use. For example, a ball can be thrown or can be bounced or even stepped on. When listing multiple uses for one object, please separate each use with a comma (i.e., thrown, bounced, stepped on)",,Instruct2,10824,,,-1,-1,,,,,1
laney.kosakowski@my.ccsu.edu,azf9fropk8,"Affordance Norms_CCSU",1,3,2022-11-14T22:48:41+00:00,3.4446609020233,49,"updated stim.csv",Version99.csv,"Version 99","List 99",,,,,,0,Instruct,-,-,"Before starting the experiment, you will complete a short practice sesstion. Press ENTER when you are ready to begin.",,Instruct3,3164,,,-1,-1,,,,,1
laney.kosakowski@my.ccsu.edu,azf9fropk8,"Affordance Norms_CCSU",1,4,2022-11-14T22:48:54+00:00,13.014384031296,49,"updated stim.csv",Version99.csv,"Version 99","List 99",paperwork,,3001,5.625,1866,3002,BOI,-,-,"Please name all of the ways you could use this object. Keep in mind that one object can have many uses. Separate your responses with a comma.",,n,12806,,,2980,12531,,,,"read, file, throw away, submit",1
laney.kosakowski@my.ccsu.edu,azf9fropk8,"Affordance Norms_CCSU",1,5,2022-11-14T22:49:00+00:00,6.02450299263,49,"updated stim.csv",Version99.csv,"Version 99","List 99",shortening,,3002,4.92,2358,3003,BOI,-,-,"Please name all of the ways you could use this object. Keep in mind that one object can have many uses. Separate your responses with a comma.",,n,5823,,,-1,-1,,,,,1
laney.kosakowski@my.ccsu.edu,azf9fropk8,"Affordance Norms_CCSU",1,6,2022-11-14T22:49:10+00:00,9.5220100879669,49,"updated stim.csv",Version99.csv,"Version 99","List 99",grain,,3004,5.217391304,1143,3005,BOI,-,-,"Please name all of the ways you could use this object. Keep in mind that one object can have many uses. Separate your responses with a comma.",,n,9338,,,2008,8938,,,,"make bread, make rice",1
laney.kosakowski@my.ccsu.edu,azf9fropk8,"Affordance Norms_CCSU",1,7,2022-11-14T22:49:35+00:00,25.020318031311,49,"updated stim.csv",Version99.csv,"Version 99","List 99",saucer,,3005,5.777777778,2249,3006,BOI,-,-,"Please name all of the ways you could use this object. Keep in mind that one object can have many uses. Separate your responses with a comma.",,n,24686,,,2430,22985,,,,"drink tea, drink coffee, decoration",1
laney.kosakowski@my.ccsu.edu,azf9fropk8,"Affordance Norms_CCSU",1,8,2022-11-14T22:49:41+00:00,6.2626299858093,49,"updated stim.csv",Version99.csv,"Version 99","List 99",spaghetti,,3003,6,2461,3004,BOI,-,-,"Please name all of the ways you could use this object. Keep in mind that one object can have many uses. Separate your responses with a comma.",,n,6069,,,1316,3663,,,,"eat, cook",1
laney.kosakowski@my.ccsu.edu,azf9fropk8,"Affordance Norms_CCSU",1,9,2022-11-14T22:49:42+00:00,1.4928178787231,49,"updated stim.csv",Version99.csv,"Version 99","List 99",,,,,,0,Instruct,-,-,"You have completed this section. Press ENTER to continue",,"Instruct 5",1319,,,-1,-1,,,,,1
laney.kosakowski@my.ccsu.edu,azf9fropk8,"Affordance Norms_CCSU",1,10,2022-11-14T22:49:44+00:00,1.2615721225739,49,"updated stim.csv",Version99.csv,"Version 99","List 99",,,,,,0,Instruct,-,-,"You will now start the full experiment. Press ENTER when you are ready to begin.",,,1080,,,-1,-1,,,,,1
laney.kosakowski@my.ccsu.edu,azf9fropk8,"Affordance Norms_CCSU",1,11,2022-11-14T22:49:50+00:00,6.1865890026093,49,"updated stim.csv",Version99.csv,"Version 99","List 99",doughnut,,2966,6.260869565,834,2967,BOI,-,-,"Please name all of the ways you could use this object. Keep in mind that one object can have many uses. Separate your responses with a comma.",,y,5985,,,1171,5315,,,,"eat, cook, frost",1
laney.kosakowski@my.ccsu.edu,azf9fropk8,"Affordance Norms_CCSU",1,12,2022-11-14T22:49:56+00:00,5.7140960693359,49,"updated stim.csv",Version99.csv,"Version 99","List 99",springboard,,2943,5,2488,2944,BOI,-,-,"Please name all of the ways you could use this object. Keep in mind that one object can have many uses. Separate your responses with a comma.",,y,5515,,,3264,5250,,,,"jump off of",1
laney.kosakowski@my.ccsu.edu,azf9fropk8,"Affordance Norms_CCSU",1,13,2022-11-14T22:50:08+00:00,12.178711891174,49,"updated stim.csv",Version99.csv,"Version 99","List 99",plant,,2963,5.652173913,1989,2964,BOI,-,-,"Please name all of the ways you could use this object. Keep in mind that one object can have many uses. Separate your responses with a comma.",,y,11983,,,1552,11323,,,,"grow, water, kill, bring back to life",1
laney.kosakowski@my.ccsu.edu,azf9fropk8,"Affordance Norms_CCSU",1,14,2022-11-14T22:50:19+00:00,11.681035041809,49,"updated stim.csv",Version99.csv,"Version 99","List 99",rat,,2950,4.608695652,2139,2951,BOI,-,-,"Please name all of the ways you could use this object. Keep in mind that one object can have many uses. Separate your responses with a comma.",,y,11487,,,1513,11132,,,,"kill, keep as pet, pet, snake food",1
laney.kosakowski@my.ccsu.edu,azf9fropk8,"Affordance Norms_CCSU",1,15,2022-11-14T22:50:32+00:00,12.450942993164,49,"updated stim.csv",Version99.csv,"Version 99","List 99",horseradish,,2942,5.24,1315,2943,BOI,-,-,"Please name all of the ways you could use this object. Keep in mind that one object can have many uses. Separate your responses with a comma.",,y,12245,,,1294,11948,,,,"eat, spread on sandwhich, dip veggies in ",1
laney.kosakowski@my.ccsu.edu,azf9fropk8,"Affordance Norms_CCSU",1,16,2022-11-14T22:50:39+00:00,7.3281109333038,49,"updated stim.csv",Version99.csv,"Version 99","List 99",stepfather,,2948,5.16,2526,2949,BOI,-,-,"Please name all of the ways you could use this object. Keep in mind that one object can have many uses. Separate your responses with a comma.",,y,7121,,,5524,6747,,,,support,1
laney.kosakowski@my.ccsu.edu,azf9fropk8,"Affordance Norms_CCSU",1,17,2022-11-14T22:50:48+00:00,8.5397100448608,49,"updated stim.csv",Version99.csv,"Version 99","List 99",casebook,,2957,5.391304348,446,2958,BOI,-,-,"Please name all of the ways you could use this object. Keep in mind that one object can have many uses. Separate your responses with a comma.",,y,8348,,,3470,7983,,,,"enter information into it",1
laney.kosakowski@my.ccsu.edu,azf9fropk8,"Affordance Norms_CCSU",1,18,2022-11-14T22:50:58+00:00,9.8205969333649,49,"updated stim.csv",Version99.csv,"Version 99","List 99",stall,,2955,4.625,2504,2956,BOI,-,-,"Please name all of the ways you could use this object. Keep in mind that one object can have many uses. Separate your responses with a comma.",,y,9613,,,1505,9275,,,,"go to the bathroom, change clothing",1
laney.kosakowski@my.ccsu.edu,azf9fropk8,"Affordance Norms_CCSU",1,19,2022-11-14T22:51:15+00:00,17.028171062469,49,"updated stim.csv",Version99.csv,"Version 99","List 99",calender,,2945,5.84,401,2946,BOI,-,-,"Please name all of the ways you could use this object. Keep in mind that one object can have many uses. Separate your responses with a comma.",,y,16824,,,3311,13082,,,,"keep track of dates, keep track of events",1
laney.kosakowski@my.ccsu.edu,azf9fropk8,"Affordance Norms_CCSU",1,20,2022-11-14T22:51:38+00:00,23.241156101227,49,"updated stim.csv",Version99.csv,"Version 99","List 99",builder,,2954,4.826086957,349,2955,BOI,-,-,"Please name all of the ways you could use this object. Keep in mind that one object can have many uses. Separate your responses with a comma.",,y,22868,,,11646,22119,,,,"build furniture",1
laney.kosakowski@my.ccsu.edu,azf9fropk8,"Affordance Norms_CCSU",1,21,2022-11-14T22:51:43+00:00,5.2196660041809,49,"updated stim.csv",Version99.csv,"Version 99","List 99",tar,,2951,4.37037037,2635,2952,BOI,-,-,"Please name all of the ways you could use this object. Keep in mind that one object can have many uses. Separate your responses with a comma.",,y,5013,,,1806,4412,,,,"pave roads",1
laney.kosakowski@my.ccsu.edu,azf9fropk8,"Affordance Norms_CCSU",1,22,2022-11-14T22:55:16+00:00,213.17102694511,49,"updated stim.csv",Version99.csv,"Version 99","List 99",vaseline,,2964,5.608695652,2839,2965,BOI,-,-,"Please name all of the ways you could use this object. Keep in mind that one object can have many uses. Separate your responses with a comma.",,y,212822,,,3974,151082,,,,"treat dry skin, heal tattoos, fix dry lips",1
laney.kosakowski@my.ccsu.edu,azf9fropk8,"Affordance Norms_CCSU",1,23,2022-11-14T22:55:24+00:00,8.0845968723297,49,"updated stim.csv",Version99.csv,"Version 99","List 99",concert,,2949,4.714285714,617,2950,BOI,-,-,"Please name all of the ways you could use this object. Keep in mind that one object can have many uses. Separate your responses with a comma.",,y,7877,,,1946,7618,,,,"sing, dance, have fun",1
laney.kosakowski@my.ccsu.edu,azf9fropk8,"Affordance Norms_CCSU",1,24,2022-11-14T22:55:33+00:00,8.8541080951691,49,"updated stim.csv",Version99.csv,"Version 99","List 99",mitt,,2959,6.08,1670,2960,BOI,-,-,"Please name all of the ways you could use this object. Keep in mind that one object can have many uses. Separate your responses with a comma.",,y,8663,,,3343,8335,,,,"baseball, keep hands warm",1
laney.kosakowski@my.ccsu.edu,azf9fropk8,"Affordance Norms_CCSU",1,25,2022-11-14T22:55:42+00:00,9.3240060806274,49,"updated stim.csv",Version99.csv,"Version 99","List 99",aunt,,2960,5.041666667,98,2961,BOI,-,-,"Please name all of the ways you could use this object. Keep in mind that one object can have many uses. Separate your responses with a comma.",,y,9129,,,2203,8926,,,,"love, talk to, care for",1
laney.kosakowski@my.ccsu.edu,azf9fropk8,"Affordance Norms_CCSU",1,26,2022-11-14T22:55:46+00:00,4.0511898994446,49,"updated stim.csv",Version99.csv,"Version 99","List 99",horseman,,2956,4.28,1314,2957,BOI,-,-,"Please name all of the ways you could use this object. Keep in mind that one object can have many uses. Separate your responses with a comma.",,y,3813,,,1855,3662,,,,"ride horses",1
laney.kosakowski@my.ccsu.edu,azf9fropk8,"Affordance Norms_CCSU",1,27,2022-11-14T22:56:05+00:00,18.874026060104,49,"updated stim.csv",Version99.csv,"Version 99","List 99",forefinger,,2965,5.16,1044,2966,BOI,-,-,"Please name all of the ways you could use this object. Keep in mind that one object can have many uses. Separate your responses with a comma.",,y,18520,,,3336,18155,,,,"grab things, finger scan ID",1
laney.kosakowski@my.ccsu.edu,azf9fropk8,"Affordance Norms_CCSU",1,28,2022-11-14T22:56:09+00:00,3.6412119865417,49,"updated stim.csv",Version99.csv,"Version 99","List 99",thyme,,2941,4.958333333,2691,2942,BOI,-,-,"Please name all of the ways you could use this object. Keep in mind that one object can have many uses. Separate your responses with a comma.",,y,3406,,,2006,3112,,,,"cook with",1
laney.kosakowski@my.ccsu.edu,azf9fropk8,"Affordance Norms_CCSU",1,29,2022-11-14T22:56:19+00:00,10.10607790947,49,"updated stim.csv",Version99.csv,"Version 99","List 99",armpit,,2967,5.52,75,2968,BOI,-,-,"Please name all of the ways you could use this object. Keep in mind that one object can have many uses. Separate your responses with a comma.",,y,9902,,,1384,9467,,,,"smell, apply deoterant, sweat",1
laney.kosakowski@my.ccsu.edu,azf9fropk8,"Affordance Norms_CCSU",1,30,2022-11-14T22:56:35+00:00,15.516672134399,49,"updated stim.csv",Version99.csv,"Version 99","List 99",toast,,2953,6.2,2709,2954,BOI,-,-,"Please name all of the ways you could use this object. Keep in mind that one object can have many uses. Separate your responses with a comma.",,y,15306,,,5653,13506,,,,"spread butter, spread jelly, eat",1
laney.kosakowski@my.ccsu.edu,azf9fropk8,"Affordance Norms_CCSU",1,31,2022-11-14T22:56:45+00:00,10.498473882675,49,"updated stim.csv",Version99.csv,"Version 99","List 99",employer,,2944,5.291666667,904,2945,BOI,-,-,"Please name all of the ways you could use this object. Keep in mind that one object can have many uses. Separate your responses with a comma.",,y,10298,,,4468,8458,,,,"work, fire",1
laney.kosakowski@my.ccsu.edu,azf9fropk8,"Affordance Norms_CCSU",1,32,2022-11-14T22:57:01+00:00,15.566919088364,49,"updated stim.csv",Version99.csv,"Version 99","List 99",actor,,2961,4.739130435,10,2962,BOI,-,-,"Please name all of the ways you could use this object. Keep in mind that one object can have many uses. Separate your responses with a comma.",,y,15363,,,6035,15159,,,,"act in play, act in tv shows, act in movies",1
laney.kosakowski@my.ccsu.edu,azf9fropk8,"Affordance Norms_CCSU",1,33,2022-11-14T22:57:20+00:00,19.315180063248,49,"updated stim.csv",Version99.csv,"Version 99","List 99",bomb,,2970,4.384615385,264,2971,BOI,-,-,"Please name all of the ways you could use this object. Keep in mind that one object can have many uses. Separate your responses with a comma.",,y,19105,,,15888,18864,,,,"explode, kill someon",1
laney.kosakowski@my.ccsu.edu,azf9fropk8,"Affordance Norms_CCSU",1,34,2022-11-14T22:57:24+00:00,4.0654609203339,49,"updated stim.csv",Version99.csv,"Version 99","List 99",building,,2968,5.208333333,350,2969,BOI,-,-,"Please name all of the ways you could use this object. Keep in mind that one object can have many uses. Separate your responses with a comma.",,y,3863,,,2676,3619,,,,"live in ",1
laney.kosakowski@my.ccsu.edu,azf9fropk8,"Affordance Norms_CCSU",1,35,2022-11-14T22:59:01+00:00,96.667362928391,49,"updated stim.csv",Version99.csv,"Version 99","List 99",cattle,,2969,4.625,463,2970,BOI,-,-,"Please name all of the ways you could use this object. Keep in mind that one object can have many uses. Separate your responses with a comma.",,y,96281,,,92480,96010,,,,"take care of farm",1
laney.kosakowski@my.ccsu.edu,azf9fropk8,"Affordance Norms_CCSU",1,36,2022-11-14T22:59:37+00:00,35.822189092636,49,"updated stim.csv",Version99.csv,"Version 99","List 99",contraceptive,,2958,5.391304348,629,2959,BOI,-,-,"Please name all of the ways you could use this object. Keep in mind that one object can have many uses. Separate your responses with a comma.",,y,35457,,,5107,35146,,,,"prevent pregnancy ",1
laney.kosakowski@my.ccsu.edu,azf9fropk8,"Affordance Norms_CCSU",1,37,2022-11-14T22:59:40+00:00,3.1769368648529,49,"updated stim.csv",Version99.csv,"Version 99","List 99",garbage,,2952,4.96,1075,2953,BOI,-,-,"Please name all of the ways you could use this object. Keep in mind that one object can have many uses. Separate your responses with a comma.",,y,2967,,,1407,2681,,,,"throw away",1
laney.kosakowski@my.ccsu.edu,azf9fropk8,"Affordance Norms_CCSU",1,38,2022-11-14T22:59:48+00:00,7.7746291160583,49,"updated stim.csv",Version99.csv,"Version 99","List 99",river,,2947,4.64,2172,2948,BOI,-,-,"Please name all of the ways you could use this object. Keep in mind that one object can have many uses. Separate your responses with a comma.",,y,7556,,,1448,7184,,,,"swim, float, canoe ",1
laney.kosakowski@my.ccsu.edu,azf9fropk8,"Affordance Norms_CCSU",1,39,2022-11-14T22:59:53+00:00,5.6656229496002,49,"updated stim.csv",Version99.csv,"Version 99","List 99",recorder,,2962,5.8,2148,2963,BOI,-,-,"Please name all of the ways you could use this object. Keep in mind that one object can have many uses. Separate your responses with a comma.",,y,5461,,,2950,5311,,,,"record voice",1
laney.kosakowski@my.ccsu.edu,azf9fropk8,"Affordance Norms_CCSU",1,40,2022-11-14T23:00:19+00:00,25.66942691803,49,"updated stim.csv",Version99.csv,"Version 99","List 99",flour,,2946,5.875,1014,2947,BOI,-,-,"Please name all of the ways you could use this object. Keep in mind that one object can have many uses. Separate your responses with a comma.",,y,25333,,,21871,25039,,,,"bake, cook",1
laney.kosakowski@my.ccsu.edu,azf9fropk8,"Affordance Norms_CCSU",1,41,2022-11-14T23:00:21+00:00,2.159264087677,49,"updated stim.csv",Version99.csv,"Version 99","List 99",,,,,,0,Instruct,,,"You will now be asked a few questions about your experience today.",,"Instruct 4",1957,,,-1,-1,,,,,1
