"Username","ID","ExperimentName","Session","Trial","Date","TimeDif","Condition.Number","Stimuli.File","Order.File","Condition.Description","Condition.Notes","Stimuli.Cue","Stimuli.Answer","Stimuli.Shuffle","Stimuli.Stimuli.Notes","Stimuli.Value","Stimuli.Rand","Procedure.Item","Procedure.Trial.Type","Procedure.Max.Time","Procedure.Min.Time","Procedure.Text","Procedure.Procedure.Notes","Procedure.Shuffle","Response.RT","Response.Response","Response.Accuracy","Response.RTfirst","Response.RTlast","Response.strictAcc","Response.lenientAcc","Response.focus","Response.JOL","Response.Focus"
"M10248901KMM","pvrv7mbylv","Affordance Norms_MSU_TEX",1,11,"2022-10-02T00:27:20+00:00",38.884255170822,8,"updated stim.csv","Version8.csv","Version 8","List 8","excavator",NA,224,4.409090909,925,0.140617165,225,"BOI","-","-","Please name all of the ways you could use this object. Keep in mind that one object can have many uses. Separate your responses with a comma.",NA,"y",38260,NA,NA,5843,35377,NA,NA,NA,"move things, create holes, dig, ride in, drive ",1
"M10248901KMM","pvrv7mbylv","Affordance Norms_MSU_TEX",1,12,"2022-10-02T00:27:22+00:00",1.6877830028534,8,"updated stim.csv","Version8.csv","Version 8","List 8","roll",NA,212,4.44,2187,0.118404242,213,"BOI","-","-","Please name all of the ways you could use this object. Keep in mind that one object can have many uses. Separate your responses with a comma.",NA,"y",886,NA,NA,-1,-1,NA,NA,NA,"",1
"M10248901KMM","pvrv7mbylv","Affordance Norms_MSU_TEX",1,13,"2022-10-02T00:28:25+00:00",63.461197853088,8,"updated stim.csv","Version8.csv","Version 8","List 8","strongbox",NA,223,4.454545455,2571,0.678876617,224,"BOI","-","-","Please name all of the ways you could use this object. Keep in mind that one object can have many uses. Separate your responses with a comma.",NA,"y",62880,NA,NA,26840,60226,NA,NA,NA,"store personal items, sit on, kick, carry",1
"M10248901KMM","pvrv7mbylv","Affordance Norms_MSU_TEX",1,14,"2022-10-02T00:29:36+00:00",70.976982116699,8,"updated stim.csv","Version8.csv","Version 8","List 8","paperback",NA,218,5.090909091,1863,0.914778388,219,"BOI","-","-","Please name all of the ways you could use this object. Keep in mind that one object can have many uses. Separate your responses with a comma.",NA,"y",69950,NA,NA,16844,68367,NA,NA,NA,"tear, bend, write on, sit on, throw, read, rip, brand,set on fire, ",1
"M10248901KMM","pvrv7mbylv","Affordance Norms_MSU_TEX",1,15,"2022-10-02T00:30:18+00:00",41.739622831345,8,"updated stim.csv","Version8.csv","Version 8","List 8","plum",NA,238,5.62962963,2010,0.625895758,239,"BOI","-","-","Please name all of the ways you could use this object. Keep in mind that one object can have many uses. Separate your responses with a comma.",NA,"y",40733,NA,NA,1896,38929,NA,NA,NA,"eat, slice, dice, crush, hit, dehydrate, bake, pick, eat",1
"M10248901KMM","pvrv7mbylv","Affordance Norms_MSU_TEX",1,16,"2022-10-02T00:31:59+00:00",100.92563819885,8,"updated stim.csv","Version8.csv","Version 8","List 8","body",NA,234,6.038461538,260,0.738290174,235,"BOI","-","-","Please name all of the ways you could use this object. Keep in mind that one object can have many uses. Separate your responses with a comma.",NA,"y",99906,NA,NA,3408,84537,NA,NA,NA,"run, jump, sit, walk, move, twist, bend, break, nourish, feed, love, to have sex, give hugs, pump up, excite ",1
"M10248901KMM","pvrv7mbylv","Affordance Norms_MSU_TEX",1,17,"2022-10-02T00:33:37+00:00",97.961155891418,8,"updated stim.csv","Version8.csv","Version 8","List 8","tailcoat",NA,240,5.47826087,2624,0.573904042,241,"BOI","-","-","Please name all of the ways you could use this object. Keep in mind that one object can have many uses. Separate your responses with a comma.",NA,"y",96963,NA,NA,4790,93509,NA,NA,NA,"sew, cut, rip, tuck, squeeze, stitch, dye",1
"M10248901KMM","pvrv7mbylv","Affordance Norms_MSU_TEX",1,18,"2022-10-02T00:34:44+00:00",67.01294708252,8,"updated stim.csv","Version8.csv","Version 8","List 8","motel",NA,221,4.48,1689,0.151002659,222,"BOI","-","-","Please name all of the ways you could use this object. Keep in mind that one object can have many uses. Separate your responses with a comma.",NA,"y",65951,NA,NA,4347,56142,NA,NA,NA,"sleep, eat, relax, drink, party, sex, shelter, home, swim",1
"M10248901KMM","pvrv7mbylv","Affordance Norms_MSU_TEX",1,19,"2022-10-02T00:36:25+00:00",101.56192088127,8,"updated stim.csv","Version8.csv","Version 8","List 8","seating",NA,214,4.84,2302,0.90340916,215,"BOI","-","-","Please name all of the ways you could use this object. Keep in mind that one object can have many uses. Separate your responses with a comma.",NA,"y",100461,NA,NA,21396,98570,NA,NA,NA,"sit, stand on, spill on, organize, separate, divide",1
"M10248901KMM","pvrv7mbylv","Affordance Norms_MSU_TEX",1,20,"2022-10-02T00:37:24+00:00",58.601928949356,8,"updated stim.csv","Version8.csv","Version 8","List 8","torchlight",NA,219,4.64,2738,0.501435614,220,"BOI","-","-","Please name all of the ways you could use this object. Keep in mind that one object can have many uses. Separate your responses with a comma.",NA,"y",57684,NA,NA,7249,48386,NA,NA,NA,"see, light things on fire, ambiance, illuminate, keep mosquitoes away",1
"M10248901KMM","pvrv7mbylv","Affordance Norms_MSU_TEX",1,21,"2022-10-02T00:38:59+00:00",94.998391151428,8,"updated stim.csv","Version8.csv","Version 8","List 8","ashcan",NA,237,4.571428571,82,0.707229995,238,"BOI","-","-","Please name all of the ways you could use this object. Keep in mind that one object can have many uses. Separate your responses with a comma.",NA,"y",93972,NA,NA,4627,92723,NA,NA,NA,"sit on, put ashes in, clean, throw, hit, kick, store items, planter, light on fire, use as a toilet, pee in",1
"M10248901KMM","pvrv7mbylv","Affordance Norms_MSU_TEX",1,22,"2022-10-02T00:41:22+00:00",142.90746998787,8,"updated stim.csv","Version8.csv","Version 8","List 8","client",NA,231,4.545454545,558,0.033017559,232,"BOI","-","-","Please name all of the ways you could use this object. Keep in mind that one object can have many uses. Separate your responses with a comma.",NA,"y",141957,NA,NA,4632,139362,NA,NA,NA,"be their friend, help them, love them, hate them, create more relationships, have sex with them, hit them, advise them, spend time with them, kiss them, engage them",1
"M10248901KMM","pvrv7mbylv","Affordance Norms_MSU_TEX",1,23,"2022-10-02T00:43:35+00:00",132.90355706215,8,"updated stim.csv","Version8.csv","Version 8","List 8","phalanges",NA,226,4.35,1937,0.497580512,227,"BOI","-","-","Please name all of the ways you could use this object. Keep in mind that one object can have many uses. Separate your responses with a comma.",NA,"y",131901,NA,NA,7791,129626,NA,NA,NA,"hold things, touch, lick them, to caress, give someone the bird, cross them, put rings on them, stroke, pet an animal, flush the toilet, drive, eating, throwing a football, using a key to open the door, break, sprain",1
"M10248901KMM","pvrv7mbylv","Affordance Norms_MSU_TEX",1,24,"2022-10-02T00:45:27+00:00",112.65305399895,8,"updated stim.csv","Version8.csv","Version 8","List 8","creek",NA,239,4.52,691,0.967555981,240,"BOI","-","-","Please name all of the ways you could use this object. Keep in mind that one object can have many uses. Separate your responses with a comma.",NA,"y",111651,NA,NA,2905,107621,NA,NA,NA,"swim in, eat from, drinking water, skip rocks, sit in, cross, boat, kayak",1
"M10248901KMM","pvrv7mbylv","Affordance Norms_MSU_TEX",1,25,"2022-10-02T00:46:26+00:00",58.69736790657,8,"updated stim.csv","Version8.csv","Version 8","List 8","eggplant",NA,225,5.807692308,894,0.26688468,226,"BOI","-","-","Please name all of the ways you could use this object. Keep in mind that one object can have many uses. Separate your responses with a comma.",NA,"y",57750,NA,NA,3090,47051,NA,NA,NA,"eat, grow, feed, pick, cook, steam, grill, slice, dice, chop ",1
"M10248901KMM","pvrv7mbylv","Affordance Norms_MSU_TEX",1,26,"2022-10-02T00:48:06+00:00",100.46547794342,8,"updated stim.csv","Version8.csv","Version 8","List 8","hoe",NA,233,5.545454545,1294,0.814565241,234,"BOI","-","-","Please name all of the ways you could use this object. Keep in mind that one object can have many uses. Separate your responses with a comma.",NA,"y",99319,NA,NA,9288,97740,NA,NA,NA,"scrap, clean, loosen, chop, dig, create, sit, move, hold, touch, hit with, store",1
"M10248901KMM","pvrv7mbylv","Affordance Norms_MSU_TEX",1,27,"2022-10-02T00:49:20+00:00",73.247189998627,8,"updated stim.csv","Version8.csv","Version 8","List 8","pantry",NA,216,5.260869565,1860,0.771460967,217,"BOI","-","-","Please name all of the ways you could use this object. Keep in mind that one object can have many uses. Separate your responses with a comma.",NA,"y",72158,NA,NA,3968,70944,NA,NA,NA,"store food in, walk in, paint, put trash in it, hide in it ",1
"M10248901KMM","pvrv7mbylv","Affordance Norms_MSU_TEX",1,28,"2022-10-02T00:51:30+00:00",130.75853013992,8,"updated stim.csv","Version8.csv","Version 8","List 8","fruit",NA,230,6,1060,0.931705867,231,"BOI","-","-","Please name all of the ways you could use this object. Keep in mind that one object can have many uses. Separate your responses with a comma.",NA,"y",129536,NA,NA,2686,126543,NA,NA,NA,"eat, cut, bake, decorate, throw, smash, grow, water, peel, cut, in a salad, pack it, sell it",1
"M10248901KMM","pvrv7mbylv","Affordance Norms_MSU_TEX",1,29,"2022-10-02T00:53:30+00:00",119.56861495972,8,"updated stim.csv","Version8.csv","Version 8","List 8","matter",NA,235,4.4,1625,0.181387363,236,"BOI","-","-","Please name all of the ways you could use this object. Keep in mind that one object can have many uses. Separate your responses with a comma.",NA,"y",118536,NA,NA,9299,117081,NA,NA,NA,"eat, crush, bite, hit, kick, pull, push, sit on, lay on, feel, smell, see, squeeze, cut, open, kiss, hug, run on, walk on, lift, water, turn on, turn off, spray, open, close it, bake, grill, pinch, taste",1
"M10248901KMM","pvrv7mbylv","Affordance Norms_MSU_TEX",1,30,"2022-10-02T00:54:40+00:00",70.041792869568,8,"updated stim.csv","Version8.csv","Version 8","List 8","accordion",NA,227,5.826086957,5,0.076040939,228,"BOI","-","-","Please name all of the ways you could use this object. Keep in mind that one object can have many uses. Separate your responses with a comma.",NA,"y",69010,NA,NA,2238,68005,NA,NA,NA,"move, squeeze, close, open, listen, practice on, enjoy, break, step on, cut, draw on, put away, play",1
"M10248901KMM","pvrv7mbylv","Affordance Norms_MSU_TEX",1,31,"2022-10-02T00:55:52+00:00",71.675099134445,8,"updated stim.csv","Version8.csv","Version 8","List 8","beef",NA,217,5.714285714,189,0.160382134,218,"BOI","-","-","Please name all of the ways you could use this object. Keep in mind that one object can have many uses. Separate your responses with a comma.",NA,"y",70680,NA,NA,7041,67478,NA,NA,NA,"eat, cut, store, wrap, grill, seer, dice, chop, bake, fry, throw, store, touch",1
"M10248901KMM","pvrv7mbylv","Affordance Norms_MSU_TEX",1,32,"2022-10-02T01:01:09+00:00",317.02714800835,8,"updated stim.csv","Version8.csv","Version 8","List 8","shelter",NA,236,5.269230769,2335,0.866817871,237,"BOI","-","-","Please name all of the ways you could use this object. Keep in mind that one object can have many uses. Separate your responses with a comma.",NA,"y",316043,NA,NA,202021,294613,NA,NA,NA,"safety, live in, hide, keep warm, eat, play, love, renovate, clean, shower, build",1
"M10248901KMM","pvrv7mbylv","Affordance Norms_MSU_TEX",1,33,"2022-10-02T01:03:38+00:00",148.8323700428,8,"updated stim.csv","Version8.csv","Version 8","List 8","case",NA,232,4.272727273,445,0.110016369,233,"BOI","-","-","Please name all of the ways you could use this object. Keep in mind that one object can have many uses. Separate your responses with a comma.",NA,"y",148237,NA,NA,2317,146931,NA,NA,NA,"solve, store, keep safe, touch, carry, break, sit on, buy, sell",1
"M10248901KMM","pvrv7mbylv","Affordance Norms_MSU_TEX",1,34,"2022-10-02T01:04:56+00:00",78.864332914352,8,"updated stim.csv","Version8.csv","Version 8","List 8","avocado",NA,220,6.24137931,103,0.11835624,221,"BOI","-","-","Please name all of the ways you could use this object. Keep in mind that one object can have many uses. Separate your responses with a comma.",NA,"y",77829,NA,NA,3418,75880,NA,NA,NA,"eat, slice, dice, cut, smash, peel, salt, grow, sell, stack",1
"M10248901KMM","pvrv7mbylv","Affordance Norms_MSU_TEX",1,35,"2022-10-02T01:06:47+00:00",110.69279098511,8,"updated stim.csv","Version8.csv","Version 8","List 8","arrow",NA,213,4.92,76,0.32863745,214,"BOI","-","-","Please name all of the ways you could use this object. Keep in mind that one object can have many uses. Separate your responses with a comma.",NA,"y",109684,NA,NA,1763,96494,NA,NA,NA,"throw, shoot, cut, break, combine with others, point, slice, dice, stick, ",1
"M10248901KMM","pvrv7mbylv","Affordance Norms_MSU_TEX",1,36,"2022-10-02T01:08:55+00:00",128.07360506058,8,"updated stim.csv","Version8.csv","Version 8","List 8","groundsman",NA,222,4.333333333,1183,0.64899298,223,"BOI","-","-","Please name all of the ways you could use this object. Keep in mind that one object can have many uses. Separate your responses with a comma.",NA,"y",127068,NA,NA,10634,104896,NA,NA,NA,"take care of, water, fix things, walk, sit, plant, run, plan, grow",1
"M10248901KMM","pvrv7mbylv","Affordance Norms_MSU_TEX",1,37,"2022-10-02T01:11:16+00:00",140.61980390549,8,"updated stim.csv","Version8.csv","Version 8","List 8","stick",NA,228,6.16,2535,0.473992945,229,"BOI","-","-","Please name all of the ways you could use this object. Keep in mind that one object can have many uses. Separate your responses with a comma.",NA,"y",139613,NA,NA,2602,137837,NA,NA,NA,"poke, break, whittle, carve, cut, saw, shave, build houses, puncture, snap, carry, step on, store ",1
"M10248901KMM","pvrv7mbylv","Affordance Norms_MSU_TEX",1,38,"2022-10-02T01:13:44+00:00",148.49411201477,8,"updated stim.csv","Version8.csv","Version 8","List 8","drug",NA,211,5.375,852,0.400751294,212,"BOI","-","-","Please name all of the ways you could use this object. Keep in mind that one object can have many uses. Separate your responses with a comma.",NA,"y",147507,NA,NA,1673,146150,NA,NA,NA,"use, sell, promote, orally, injection-able, snort, educate, heal, take, eat, inhale ",1
"M10248901KMM","pvrv7mbylv","Affordance Norms_MSU_TEX",1,39,"2022-10-02T01:15:11+00:00",86.738153934479,8,"updated stim.csv","Version8.csv","Version 8","List 8","linoleum",NA,215,4.62962963,1519,0.262823842,216,"BOI","-","-","Please name all of the ways you could use this object. Keep in mind that one object can have many uses. Separate your responses with a comma.",NA,"y",85658,NA,NA,56558,84001,NA,NA,NA,"lay, glue, step on, break, sell, return, clean",1
"M10248901KMM","pvrv7mbylv","Affordance Norms_MSU_TEX",1,40,"2022-10-02T01:15:28+00:00",17.0770611763,8,"updated stim.csv","Version8.csv","Version 8","List 8","illustrator",NA,229,4.48,1351,0.733873145,230,"BOI","-","-","Please name all of the ways you could use this object. Keep in mind that one object can have many uses. Separate your responses with a comma.",NA,"y",16089,NA,NA,6055,13711,NA,NA,NA,"promote, create",1
"M20134082_JLM","ozgvcc3wzh","Affordance Norms_MSU_TEX",1,11,"2022-09-29T16:53:57+00:00",64.328588962555,4,"updated stim.csv","Version4.csv","Version 4","List 4","fleece",NA,117,4.5,1006,0.638440057,118,"BOI","-","-","Please name all of the ways you could use this object. Keep in mind that one object can have many uses. Separate your responses with a comma.",NA,"y",63997,NA,NA,3737,59544,NA,NA,NA,"Clothing, Fire starter, picking up liquid",1
"M20134082_JLM","ozgvcc3wzh","Affordance Norms_MSU_TEX",1,12,"2022-09-29T16:55:29+00:00",92.062385082245,4,"updated stim.csv","Version4.csv","Version 4","List 4","scalpel",NA,96,5.545454545,2263,0.063596043,97,"BOI","-","-","Please name all of the ways you could use this object. Keep in mind that one object can have many uses. Separate your responses with a comma.",NA,"y",91719,NA,NA,3363,88459,NA,NA,NA,"Weapon, Surgery tool, Art tool, redirect sun rays, write on hard surfaces, cooking tool",1
"M20134082_JLM","ozgvcc3wzh","Affordance Norms_MSU_TEX",1,13,"2022-09-29T16:56:28+00:00",58.823118925095,4,"updated stim.csv","Version4.csv","Version 4","List 4","windowsill",NA,97,5.391304348,2944,0.762834183,98,"BOI","-","-","Please name all of the ways you could use this object. Keep in mind that one object can have many uses. Separate your responses with a comma.",NA,"y",58585,NA,NA,5968,42549,NA,NA,NA,"Keep window stable, anchoring point for climbing equipment",1
"M20134082_JLM","ozgvcc3wzh","Affordance Norms_MSU_TEX",1,14,"2022-09-29T16:57:52+00:00",84.65541100502,4,"updated stim.csv","Version4.csv","Version 4","List 4","nephew",NA,118,5.16,1750,0.027468228,119,"BOI","-","-","Please name all of the ways you could use this object. Keep in mind that one object can have many uses. Separate your responses with a comma.",NA,"y",84303,NA,NA,8255,74011,NA,NA,NA,"household work, counseling, teaching, moving, babysitting, communicating to others",1
"M20134082_JLM","ozgvcc3wzh","Affordance Norms_MSU_TEX",1,15,"2022-09-29T16:59:37+00:00",104.7130920887,4,"updated stim.csv","Version4.csv","Version 4","List 4","yam",NA,94,5.259259259,2989,0.89961033,95,"BOI","-","-","Please name all of the ways you could use this object. Keep in mind that one object can have many uses. Separate your responses with a comma.",NA,"y",102388,NA,NA,2180,81944,NA,NA,NA,"Food, Blunt force throwing object",1
"M20134082_JLM","ozgvcc3wzh","Affordance Norms_MSU_TEX",1,16,"2022-09-29T17:01:22+00:00",105.4666891098,4,"updated stim.csv","Version4.csv","Version 4","List 4","cable",NA,115,4.913043478,390,0.962937957,116,"BOI","-","-","Please name all of the ways you could use this object. Keep in mind that one object can have many uses. Separate your responses with a comma.",NA,"y",104610,NA,NA,3811,97622,NA,NA,NA,"Weapon, signal converter, Rope for hoisting or arresting,",1
"M20134082_JLM","ozgvcc3wzh","Affordance Norms_MSU_TEX",1,17,"2022-09-29T17:02:06+00:00",44.115550994873,4,"updated stim.csv","Version4.csv","Version 4","List 4","valet",NA,92,4.625,2834,0.128717005,93,"BOI","-","-","Please name all of the ways you could use this object. Keep in mind that one object can have many uses. Separate your responses with a comma.",NA,"y",43893,NA,NA,6446,33786,NA,NA,NA,"Parking a car, getting general info of the area, ",1
"M20134082_JLM","ozgvcc3wzh","Affordance Norms_MSU_TEX",1,18,"2022-09-29T17:04:25+00:00",138.26753783226,4,"updated stim.csv","Version4.csv","Version 4","List 4","preschooler",NA,116,4.409090909,2059,0.435620803,117,"BOI","-","-","Please name all of the ways you could use this object. Keep in mind that one object can have many uses. Separate your responses with a comma.",NA,"y",3393,NA,NA,-1,-1,NA,NA,NA,"",1
"M20134082_JLM","ozgvcc3wzh","Affordance Norms_MSU_TEX",1,19,"2022-09-29T17:06:09+00:00",104.39579296112,4,"updated stim.csv","Version4.csv","Version 4","List 4","step",NA,113,5.2,2522,0.855940638,114,"BOI","-","-","Please name all of the ways you could use this object. Keep in mind that one object can have many uses. Separate your responses with a comma.",NA,"y",104051,NA,NA,16193,90879,NA,NA,NA,"Get mud off of a boot, Elevator, leverage for breaking a stick",1
"M20134082_JLM","ozgvcc3wzh","Affordance Norms_MSU_TEX",1,20,"2022-09-29T17:06:32+00:00",22.644654035568,4,"updated stim.csv","Version4.csv","Version 4","List 4","lounger",NA,98,4.692307692,1551,0.8649799,99,"BOI","-","-","Please name all of the ways you could use this object. Keep in mind that one object can have many uses. Separate your responses with a comma.",NA,"y",22404,NA,NA,13057,20628,NA,NA,NA,"I am unsure what a lounger is.",1
"M20134082_JLM","ozgvcc3wzh","Affordance Norms_MSU_TEX",1,21,"2022-09-29T17:07:06+00:00",33.772390127182,4,"updated stim.csv","Version4.csv","Version 4","List 4","kissing",NA,107,5.458333333,1423,0.486295703,108,"BOI","-","-","Please name all of the ways you could use this object. Keep in mind that one object can have many uses. Separate your responses with a comma.",NA,"y",33539,NA,NA,3080,11385,NA,NA,NA,"Showing affinity",1
"M20134082_JLM","ozgvcc3wzh","Affordance Norms_MSU_TEX",1,22,"2022-09-29T17:08:09+00:00",63.621340990067,4,"updated stim.csv","Version4.csv","Version 4","List 4","blazer",NA,106,5.652173913,233,0.291050238,107,"BOI","-","-","Please name all of the ways you could use this object. Keep in mind that one object can have many uses. Separate your responses with a comma.",NA,"y",63279,NA,NA,6192,56612,NA,NA,NA,"Clothing, Fire kindling, storage of small items, statement maker, rope, ",1
"M20134082_JLM","ozgvcc3wzh","Affordance Norms_MSU_TEX",1,23,"2022-09-29T17:09:15+00:00",66.171762943268,4,"updated stim.csv","Version4.csv","Version 4","List 4","sock",NA,108,5.833333333,2439,0.34499283,109,"BOI","-","-","Please name all of the ways you could use this object. Keep in mind that one object can have many uses. Separate your responses with a comma.",NA,"y",65727,NA,NA,2800,60443,NA,NA,NA,"Clothing, small item holder, fire kindling, mask, cleaning scrub, liquid cleaning",1
"M20134082_JLM","ozgvcc3wzh","Affordance Norms_MSU_TEX",1,24,"2022-09-29T17:10:38+00:00",82.78767991066,4,"updated stim.csv","Version4.csv","Version 4","List 4","chalice",NA,93,5.208333333,490,0.93770869,94,"BOI","-","-","Please name all of the ways you could use this object. Keep in mind that one object can have many uses. Separate your responses with a comma.",NA,"y",82448,NA,NA,4697,79292,NA,NA,NA,"Small item holder, Drink receptacle, fire holder, cookie cutter, weapon, step",1
"M20134082_JLM","ozgvcc3wzh","Affordance Norms_MSU_TEX",1,25,"2022-09-29T17:11:40+00:00",61.913480997086,4,"updated stim.csv","Version4.csv","Version 4","List 4","blouse",NA,102,6.47826087,244,0.637010138,103,"BOI","-","-","Please name all of the ways you could use this object. Keep in mind that one object can have many uses. Separate your responses with a comma.",NA,"y",61472,NA,NA,2829,59504,NA,NA,NA,"Rope, clothing, fire kindling, floatation device",1
"M20134082_JLM","ozgvcc3wzh","Affordance Norms_MSU_TEX",1,26,"2022-09-29T17:12:04+00:00",23.737371206284,4,"updated stim.csv","Version4.csv","Version 4","List 4","daybed",NA,95,5.28,761,0.138632098,96,"BOI","-","-","Please name all of the ways you could use this object. Keep in mind that one object can have many uses. Separate your responses with a comma.",NA,"y",23482,NA,NA,9467,22171,NA,NA,NA,"I don't know what a daybed is.",1
"M20134082_JLM","ozgvcc3wzh","Affordance Norms_MSU_TEX",1,27,"2022-09-29T17:12:07+00:00",2.8532688617706,4,"updated stim.csv","Version4.csv","Version 4","List 4","fireplace",NA,110,5.458333333,986,0.340651121,111,"BOI","-","-","Please name all of the ways you could use this object. Keep in mind that one object can have many uses. Separate your responses with a comma.",NA,"y",2621,NA,NA,-1,-1,NA,NA,NA,"",1
"M20134082_JLM","ozgvcc3wzh","Affordance Norms_MSU_TEX",1,28,"2022-09-29T17:12:51+00:00",43.970546007156,4,"updated stim.csv","Version4.csv","Version 4","List 4","pool",NA,104,6.041666667,2033,0.323434189,105,"BOI","-","-","Please name all of the ways you could use this object. Keep in mind that one object can have many uses. Separate your responses with a comma.",NA,"y",36400,NA,NA,6562,30562,NA,NA,NA,"Water holder, exercise, weapon, blinding potential",1
"M20134082_JLM","ozgvcc3wzh","Affordance Norms_MSU_TEX",1,29,"2022-09-29T17:13:08+00:00",17.086337089539,4,"updated stim.csv","Version4.csv","Version 4","List 4","bloke",NA,100,4.541666667,240,0.465962689,101,"BOI","-","-","Please name all of the ways you could use this object. Keep in mind that one object can have many uses. Separate your responses with a comma.",NA,"y",16843,NA,NA,3862,15403,NA,NA,NA,"I don't know what a bloke is.",1
"M20134082_JLM","ozgvcc3wzh","Affordance Norms_MSU_TEX",1,30,"2022-09-29T17:13:49+00:00",41.175021886826,4,"updated stim.csv","Version4.csv","Version 4","List 4","cube",NA,114,4.75,721,0.382136645,115,"BOI","-","-","Please name all of the ways you could use this object. Keep in mind that one object can have many uses. Separate your responses with a comma.",NA,"y",40945,NA,NA,3810,37307,NA,NA,NA,"Step, Fill in a hole, canvas for art, throwing object",1
"M20134082_JLM","ozgvcc3wzh","Affordance Norms_MSU_TEX",1,31,"2022-09-29T17:14:42+00:00",52.64782500267,4,"updated stim.csv","Version4.csv","Version 4","List 4","drumstick",NA,99,5.708333333,855,0.1283264,100,"BOI","-","-","Please name all of the ways you could use this object. Keep in mind that one object can have many uses. Separate your responses with a comma.",NA,"y",52376,NA,NA,9602,38909,NA,NA,NA,"Food, stabbing weapon potential, music maker",1
"M20134082_JLM","ozgvcc3wzh","Affordance Norms_MSU_TEX",1,32,"2022-09-29T17:16:01+00:00",79.121885061264,4,"updated stim.csv","Version4.csv","Version 4","List 4","stove",NA,109,5.75,2555,0.06185654,110,"BOI","-","-","Please name all of the ways you could use this object. Keep in mind that one object can have many uses. Separate your responses with a comma.",NA,"y",78785,NA,NA,4337,74303,NA,NA,NA,"storage, cooking, heat source, weapon",1
"M20134082_JLM","ozgvcc3wzh","Affordance Norms_MSU_TEX",1,33,"2022-09-29T17:16:42+00:00",41.269573926926,4,"updated stim.csv","Version4.csv","Version 4","List 4","calf",NA,119,5.08,402,0.030067237,120,"BOI","-","-","Please name all of the ways you could use this object. Keep in mind that one object can have many uses. Separate your responses with a comma.",NA,"y",41034,NA,NA,8689,36414,NA,NA,NA,"Working animal, food, transportation of goods",1
"M20134082_JLM","ozgvcc3wzh","Affordance Norms_MSU_TEX",1,34,"2022-09-29T17:17:25+00:00",42.681064128876,4,"updated stim.csv","Version4.csv","Version 4","List 4","housecoat",NA,91,5.653846154,1329,0.879948299,92,"BOI","-","-","Please name all of the ways you could use this object. Keep in mind that one object can have many uses. Separate your responses with a comma.",NA,"y",42449,NA,NA,4631,38300,NA,NA,NA,"Clothing, storage, fire kindling, statement maker, rope",1
"M20134082_JLM","ozgvcc3wzh","Affordance Norms_MSU_TEX",1,35,"2022-09-29T17:17:50+00:00",25.854274988174,4,"updated stim.csv","Version4.csv","Version 4","List 4","grits",NA,120,5.291666667,1177,0.650827048,121,"BOI","-","-","Please name all of the ways you could use this object. Keep in mind that one object can have many uses. Separate your responses with a comma.",NA,"y",25619,NA,NA,2569,23001,NA,NA,NA,"Food, slipping agent",1
"M20134082_JLM","ozgvcc3wzh","Affordance Norms_MSU_TEX",1,36,"2022-09-29T17:19:22+00:00",91.572682857513,4,"updated stim.csv","Version4.csv","Version 4","List 4","ashtray",NA,103,5.44,84,0.252057786,104,"BOI","-","-","Please name all of the ways you could use this object. Keep in mind that one object can have many uses. Separate your responses with a comma.",NA,"y",91221,NA,NA,4578,89568,NA,NA,NA,"Throwing object, holding fire/ash, holding food/small objects",1
"M20134082_JLM","ozgvcc3wzh","Affordance Norms_MSU_TEX",1,37,"2022-09-29T17:19:56+00:00",33.77018404007,4,"updated stim.csv","Version4.csv","Version 4","List 4","chessboard",NA,111,6.04,512,0.022831047,112,"BOI","-","-","Please name all of the ways you could use this object. Keep in mind that one object can have many uses. Separate your responses with a comma.",NA,"y",33542,NA,NA,3012,29162,NA,NA,NA,"Weapon, math device, food plate",1
"M20134082_JLM","ozgvcc3wzh","Affordance Norms_MSU_TEX",1,38,"2022-09-29T17:20:43+00:00",47.68371295929,4,"updated stim.csv","Version4.csv","Version 4","List 4","hippie",NA,105,4.56,1292,0.109871009,106,"BOI","-","-","Please name all of the ways you could use this object. Keep in mind that one object can have many uses. Separate your responses with a comma.",NA,"y",47429,NA,NA,10353,45520,NA,NA,NA,"Find good drugs, Use as a distraction, gain life experience",1
"M20134082_JLM","ozgvcc3wzh","Affordance Norms_MSU_TEX",1,39,"2022-09-29T17:21:25+00:00",41.88326215744,4,"updated stim.csv","Version4.csv","Version 4","List 4","Robot",NA,112,4.861185984,2182,0.615183644,113,"BOI","-","-","Please name all of the ways you could use this object. Keep in mind that one object can have many uses. Separate your responses with a comma.",NA,"y",41536,NA,NA,9215,39395,NA,NA,NA,"household chores, warfare, companionship",1
"M20134082_JLM","ozgvcc3wzh","Affordance Norms_MSU_TEX",1,40,"2022-09-29T17:22:09+00:00",43.513605833054,4,"updated stim.csv","Version4.csv","Version 4","List 4","pacifier",NA,101,6.090909091,1836,0.787837108,102,"BOI","-","-","Please name all of the ways you could use this object. Keep in mind that one object can have many uses. Separate your responses with a comma.",NA,"y",43273,NA,NA,4447,37876,NA,NA,NA,"calm a baby, anxiety soother, a poor fashion statement",1
"M20277249","0hoi2a3ai8","Affordance Norms_MSU_TEX",1,11,"2022-10-12T18:33:18+00:00",44.858287096024,21,"updated stim.csv","Version21.csv","Version 21","List 21","cadillac",NA,621,5.12,395,0.211302837,622,"BOI","-","-","Please name all of the ways you could use this object. Keep in mind that one object can have many uses. Separate your responses with a comma.",NA,"y",44164,NA,NA,4692,39111,NA,NA,NA,"Driven, cleaned, shown off, running something over",1
"M20277249","0hoi2a3ai8","Affordance Norms_MSU_TEX",1,12,"2022-10-12T18:33:50+00:00",31.953993082047,21,"updated stim.csv","Version21.csv","Version 21","List 21","can",NA,619,4.88,408,0.104956358,620,"BOI","-","-","Please name all of the ways you could use this object. Keep in mind that one object can have many uses. Separate your responses with a comma.",NA,"y",31257,NA,NA,4070,24825,NA,NA,NA,"Thrown away, punched, stepped on, opened, kicked",1
"M20277249","0hoi2a3ai8","Affordance Norms_MSU_TEX",1,13,"2022-10-12T18:34:17+00:00",27.027897834778,21,"updated stim.csv","Version21.csv","Version 21","List 21","snowshoe",NA,605,5.541666667,2436,0.966183453,606,"BOI","-","-","Please name all of the ways you could use this object. Keep in mind that one object can have many uses. Separate your responses with a comma.",NA,"y",26458,NA,NA,4842,19542,NA,NA,NA,"Worn, cleaned, tied",1
"M20277249","0hoi2a3ai8","Affordance Norms_MSU_TEX",1,14,"2022-10-12T18:34:34+00:00",16.280591964722,21,"updated stim.csv","Version21.csv","Version 21","List 21","steroids",NA,623,4.52,2532,0.748126488,624,"BOI","-","-","Please name all of the ways you could use this object. Keep in mind that one object can have many uses. Separate your responses with a comma.",NA,"y",15603,NA,NA,5401,9234,NA,NA,NA,"Increase strength",1
"M20277249","0hoi2a3ai8","Affordance Norms_MSU_TEX",1,15,"2022-10-12T18:35:00+00:00",26.022549152374,21,"updated stim.csv","Version21.csv","Version 21","List 21","frog",NA,604,5.125,1058,0.312710997,605,"BOI","-","-","Please name all of the ways you could use this object. Keep in mind that one object can have many uses. Separate your responses with a comma.",NA,"y",25377,NA,NA,7058,20241,NA,NA,NA,"Entertainment, as food",1
"M20277249","0hoi2a3ai8","Affordance Norms_MSU_TEX",1,16,"2022-10-12T18:35:28+00:00",28.762281894684,21,"updated stim.csv","Version21.csv","Version 21","List 21","sunflower",NA,615,5.333333333,2587,0.961970071,616,"BOI","-","-","Please name all of the ways you could use this object. Keep in mind that one object can have many uses. Separate your responses with a comma.",NA,"y",28127,NA,NA,10389,25922,NA,NA,NA,"Grow, cut, present",1
"M20277249","0hoi2a3ai8","Affordance Norms_MSU_TEX",1,17,"2022-10-12T18:35:45+00:00",17.100183963776,21,"updated stim.csv","Version21.csv","Version 21","List 21","schoolhouse",NA,612,5.291666667,2272,0.759838801,613,"BOI","-","-","Please name all of the ways you could use this object. Keep in mind that one object can have many uses. Separate your responses with a comma.",NA,"y",16453,NA,NA,4168,5918,NA,NA,NA,"Learn",1
"M20277249","0hoi2a3ai8","Affordance Norms_MSU_TEX",1,18,"2022-10-12T18:35:54+00:00",8.186784029007,21,"updated stim.csv","Version21.csv","Version 21","List 21","organ",NA,611,5.185185185,1820,0.477300305,612,"BOI","-","-","Please name all of the ways you could use this object. Keep in mind that one object can have many uses. Separate your responses with a comma.",NA,"y",7476,NA,NA,3957,5856,NA,NA,NA,"Live",1
"M20277249","0hoi2a3ai8","Affordance Norms_MSU_TEX",1,19,"2022-10-12T18:36:03+00:00",9.8412621021271,21,"updated stim.csv","Version21.csv","Version 21","List 21","bugle",NA,622,4.541666667,348,0.410731421,623,"BOI","-","-","Please name all of the ways you could use this object. Keep in mind that one object can have many uses. Separate your responses with a comma.",NA,"y",9162,NA,NA,2544,8376,NA,NA,NA,"I don’t know what this is ",1
"M20277249","0hoi2a3ai8","Affordance Norms_MSU_TEX",1,20,"2022-10-12T18:36:23+00:00",19.970099925995,21,"updated stim.csv","Version21.csv","Version 21","List 21","piano",NA,630,6.166666667,1947,0.924463791,631,"BOI","-","-","Please name all of the ways you could use this object. Keep in mind that one object can have many uses. Separate your responses with a comma.",NA,"y",19341,NA,NA,1956,18523,NA,NA,NA,"Play, push, exercise, decorate ",1
"M20277249","0hoi2a3ai8","Affordance Norms_MSU_TEX",1,21,"2022-10-12T18:36:39+00:00",15.499686956406,21,"updated stim.csv","Version21.csv","Version 21","List 21","toiletry",NA,602,5.222222222,2720,0.520201344,603,"BOI","-","-","Please name all of the ways you could use this object. Keep in mind that one object can have many uses. Separate your responses with a comma.",NA,"y",14977,NA,NA,2028,9278,NA,NA,NA,"Wipe, keep clean",1
"M20277249","0hoi2a3ai8","Affordance Norms_MSU_TEX",1,22,"2022-10-12T18:36:52+00:00",13.062954187393,21,"updated stim.csv","Version21.csv","Version 21","List 21","lizard",NA,606,4.925925926,1529,0.691592618,607,"BOI","-","-","Please name all of the ways you could use this object. Keep in mind that one object can have many uses. Separate your responses with a comma.",NA,"y",12525,NA,NA,4742,8476,NA,NA,NA,"Pet, feed",1
"M20277249","0hoi2a3ai8","Affordance Norms_MSU_TEX",1,23,"2022-10-12T18:37:07+00:00",15.157895803452,21,"updated stim.csv","Version21.csv","Version 21","List 21","seaweed",NA,610,4.458333333,2304,0.605127755,611,"BOI","-","-","Please name all of the ways you could use this object. Keep in mind that one object can have many uses. Separate your responses with a comma.",NA,"y",14500,NA,NA,2199,11916,NA,NA,NA,"Eat, grab, feel",1
"M20277249","0hoi2a3ai8","Affordance Norms_MSU_TEX",1,24,"2022-10-12T18:37:21+00:00",14.028820991516,21,"updated stim.csv","Version21.csv","Version 21","List 21","condominium",NA,620,4.678571429,623,0.282304847,621,"BOI","-","-","Please name all of the ways you could use this object. Keep in mind that one object can have many uses. Separate your responses with a comma.",NA,"y",13318,NA,NA,4469,12533,NA,NA,NA,"Live in, party in, sleep in, ",1
"M20277249","0hoi2a3ai8","Affordance Norms_MSU_TEX",1,25,"2022-10-12T18:37:37+00:00",15.564593076706,21,"updated stim.csv","Version21.csv","Version 21","List 21","splint",NA,618,4.958333333,2477,0.375782064,619,"BOI","-","-","Please name all of the ways you could use this object. Keep in mind that one object can have many uses. Separate your responses with a comma.",NA,"y",14957,NA,NA,4921,14254,NA,NA,NA,"Fix fractured bones",1
"M20277249","0hoi2a3ai8","Affordance Norms_MSU_TEX",1,26,"2022-10-12T18:37:56+00:00",19.355147123337,21,"updated stim.csv","Version21.csv","Version 21","List 21","checkerboard",NA,609,5.391304348,500,0.472581554,610,"BOI","-","-","Please name all of the ways you could use this object. Keep in mind that one object can have many uses. Separate your responses with a comma.",NA,"y",18724,NA,NA,2235,17184,NA,NA,NA,"Play, entertained, learn ",1
"M20277249","0hoi2a3ai8","Affordance Norms_MSU_TEX",1,27,"2022-10-12T18:38:06+00:00",9.6199059486389,21,"updated stim.csv","Version21.csv","Version 21","List 21","bell",NA,614,5.76,196,0.555805327,615,"BOI","-","-","Please name all of the ways you could use this object. Keep in mind that one object can have many uses. Separate your responses with a comma.",NA,"y",8954,NA,NA,1971,6888,NA,NA,NA,"Ring, listen to ",1
"M20277249","0hoi2a3ai8","Affordance Norms_MSU_TEX",1,28,"2022-10-12T18:38:30+00:00",24.276429891586,21,"updated stim.csv","Version21.csv","Version 21","List 21","washroom",NA,625,5.037037037,2901,0.496721159,626,"BOI","-","-","Please name all of the ways you could use this object. Keep in mind that one object can have many uses. Separate your responses with a comma.",NA,"y",23600,NA,NA,3198,22698,NA,NA,NA,"Clean up, cry, shower, hide",1
"M20277249","0hoi2a3ai8","Affordance Norms_MSU_TEX",1,29,"2022-10-12T18:38:59+00:00",28.764064073563,21,"updated stim.csv","Version21.csv","Version 21","List 21","placenta",NA,629,4.28,1984,0.391387386,630,"BOI","-","-","Please name all of the ways you could use this object. Keep in mind that one object can have many uses. Separate your responses with a comma.",NA,"y",28166,NA,NA,5114,27113,NA,NA,NA,"Health, eat, save ",1
"M20277249","0hoi2a3ai8","Affordance Norms_MSU_TEX",1,30,"2022-10-12T18:39:16+00:00",17.42574596405,21,"updated stim.csv","Version21.csv","Version 21","List 21","gangster",NA,601,4.36,1072,0.054989468,602,"BOI","-","-","Please name all of the ways you could use this object. Keep in mind that one object can have many uses. Separate your responses with a comma.",NA,"y",16752,NA,NA,10553,12653,NA,NA,NA,"Arrest",1
"M20277249","0hoi2a3ai8","Affordance Norms_MSU_TEX",1,31,"2022-10-12T18:39:36+00:00",19.445094108582,21,"updated stim.csv","Version21.csv","Version 21","List 21","gumdrop",NA,628,5.875,1197,0.232209206,629,"BOI","-","-","Please name all of the ways you could use this object. Keep in mind that one object can have many uses. Separate your responses with a comma.",NA,"y",18800,NA,NA,3818,14516,NA,NA,NA,"Chew, spit out, step on, swallow, share ",1
"M20277249","0hoi2a3ai8","Affordance Norms_MSU_TEX",1,32,"2022-10-12T18:39:49+00:00",13.113706827164,21,"updated stim.csv","Version21.csv","Version 21","List 21","ammo",NA,603,5.32,34,0.622457557,604,"BOI","-","-","Please name all of the ways you could use this object. Keep in mind that one object can have many uses. Separate your responses with a comma.",NA,"y",12460,NA,NA,3234,7650,NA,NA,NA,"Reload, shoot",1
"M20277249","0hoi2a3ai8","Affordance Norms_MSU_TEX",1,33,"2022-10-12T18:39:56+00:00",7.1627490520477,21,"updated stim.csv","Version21.csv","Version 21","List 21","muffler",NA,616,4.75,1712,0.151193811,617,"BOI","-","-","Please name all of the ways you could use this object. Keep in mind that one object can have many uses. Separate your responses with a comma.",NA,"y",6468,NA,NA,3166,5648,NA,NA,NA,"Car part",1
"M20277249","0hoi2a3ai8","Affordance Norms_MSU_TEX",1,34,"2022-10-12T18:40:12+00:00",16.387381076813,21,"updated stim.csv","Version21.csv","Version 21","List 21","ring",NA,624,6.130434783,2170,0.00520631,625,"BOI","-","-","Please name all of the ways you could use this object. Keep in mind that one object can have many uses. Separate your responses with a comma.",NA,"y",15842,NA,NA,6376,14726,NA,NA,NA,"Wear, engage, admire ",1
"M20277249","0hoi2a3ai8","Affordance Norms_MSU_TEX",1,35,"2022-10-12T18:40:24+00:00",11.575793981552,21,"updated stim.csv","Version21.csv","Version 21","List 21","quill",NA,613,4.565217391,2115,0.894304697,614,"BOI","-","-","Please name all of the ways you could use this object. Keep in mind that one object can have many uses. Separate your responses with a comma.",NA,"y",10850,NA,NA,4634,9934,NA,NA,NA,"I don’t know what this is ",1
"M20277249","0hoi2a3ai8","Affordance Norms_MSU_TEX",1,36,"2022-10-12T18:40:42+00:00",18.118584871292,21,"updated stim.csv","Version21.csv","Version 21","List 21","spinach",NA,626,4.96,2474,0.316902867,627,"BOI","-","-","Please name all of the ways you could use this object. Keep in mind that one object can have many uses. Separate your responses with a comma.",NA,"y",17498,NA,NA,3697,15914,NA,NA,NA,"Eat, throw away, add to salad ",1
"M20277249","0hoi2a3ai8","Affordance Norms_MSU_TEX",1,37,"2022-10-12T18:40:53+00:00",10.54271697998,21,"updated stim.csv","Version21.csv","Version 21","List 21","cutlery",NA,607,5.913043478,738,0.205029454,608,"BOI","-","-","Please name all of the ways you could use this object. Keep in mind that one object can have many uses. Separate your responses with a comma.",NA,"y",9821,NA,NA,2104,7337,NA,NA,NA,"Cut, prepare food",1
"M20277249","0hoi2a3ai8","Affordance Norms_MSU_TEX",1,38,"2022-10-12T18:41:10+00:00",17.516646146774,21,"updated stim.csv","Version21.csv","Version 21","List 21","iguana",NA,617,5.166666667,1350,0.213044893,618,"BOI","-","-","Please name all of the ways you could use this object. Keep in mind that one object can have many uses. Separate your responses with a comma.",NA,"y",16821,NA,NA,2314,15538,NA,NA,NA,"Pet, touch, feed, record",1
"M20277249","0hoi2a3ai8","Affordance Norms_MSU_TEX",1,39,"2022-10-12T18:44:11+00:00",180.83885192871,21,"updated stim.csv","Version21.csv","Version 21","List 21","whore",NA,608,4.782608696,2933,0.200273959,609,"BOI","-","-","Please name all of the ways you could use this object. Keep in mind that one object can have many uses. Separate your responses with a comma.",NA,"y",180138,NA,NA,146637,177839,NA,NA,NA,"Sell, sleep around, give diseases ",1
"M20277249","0hoi2a3ai8","Affordance Norms_MSU_TEX",1,40,"2022-10-12T18:44:33+00:00",22.532698154449,21,"updated stim.csv","Version21.csv","Version 21","List 21","guesthouse",NA,627,4.913043478,1189,0.51706315,628,"BOI","-","-","Please name all of the ways you could use this object. Keep in mind that one object can have many uses. Separate your responses with a comma.",NA,"y",21992,NA,NA,5443,20876,NA,NA,NA,"Party, have fun, rent out",1
"m20278265_vas","w3tft8i3k1","Affordance Norms_MSU_TEX",1,11,"2022-10-03T20:20:03+00:00",41.240154027939,13,"updated stim.csv","Version13.csv","Version 13","List 13","panhandler",NA,374,4.92,1857,0.743916508,375,"BOI","-","-","Please name all of the ways you could use this object. Keep in mind that one object can have many uses. Separate your responses with a comma.",NA,"y",41058,NA,NA,32828,36204,NA,NA,NA,"beg, get money",1
"m20278265_vas","w3tft8i3k1","Affordance Norms_MSU_TEX",1,12,"2022-10-03T20:21:04+00:00",60.12272310257,13,"updated stim.csv","Version13.csv","Version 13","List 13","glycerine",NA,382,4.434782609,1119,0.669574034,383,"BOI","-","-","Please name all of the ways you could use this object. Keep in mind that one object can have many uses. Separate your responses with a comma.",NA,"y",59921,NA,NA,42325,59190,NA,NA,NA,"moisturize, in medicine, skin care",1
"m20278265_vas","w3tft8i3k1","Affordance Norms_MSU_TEX",1,13,"2022-10-03T20:21:31+00:00",27.976649999619,13,"updated stim.csv","Version13.csv","Version 13","List 13","vein",NA,367,4.44,2845,0.79635902,368,"BOI","-","-","Please name all of the ways you could use this object. Keep in mind that one object can have many uses. Separate your responses with a comma.",NA,"y",27736,NA,NA,7746,27157,NA,NA,NA,"draw blood, insert IV, blood flow",1
"m20278265_vas","w3tft8i3k1","Affordance Norms_MSU_TEX",1,14,"2022-10-03T20:22:03+00:00",31.863852977753,13,"updated stim.csv","Version13.csv","Version 13","List 13","amulet",NA,368,5.291666667,38,0.945444984,369,"BOI","-","-","Please name all of the ways you could use this object. Keep in mind that one object can have many uses. Separate your responses with a comma.",NA,"y",31703,NA,NA,19555,29552,NA,NA,NA,"wear, pass down through generations, pawn",1
"m20278265_vas","w3tft8i3k1","Affordance Norms_MSU_TEX",1,15,"2022-10-03T20:22:12+00:00",8.9122340679169,13,"updated stim.csv","Version13.csv","Version 13","List 13","anus",NA,370,5.16,53,0.855006191,371,"BOI","-","-","Please name all of the ways you could use this object. Keep in mind that one object can have many uses. Separate your responses with a comma.",NA,"y",8631,NA,NA,-1,-1,NA,NA,NA,"",1
"m20278265_vas","w3tft8i3k1","Affordance Norms_MSU_TEX",1,16,"2022-10-03T20:22:58+00:00",45.294330835342,13,"updated stim.csv","Version13.csv","Version 13","List 13","pharmacist",NA,386,5.041666667,1938,0.613609609,387,"BOI","-","-","Please name all of the ways you could use this object. Keep in mind that one object can have many uses. Separate your responses with a comma.",NA,"y",45144,NA,NA,9782,44696,NA,NA,NA,"fill prescriptions, give shots, bill insurance",1
"m20278265_vas","w3tft8i3k1","Affordance Norms_MSU_TEX",1,17,"2022-10-03T20:23:05+00:00",7.725291967392,13,"updated stim.csv","Version13.csv","Version 13","List 13","spareribs",NA,387,4.869565217,2462,0.762225704,388,"BOI","-","-","Please name all of the ways you could use this object. Keep in mind that one object can have many uses. Separate your responses with a comma.",NA,"y",7580,NA,NA,2128,6525,NA,NA,NA,"eat, cook, season",1
"m20278265_vas","w3tft8i3k1","Affordance Norms_MSU_TEX",1,18,"2022-10-03T20:23:22+00:00",17.054130077362,13,"updated stim.csv","Version13.csv","Version 13","List 13","liqueur",NA,372,5.666666667,1523,0.514690223,373,"BOI","-","-","Please name all of the ways you could use this object. Keep in mind that one object can have many uses. Separate your responses with a comma.",NA,"y",16910,NA,NA,5283,16208,NA,NA,NA,"drink, cook, use as flavoring",1
"m20278265_vas","w3tft8i3k1","Affordance Norms_MSU_TEX",1,19,"2022-10-03T20:23:43+00:00",20.442896127701,13,"updated stim.csv","Version13.csv","Version 13","List 13","squirrel",NA,389,4.346153846,2494,0.26351966,390,"BOI","-","-","Please name all of the ways you could use this object. Keep in mind that one object can have many uses. Separate your responses with a comma.",NA,"y",20290,NA,NA,10094,20080,NA,NA,NA,"hunt, eat",1
"m20278265_vas","w3tft8i3k1","Affordance Norms_MSU_TEX",1,20,"2022-10-03T20:24:36+00:00",53.261070013046,13,"updated stim.csv","Version13.csv","Version 13","List 13","rake",NA,385,6.136363636,2135,0.130502969,386,"BOI","-","-","Please name all of the ways you could use this object. Keep in mind that one object can have many uses. Separate your responses with a comma.",NA,"y",53108,NA,NA,2530,51798,NA,NA,NA,"pile up leaves, level grounds, break up soil",1
"m20278265_vas","w3tft8i3k1","Affordance Norms_MSU_TEX",1,21,"2022-10-03T20:24:51+00:00",14.802433013916,13,"updated stim.csv","Version13.csv","Version 13","List 13","kitty",NA,365,6.043478261,1429,0.453664291,366,"BOI","-","-","Please name all of the ways you could use this object. Keep in mind that one object can have many uses. Separate your responses with a comma.",NA,"y",14651,NA,NA,5030,13736,NA,NA,NA,"pet, hunt mice",1
"m20278265_vas","w3tft8i3k1","Affordance Norms_MSU_TEX",1,22,"2022-10-03T20:25:17+00:00",25.817762851715,13,"updated stim.csv","Version13.csv","Version 13","List 13","cabinet",NA,390,5.64,389,0.578190345,391,"BOI","-","-","Please name all of the ways you could use this object. Keep in mind that one object can have many uses. Separate your responses with a comma.",NA,"y",25669,NA,NA,1435,21335,NA,NA,NA,"store dishes, put medicine in",1
"m20278265_vas","w3tft8i3k1","Affordance Norms_MSU_TEX",1,23,"2022-10-03T20:25:38+00:00",21.399903059006,13,"updated stim.csv","Version13.csv","Version 13","List 13","trinket",NA,371,4.791666667,2777,0.513796891,372,"BOI","-","-","Please name all of the ways you could use this object. Keep in mind that one object can have many uses. Separate your responses with a comma.",NA,"y",21251,NA,NA,6415,15386,NA,NA,NA,"use as decoration, collect,",1
"m20278265_vas","w3tft8i3k1","Affordance Norms_MSU_TEX",1,24,"2022-10-03T20:26:06+00:00",28.128335952759,13,"updated stim.csv","Version13.csv","Version 13","List 13","oxtail",NA,363,4.444444444,1833,0.689826492,364,"BOI","-","-","Please name all of the ways you could use this object. Keep in mind that one object can have many uses. Separate your responses with a comma.",NA,"y",27977,NA,NA,17868,25522,NA,NA,NA,"make stock, cook",1
"m20278265_vas","w3tft8i3k1","Affordance Norms_MSU_TEX",1,25,"2022-10-03T20:26:42+00:00",36.217842102051,13,"updated stim.csv","Version13.csv","Version 13","List 13","menu",NA,381,5.869565217,1646,0.96657729,382,"BOI","-","-","Please name all of the ways you could use this object. Keep in mind that one object can have many uses. Separate your responses with a comma.",NA,"y",36068,NA,NA,8396,35836,NA,NA,NA,"look at meal option, determine prices, display available choices",1
"m20278265_vas","w3tft8i3k1","Affordance Norms_MSU_TEX",1,26,"2022-10-03T20:27:30+00:00",47.439621925354,13,"updated stim.csv","Version13.csv","Version 13","List 13","testes",NA,376,5.083333333,2670,0.365065355,377,"BOI","-","-","Please name all of the ways you could use this object. Keep in mind that one object can have many uses. Separate your responses with a comma.",NA,"y",47286,NA,NA,17132,46561,NA,NA,NA,"produce testosterone, produce sperm",1
"m20278265_vas","w3tft8i3k1","Affordance Norms_MSU_TEX",1,27,"2022-10-03T20:27:55+00:00",24.937201976776,13,"updated stim.csv","Version13.csv","Version 13","List 13","jogger",NA,377,5,1388,0.230792378,378,"BOI","-","-","Please name all of the ways you could use this object. Keep in mind that one object can have many uses. Separate your responses with a comma.",NA,"y",24785,NA,NA,4695,23829,NA,NA,NA," pace yourself, ",1
"m20278265_vas","w3tft8i3k1","Affordance Norms_MSU_TEX",1,28,"2022-10-03T20:28:10+00:00",14.916886091232,13,"updated stim.csv","Version13.csv","Version 13","List 13","vine",NA,362,5,2861,0.61166655,363,"BOI","-","-","Please name all of the ways you could use this object. Keep in mind that one object can have many uses. Separate your responses with a comma.",NA,"y",14762,NA,NA,2947,9471,NA,NA,NA,"decoration, grow grapes, ",1
"m20278265_vas","w3tft8i3k1","Affordance Norms_MSU_TEX",1,29,"2022-10-03T20:28:27+00:00",17.12624502182,13,"updated stim.csv","Version13.csv","Version 13","List 13","blackberry",NA,375,5.416666667,227,0.420605991,376,"BOI","-","-","Please name all of the ways you could use this object. Keep in mind that one object can have many uses. Separate your responses with a comma.",NA,"y",16971,NA,NA,2135,16347,NA,NA,NA,"make jam, make pies, make reduction, eat, pick",1
"m20278265_vas","w3tft8i3k1","Affordance Norms_MSU_TEX",1,30,"2022-10-03T20:28:47+00:00",19.926092863083,13,"updated stim.csv","Version13.csv","Version 13","List 13","soil",NA,380,5.703703704,2445,0.661757319,381,"BOI","-","-","Please name all of the ways you could use this object. Keep in mind that one object can have many uses. Separate your responses with a comma.",NA,"y",19771,NA,NA,6039,9316,NA,NA,NA,"plant flowers, ",1
"m20278265_vas","w3tft8i3k1","Affordance Norms_MSU_TEX",1,31,"2022-10-03T20:29:02+00:00",14.797508001328,13,"updated stim.csv","Version13.csv","Version 13","List 13","cotton",NA,379,5.28,660,0.699170843,380,"BOI","-","-","Please name all of the ways you could use this object. Keep in mind that one object can have many uses. Separate your responses with a comma.",NA,"y",14641,NA,NA,2096,14174,NA,NA,NA,"make clothes, cotton balls, decoration",1
"m20278265_vas","w3tft8i3k1","Affordance Norms_MSU_TEX",1,32,"2022-10-03T20:29:27+00:00",25.59419298172,13,"updated stim.csv","Version13.csv","Version 13","List 13","vest",NA,378,6,2853,0.512853941,379,"BOI","-","-","Please name all of the ways you could use this object. Keep in mind that one object can have many uses. Separate your responses with a comma.",NA,"y",25437,NA,NA,1770,24884,NA,NA,NA,"wear, use as safety gear, protection ",1
"m20278265_vas","w3tft8i3k1","Affordance Norms_MSU_TEX",1,33,"2022-10-03T20:29:40+00:00",12.485720157623,13,"updated stim.csv","Version13.csv","Version 13","List 13","wagon",NA,364,5.375,2879,0.532098663,365,"BOI","-","-","Please name all of the ways you could use this object. Keep in mind that one object can have many uses. Separate your responses with a comma.",NA,"y",12328,NA,NA,1760,11597,NA,NA,NA,"pull things, farming",1
"m20278265_vas","w3tft8i3k1","Affordance Norms_MSU_TEX",1,34,"2022-10-03T20:29:57+00:00",16.943547964096,13,"updated stim.csv","Version13.csv","Version 13","List 13","addict",NA,366,4.391304348,14,0.936846179,367,"BOI","-","-","Please name all of the ways you could use this object. Keep in mind that one object can have many uses. Separate your responses with a comma.",NA,"y",16784,NA,NA,5674,16357,NA,NA,NA,"use as an example, help in recovery",1
"m20278265_vas","w3tft8i3k1","Affordance Norms_MSU_TEX",1,35,"2022-10-03T20:30:13+00:00",16.749209880829,13,"updated stim.csv","Version13.csv","Version 13","List 13","playroom",NA,361,4.52,2002,0.997042581,362,"BOI","-","-","Please name all of the ways you could use this object. Keep in mind that one object can have many uses. Separate your responses with a comma.",NA,"y",16596,NA,NA,1770,10983,NA,NA,NA,"store toys, ",1
"m20278265_vas","w3tft8i3k1","Affordance Norms_MSU_TEX",1,36,"2022-10-03T20:30:31+00:00",17.407149076462,13,"updated stim.csv","Version13.csv","Version 13","List 13","eraser",NA,384,5.791666667,918,0.580572305,385,"BOI","-","-","Please name all of the ways you could use this object. Keep in mind that one object can have many uses. Separate your responses with a comma.",NA,"y",17246,NA,NA,3804,15740,NA,NA,NA,"erase things, chew on",1
"m20278265_vas","w3tft8i3k1","Affordance Norms_MSU_TEX",1,37,"2022-10-03T20:30:33+00:00",1.893285036087,13,"updated stim.csv","Version13.csv","Version 13","List 13","kelp",NA,373,4.826086957,1405,0.939151548,374,"BOI","-","-","Please name all of the ways you could use this object. Keep in mind that one object can have many uses. Separate your responses with a comma.",NA,"y",1747,NA,NA,-1,-1,NA,NA,NA,"",1
"m20278265_vas","w3tft8i3k1","Affordance Norms_MSU_TEX",1,38,"2022-10-03T20:30:55+00:00",22.115144968033,13,"updated stim.csv","Version13.csv","Version 13","List 13","copybook",NA,388,5,639,0.154773771,389,"BOI","-","-","Please name all of the ways you could use this object. Keep in mind that one object can have many uses. Separate your responses with a comma.",NA,"y",21967,NA,NA,16183,21169,NA,NA,NA,"help with handwriting",1
"m20278265_vas","w3tft8i3k1","Affordance Norms_MSU_TEX",1,39,"2022-10-03T20:31:08+00:00",13.711158037186,13,"updated stim.csv","Version13.csv","Version 13","List 13","crawfish",NA,383,4.666666667,685,0.801608849,384,"BOI","-","-","Please name all of the ways you could use this object. Keep in mind that one object can have many uses. Separate your responses with a comma.",NA,"y",13560,NA,NA,2979,12004,NA,NA,NA,"crawfish boil, eat, catch",1
"m20278265_vas","w3tft8i3k1","Affordance Norms_MSU_TEX",1,40,"2022-10-03T20:31:17+00:00",8.229218006134,13,"updated stim.csv","Version13.csv","Version 13","List 13","topsoil",NA,369,4.92,2736,0.060076604,370,"BOI","-","-","Please name all of the ways you could use this object. Keep in mind that one object can have many uses. Separate your responses with a comma.",NA,"y",8080,NA,NA,3284,5921,NA,NA,NA,"grow grass, ",1
"M20278334_eah","heco7wwqup","Affordance Norms_MSU_TEX",1,11,"2022-10-13T03:53:19+00:00",73.981925010681,22,"updated stim.csv","Version22.csv","Version 22","List 22","dress",NA,658,6.16,843,0.914545624,659,"BOI","-","-","Please name all of the ways you could use this object. Keep in mind that one object can have many uses. Separate your responses with a comma.",NA,"y",73430,NA,NA,2837,64579,NA,NA,NA,"wearing, warming, covering, flowing, burning, cutting, layering",1
"M20278334_eah","heco7wwqup","Affordance Norms_MSU_TEX",1,12,"2022-10-13T03:54:23+00:00",63.813683986664,22,"updated stim.csv","Version22.csv","Version 22","List 22","clipper",NA,650,4.923076923,562,0.212052319,651,"BOI","-","-","Please name all of the ways you could use this object. Keep in mind that one object can have many uses. Separate your responses with a comma.",NA,"y",63437,NA,NA,2205,58034,NA,NA,NA,"clipping, cutting, hitting, throwing, breaking, trimming",1
"M20278334_eah","heco7wwqup","Affordance Norms_MSU_TEX",1,13,"2022-10-13T03:56:23+00:00",120.20990204811,22,"updated stim.csv","Version22.csv","Version 22","List 22","pumpernickel",NA,646,5.130434783,2097,0.008330352,647,"BOI","-","-","Please name all of the ways you could use this object. Keep in mind that one object can have many uses. Separate your responses with a comma.",NA,"y",50760,NA,NA,2825,49908,NA,NA,NA,"cooking, slicing, eating, baking, kneeding, sandwiching",1
"M20278334_eah","heco7wwqup","Affordance Norms_MSU_TEX",1,14,"2022-10-13T03:57:40+00:00",77.382036924362,22,"updated stim.csv","Version22.csv","Version 22","List 22","nightstick",NA,638,5.434782609,1774,0.995322937,639,"BOI","-","-","Please name all of the ways you could use this object. Keep in mind that one object can have many uses. Separate your responses with a comma.",NA,"y",76997,NA,NA,15811,74966,NA,NA,NA,"hitting, breaking, beating, defending, throwing, swinging, defensive, weapon",1
"M20278334_eah","heco7wwqup","Affordance Norms_MSU_TEX",1,15,"2022-10-13T03:58:36+00:00",55.154569864273,22,"updated stim.csv","Version22.csv","Version 22","List 22","boat",NA,644,5.130434783,255,0.951563463,645,"BOI","-","-","Please name all of the ways you could use this object. Keep in mind that one object can have many uses. Separate your responses with a comma.",NA,"y",54732,NA,NA,3745,49898,NA,NA,NA,"carrying, traveling, sinking, floating, boarding, sailing, steering",1
"M20278334_eah","heco7wwqup","Affordance Norms_MSU_TEX",1,16,"2022-10-13T03:59:58+00:00",82.091128110886,22,"updated stim.csv","Version22.csv","Version 22","List 22","shed",NA,653,4.333333333,2327,0.019949413,654,"BOI","-","-","Please name all of the ways you could use this object. Keep in mind that one object can have many uses. Separate your responses with a comma.",NA,"y",81683,NA,NA,2052,77912,NA,NA,NA,"shelter, storage, hiding, escape",1
"M20278334_eah","heco7wwqup","Affordance Norms_MSU_TEX",1,17,"2022-10-13T04:02:05+00:00",127.29972410202,22,"updated stim.csv","Version22.csv","Version 22","List 22","rabbit",NA,642,5,2117,0.225154992,643,"BOI","-","-","Please name all of the ways you could use this object. Keep in mind that one object can have many uses. Separate your responses with a comma.",NA,"y",126892,NA,NA,27465,118438,NA,NA,NA,"petting, chasing, eat, breed, sell, show",1
"M20278334_eah","heco7wwqup","Affordance Norms_MSU_TEX",1,18,"2022-10-13T04:03:36+00:00",90.680806875229,22,"updated stim.csv","Version22.csv","Version 22","List 22","peephole",NA,643,4.875,1907,0.044058693,644,"BOI","-","-","Please name all of the ways you could use this object. Keep in mind that one object can have many uses. Separate your responses with a comma.",NA,"y",90225,NA,NA,2066,78022,NA,NA,NA,"looking, stalking, eyeing, avoiding, see outside",1
"M20278334_eah","heco7wwqup","Affordance Norms_MSU_TEX",1,19,"2022-10-13T04:04:38+00:00",62.498886108398,22,"updated stim.csv","Version22.csv","Version 22","List 22","stool",NA,659,6.076923077,2547,0.995036771,660,"BOI","-","-","Please name all of the ways you could use this object. Keep in mind that one object can have many uses. Separate your responses with a comma.",NA,"y",62093,NA,NA,1455,56159,NA,NA,NA,"sitting, throwing, breaking, resting, burning, painting, support",1
"M20278334_eah","heco7wwqup","Affordance Norms_MSU_TEX",1,20,"2022-10-13T04:05:17+00:00",38.809481859207,22,"updated stim.csv","Version22.csv","Version 22","List 22","carport",NA,632,4.28,439,0.557499565,633,"BOI","-","-","Please name all of the ways you could use this object. Keep in mind that one object can have many uses. Separate your responses with a comma.",NA,"y",38421,NA,NA,3111,31030,NA,NA,NA,"cover, parking, storage, protection",1
"M20278334_eah","heco7wwqup","Affordance Norms_MSU_TEX",1,21,"2022-10-13T04:06:12+00:00",54.590948104858,22,"updated stim.csv","Version22.csv","Version 22","List 22","junk",NA,656,4.962962963,1396,0.125346107,657,"BOI","-","-","Please name all of the ways you could use this object. Keep in mind that one object can have many uses. Separate your responses with a comma.",NA,"y",54206,NA,NA,3534,41303,NA,NA,NA,"hording, throw, burn, discard, clutter",1
"M20278334_eah","heco7wwqup","Affordance Norms_MSU_TEX",1,22,"2022-10-13T04:07:03+00:00",51.303457975388,22,"updated stim.csv","Version22.csv","Version 22","List 22","buckwheat",NA,639,4.44,343,0.235284908,640,"BOI","-","-","Please name all of the ways you could use this object. Keep in mind that one object can have many uses. Separate your responses with a comma.",NA,"y",50915,NA,NA,18427,40372,NA,NA,NA,"food, baking, medicine, cooking, eating",1
"M20278334_eah","heco7wwqup","Affordance Norms_MSU_TEX",1,23,"2022-10-13T04:07:55+00:00",51.802666902542,22,"updated stim.csv","Version22.csv","Version 22","List 22","parachute",NA,636,4.68,1868,0.70599198,637,"BOI","-","-","Please name all of the ways you could use this object. Keep in mind that one object can have many uses. Separate your responses with a comma.",NA,"y",51439,NA,NA,10921,46840,NA,NA,NA,"resistance, protecting, blanket, coverage, life support, flying",1
"M20278334_eah","heco7wwqup","Affordance Norms_MSU_TEX",1,24,"2022-10-13T04:08:45+00:00",50.69328212738,22,"updated stim.csv","Version22.csv","Version 22","List 22","shield",NA,647,5.037037037,2338,0.491439171,648,"BOI","-","-","Please name all of the ways you could use this object. Keep in mind that one object can have many uses. Separate your responses with a comma.",NA,"y",50320,NA,NA,2008,38356,NA,NA,NA,"protection, hitting, cover, barricade, block, sitting, support ",1
"M20278334_eah","heco7wwqup","Affordance Norms_MSU_TEX",1,25,"2022-10-13T04:09:56+00:00",71.070747852325,22,"updated stim.csv","Version22.csv","Version 22","List 22","stockbroker",NA,649,4.851851852,2540,0.731101603,650,"BOI","-","-","Please name all of the ways you could use this object. Keep in mind that one object can have many uses. Separate your responses with a comma.",NA,"y",70690,NA,NA,18159,65389,NA,NA,NA,"investing, finances, money, guide, helper",1
"M20278334_eah","heco7wwqup","Affordance Norms_MSU_TEX",1,26,"2022-10-13T04:10:50+00:00",54.057020187378,22,"updated stim.csv","Version22.csv","Version 22","List 22","drone",NA,660,4.291666667,851,0.529488215,661,"BOI","-","-","Please name all of the ways you could use this object. Keep in mind that one object can have many uses. Separate your responses with a comma.",NA,"y",53687,NA,NA,3127,52775,NA,NA,NA,"spying, recording, listening, flying, lifting, carrying, dropping, capturing ",1
"M20278334_eah","heco7wwqup","Affordance Norms_MSU_TEX",1,27,"2022-10-13T04:11:44+00:00",53.708797931671,22,"updated stim.csv","Version22.csv","Version 22","List 22","television",NA,652,5.6,2660,0.764587344,653,"BOI","-","-","Please name all of the ways you could use this object. Keep in mind that one object can have many uses. Separate your responses with a comma.",NA,"y",53332,NA,NA,1656,46947,NA,NA,NA,"watching, listening, entainment, distraction, background noise, binding",1
"M20278334_eah","heco7wwqup","Affordance Norms_MSU_TEX",1,28,"2022-10-13T04:12:08+00:00",23.492109060287,22,"updated stim.csv","Version22.csv","Version 22","List 22","boomerang",NA,648,5.666666667,280,0.252502843,649,"BOI","-","-","Please name all of the ways you could use this object. Keep in mind that one object can have many uses. Separate your responses with a comma.",NA,"y",23106,NA,NA,3730,14430,NA,NA,NA,"throwing, cutting, hitting, weapon",1
"M20278334_eah","heco7wwqup","Affordance Norms_MSU_TEX",1,29,"2022-10-13T04:12:43+00:00",35.271847009659,22,"updated stim.csv","Version22.csv","Version 22","List 22","artist",NA,651,4.782608696,80,0.726156662,652,"BOI","-","-","Please name all of the ways you could use this object. Keep in mind that one object can have many uses. Separate your responses with a comma.",NA,"y",34895,NA,NA,3650,28061,NA,NA,NA,"painting, drawing, creating, making, sculpting",1
"M20278334_eah","heco7wwqup","Affordance Norms_MSU_TEX",1,30,"2022-10-13T04:13:20+00:00",36.777601957321,22,"updated stim.csv","Version22.csv","Version 22","List 22","diaphragm",NA,641,4.269230769,788,0.761321461,642,"BOI","-","-","Please name all of the ways you could use this object. Keep in mind that one object can have many uses. Separate your responses with a comma.",NA,"y",36353,NA,NA,2240,29820,NA,NA,NA,"breathing, support",1
"M20278334_eah","heco7wwqup","Affordance Norms_MSU_TEX",1,31,"2022-10-13T04:13:59+00:00",39.161573886871,22,"updated stim.csv","Version22.csv","Version 22","List 22","wigmaker",NA,645,4.36,2936,0.405238599,646,"BOI","-","-","Please name all of the ways you could use this object. Keep in mind that one object can have many uses. Separate your responses with a comma.",NA,"y",38790,NA,NA,5890,33193,NA,NA,NA,"creator, buying",1
"M20278334_eah","heco7wwqup","Affordance Norms_MSU_TEX",1,32,"2022-10-13T04:14:36+00:00",37.400926113129,22,"updated stim.csv","Version22.csv","Version 22","List 22","puddle",NA,655,5,2089,0.140663882,656,"BOI","-","-","Please name all of the ways you could use this object. Keep in mind that one object can have many uses. Separate your responses with a comma.",NA,"y",37015,NA,NA,1627,31324,NA,NA,NA,"stomping, splashing, kicking",1
"M20278334_eah","heco7wwqup","Affordance Norms_MSU_TEX",1,33,"2022-10-13T04:15:43+00:00",67.117498874664,22,"updated stim.csv","Version22.csv","Version 22","List 22","rosebush",NA,654,5.333333333,2195,0.69052429,655,"BOI","-","-","Please name all of the ways you could use this object. Keep in mind that one object can have many uses. Separate your responses with a comma.",NA,"y",66754,NA,NA,20788,60970,NA,NA,NA,"gardening, hiding, cutting, planting",1
"M20278334_eah","heco7wwqup","Affordance Norms_MSU_TEX",1,34,"2022-10-13T04:16:27+00:00",43.961394071579,22,"updated stim.csv","Version22.csv","Version 22","List 22","tutor",NA,634,4.608695652,2807,0.295026168,635,"BOI","-","-","Please name all of the ways you could use this object. Keep in mind that one object can have many uses. Separate your responses with a comma.",NA,"y",43587,NA,NA,3707,42678,NA,NA,NA,"help, mentor, homework, answers, support, teacher, information ",1
"M20278334_eah","heco7wwqup","Affordance Norms_MSU_TEX",1,35,"2022-10-13T04:16:58+00:00",30.663414955139,22,"updated stim.csv","Version22.csv","Version 22","List 22","needlepoint",NA,640,4.576923077,1746,0.71513555,641,"BOI","-","-","Please name all of the ways you could use this object. Keep in mind that one object can have many uses. Separate your responses with a comma.",NA,"y",30287,NA,NA,6571,24402,NA,NA,NA,"sewing, making, crafting, crochet",1
"M20278334_eah","heco7wwqup","Affordance Norms_MSU_TEX",1,36,"2022-10-13T04:17:41+00:00",42.907284021378,22,"updated stim.csv","Version22.csv","Version 22","List 22","clam",NA,657,4.375,545,0.559495965,658,"BOI","-","-","Please name all of the ways you could use this object. Keep in mind that one object can have many uses. Separate your responses with a comma.",NA,"y",42527,NA,NA,3260,41676,NA,NA,NA,"eating, steamed, baked, fried, boiled",1
"M20278334_eah","heco7wwqup","Affordance Norms_MSU_TEX",1,37,"2022-10-13T04:18:27+00:00",46.422891139984,22,"updated stim.csv","Version22.csv","Version 22","List 22","trunk",NA,631,5.217391304,2788,0.288599309,632,"BOI","-","-","Please name all of the ways you could use this object. Keep in mind that one object can have many uses. Separate your responses with a comma.",NA,"y",46034,NA,NA,2355,41995,NA,NA,NA,"storage, carrying, holding, transferring",1
"M20278334_eah","heco7wwqup","Affordance Norms_MSU_TEX",1,38,"2022-10-13T04:19:15+00:00",47.364209890366,22,"updated stim.csv","Version22.csv","Version 22","List 22","beach",NA,637,5.666666667,176,0.555141902,638,"BOI","-","-","Please name all of the ways you could use this object. Keep in mind that one object can have many uses. Separate your responses with a comma.",NA,"y",46974,NA,NA,2762,38712,NA,NA,NA,"vacation, swimming, tanning, sand castles, snorkeling, diving ",1
"M20278334_eah","heco7wwqup","Affordance Norms_MSU_TEX",1,39,"2022-10-13T04:19:48+00:00",33.246167898178,22,"updated stim.csv","Version22.csv","Version 22","List 22","seawater",NA,633,4.961538462,2303,0.081957919,634,"BOI","-","-","Please name all of the ways you could use this object. Keep in mind that one object can have many uses. Separate your responses with a comma.",NA,"y",32861,NA,NA,3733,28856,NA,NA,NA,"drinking, swimming, boating, fishing",1
"M20278334_eah","heco7wwqup","Affordance Norms_MSU_TEX",1,40,"2022-10-13T04:20:16+00:00",28.546178102493,22,"updated stim.csv","Version22.csv","Version 22","List 22","mountainside",NA,635,4.708333333,1700,0.685106443,636,"BOI","-","-","Please name all of the ways you could use this object. Keep in mind that one object can have many uses. Separate your responses with a comma.",NA,"y",27469,NA,NA,8659,17044,NA,NA,NA,"climbing, hiking, exploring",1
"M20286751","1hqpywdfge","Affordance Norms_MSU_TEX",1,11,"2022-10-13T15:59:17+00:00",16.375261068344,23,"updated stim.csv","Version23.csv","Version 23","List 23","lodge",NA,677,4.833333333,1539,0.783979723,678,"BOI","-","-","Please name all of the ways you could use this object. Keep in mind that one object can have many uses. Separate your responses with a comma.",NA,"y",16074,NA,NA,6402,14315,NA,NA,NA,"live,sleep,visit",1
"M20286751","1hqpywdfge","Affordance Norms_MSU_TEX",1,12,"2022-10-13T15:59:59+00:00",41.923958063126,23,"updated stim.csv","Version23.csv","Version 23","List 23","woodcraft",NA,664,4.296296296,2959,0.232641968,665,"BOI","-","-","Please name all of the ways you could use this object. Keep in mind that one object can have many uses. Separate your responses with a comma.",NA,"y",41622,NA,NA,25404,27697,NA,NA,NA,"build",1
"M20286751","1hqpywdfge","Affordance Norms_MSU_TEX",1,13,"2022-10-13T16:00:19+00:00",20.070719957352,23,"updated stim.csv","Version23.csv","Version 23","List 23","pill",NA,666,6.36,1960,0.334099984,667,"BOI","-","-","Please name all of the ways you could use this object. Keep in mind that one object can have many uses. Separate your responses with a comma.",NA,"y",19794,NA,NA,1719,17898,NA,NA,NA,"swallow, throw, spit",1
"M20286751","1hqpywdfge","Affordance Norms_MSU_TEX",1,14,"2022-10-13T16:00:33+00:00",13.713842868805,23,"updated stim.csv","Version23.csv","Version 23","List 23","shovel",NA,688,5.925925926,2363,0.76196992,689,"BOI","-","-","Please name all of the ways you could use this object. Keep in mind that one object can have many uses. Separate your responses with a comma.",NA,"y",13418,NA,NA,1833,10078,NA,NA,NA,"dig, fill up ",1
"M20286751","1hqpywdfge","Affordance Norms_MSU_TEX",1,15,"2022-10-13T16:00:49+00:00",15.984755992889,23,"updated stim.csv","Version23.csv","Version 23","List 23","suture",NA,686,4.652173913,2600,0.777769684,687,"BOI","-","-","Please name all of the ways you could use this object. Keep in mind that one object can have many uses. Separate your responses with a comma.",NA,"y",15718,NA,NA,4257,14199,NA,NA,NA,"wound, sew ,tool",1
"M20286751","1hqpywdfge","Affordance Norms_MSU_TEX",1,16,"2022-10-13T16:01:05+00:00",16.267222166061,23,"updated stim.csv","Version23.csv","Version 23","List 23","flowerbed",NA,670,5.041666667,1016,0.304375382,671,"BOI","-","-","Please name all of the ways you could use this object. Keep in mind that one object can have many uses. Separate your responses with a comma.",NA,"y",15991,NA,NA,12165,13831,NA,NA,NA,"smell",1
"M20286751","1hqpywdfge","Affordance Norms_MSU_TEX",1,17,"2022-10-13T16:01:27+00:00",21.999125003815,23,"updated stim.csv","Version23.csv","Version 23","List 23","Shirt",NA,676,6.473045822,2346,0.961696287,677,"BOI","-","-","Please name all of the ways you could use this object. Keep in mind that one object can have many uses. Separate your responses with a comma.",NA,"y",21728,NA,NA,1639,16781,NA,NA,NA,"wear, cut, throw , donate",1
"M20286751","1hqpywdfge","Affordance Norms_MSU_TEX",1,18,"2022-10-13T16:01:41+00:00",14.162935972214,23,"updated stim.csv","Version23.csv","Version 23","List 23","ice",NA,685,5.458333333,1344,0.778511489,686,"BOI","-","-","Please name all of the ways you could use this object. Keep in mind that one object can have many uses. Separate your responses with a comma.",NA,"y",13836,NA,NA,1478,11974,NA,NA,NA,"eat, melt, throw",1
"M20286751","1hqpywdfge","Affordance Norms_MSU_TEX",1,19,"2022-10-13T16:02:01+00:00",20.035815000534,23,"updated stim.csv","Version23.csv","Version 23","List 23","actress",NA,684,4.92,11,0.201024264,685,"BOI","-","-","Please name all of the ways you could use this object. Keep in mind that one object can have many uses. Separate your responses with a comma.",NA,"y",19740,NA,NA,6911,17907,NA,NA,NA,"to sing, play a trick, act ",1
"M20286751","1hqpywdfge","Affordance Norms_MSU_TEX",1,20,"2022-10-13T16:03:11+00:00",70.19778585434,23,"updated stim.csv","Version23.csv","Version 23","List 23","journal",NA,674,6,1390,0.159293473,675,"BOI","-","-","Please name all of the ways you could use this object. Keep in mind that one object can have many uses. Separate your responses with a comma.",NA,"y",69728,NA,NA,51602,67953,NA,NA,NA,"write, read, draw, paint , throw ",1
"M20286751","1hqpywdfge","Affordance Norms_MSU_TEX",1,21,"2022-10-13T16:03:29+00:00",17.702048063278,23,"updated stim.csv","Version23.csv","Version 23","List 23","pantaloons",NA,690,4.695652174,1858,0.760981626,691,"BOI","-","-","Please name all of the ways you could use this object. Keep in mind that one object can have many uses. Separate your responses with a comma.",NA,"y",17354,NA,NA,4346,15879,NA,NA,NA,"underwear, bottoms",1
"M20286751","1hqpywdfge","Affordance Norms_MSU_TEX",1,22,"2022-10-13T16:03:47+00:00",17.511063098907,23,"updated stim.csv","Version23.csv","Version 23","List 23","slide",NA,675,5.130434783,2411,0.551351131,676,"BOI","-","-","Please name all of the ways you could use this object. Keep in mind that one object can have many uses. Separate your responses with a comma.",NA,"y",17097,NA,NA,13401,14486,NA,NA,NA,"play",1
"M20286751","1hqpywdfge","Affordance Norms_MSU_TEX",1,23,"2022-10-13T16:05:29+00:00",101.95437383652,23,"updated stim.csv","Version23.csv","Version 23","List 23","brick",NA,671,5.64,317,0.988625431,672,"BOI","-","-","Please name all of the ways you could use this object. Keep in mind that one object can have many uses. Separate your responses with a comma.",NA,"y",101489,NA,NA,1362,6332,NA,NA,NA,"throw, build",1
"M20286751","1hqpywdfge","Affordance Norms_MSU_TEX",1,24,"2022-10-13T16:05:36+00:00",7.8919470310211,23,"updated stim.csv","Version23.csv","Version 23","List 23","honeydew",NA,667,5.444444444,1304,0.880806978,668,"BOI","-","-","Please name all of the ways you could use this object. Keep in mind that one object can have many uses. Separate your responses with a comma.",NA,"y",7609,NA,NA,5902,6501,NA,NA,NA,"eat",1
"M20286751","1hqpywdfge","Affordance Norms_MSU_TEX",1,25,"2022-10-13T16:06:03+00:00",26.852723121643,23,"updated stim.csv","Version23.csv","Version 23","List 23","lasso",NA,663,5.555555556,1468,0.924148107,664,"BOI","-","-","Please name all of the ways you could use this object. Keep in mind that one object can have many uses. Separate your responses with a comma.",NA,"y",26559,NA,NA,2539,25252,NA,NA,NA,"rope animals, rope people, grab beer ",1
"M20286751","1hqpywdfge","Affordance Norms_MSU_TEX",1,26,"2022-10-13T16:06:22+00:00",19.016991853714,23,"updated stim.csv","Version23.csv","Version 23","List 23","earplug",NA,689,6.111111111,879,0.54821895,690,"BOI","-","-","Please name all of the ways you could use this object. Keep in mind that one object can have many uses. Separate your responses with a comma.",NA,"y",18735,NA,NA,2834,14612,NA,NA,NA,"block noise",1
"M20286751","1hqpywdfge","Affordance Norms_MSU_TEX",1,27,"2022-10-13T16:06:49+00:00",26.770753145218,23,"updated stim.csv","Version23.csv","Version 23","List 23","bucket",NA,669,6,341,0.459674705,670,"BOI","-","-","Please name all of the ways you could use this object. Keep in mind that one object can have many uses. Separate your responses with a comma.",NA,"y",26476,NA,NA,2391,24306,NA,NA,NA,"put ice in, put clothes in , put food in, shovel snow",1
"M20286751","1hqpywdfge","Affordance Norms_MSU_TEX",1,28,"2022-10-13T16:08:14+00:00",85.094331026077,23,"updated stim.csv","Version23.csv","Version 23","List 23","auditorium",NA,683,4.392857143,97,0.782471662,684,"BOI","-","-","Please name all of the ways you could use this object. Keep in mind that one object can have many uses. Separate your responses with a comma.",NA,"y",84581,NA,NA,2947,17018,NA,NA,NA,"listen to music, watch a play, take a test ",1
"M20286751","1hqpywdfge","Affordance Norms_MSU_TEX",1,29,"2022-10-13T16:10:02+00:00",108.26807594299,23,"updated stim.csv","Version23.csv","Version 23","List 23","shaker",NA,673,4.36,2318,0.494967943,674,"BOI","-","-","Please name all of the ways you could use this object. Keep in mind that one object can have many uses. Separate your responses with a comma.",NA,"y",107742,NA,NA,3708,11285,NA,NA,NA,"put seasoning in ",1
"M20286751","1hqpywdfge","Affordance Norms_MSU_TEX",1,30,"2022-10-13T16:10:12+00:00",9.6663060188293,23,"updated stim.csv","Version23.csv","Version 23","List 23","heroin",NA,665,4.423076923,1282,0.687493673,666,"BOI","-","-","Please name all of the ways you could use this object. Keep in mind that one object can have many uses. Separate your responses with a comma.",NA,"y",9326,NA,NA,2268,7579,NA,NA,NA,"smoke, cook , sale ",1
"M20286751","1hqpywdfge","Affordance Norms_MSU_TEX",1,31,"2022-10-13T16:10:58+00:00",45.529681921005,23,"updated stim.csv","Version23.csv","Version 23","List 23","box",NA,668,6.291666667,294,0.637050956,669,"BOI","-","-","Please name all of the ways you could use this object. Keep in mind that one object can have many uses. Separate your responses with a comma.",NA,"y",45236,NA,NA,3226,9256,NA,NA,NA,"storage ",1
"M20286751","1hqpywdfge","Affordance Norms_MSU_TEX",1,32,"2022-10-13T16:11:11+00:00",13.366857051849,23,"updated stim.csv","Version23.csv","Version 23","List 23","prize",NA,687,4.916666667,2069,0.010907135,688,"BOI","-","-","Please name all of the ways you could use this object. Keep in mind that one object can have many uses. Separate your responses with a comma.",NA,"y",13026,NA,NA,4952,11429,NA,NA,NA,"a reward, a gift ",1
"M20286751","1hqpywdfge","Affordance Norms_MSU_TEX",1,33,"2022-10-13T16:11:37+00:00",25.736202955246,23,"updated stim.csv","Version23.csv","Version 23","List 23","child",NA,661,5.695652174,520,0.099947346,662,"BOI","-","-","Please name all of the ways you could use this object. Keep in mind that one object can have many uses. Separate your responses with a comma.",NA,"y",25443,NA,NA,2827,22205,NA,NA,NA,"to ask for something, play with, ",1
"M20286751","1hqpywdfge","Affordance Norms_MSU_TEX",1,34,"2022-10-13T16:11:52+00:00",15.701076030731,23,"updated stim.csv","Version23.csv","Version 23","List 23","breadbasket",NA,680,5.222222222,309,0.327360087,681,"BOI","-","-","Please name all of the ways you could use this object. Keep in mind that one object can have many uses. Separate your responses with a comma.",NA,"y",15356,NA,NA,5387,12729,NA,NA,NA,"sale, give away ,eat",1
"M20286751","1hqpywdfge","Affordance Norms_MSU_TEX",1,35,"2022-10-13T16:12:25+00:00",33.030176877975,23,"updated stim.csv","Version23.csv","Version 23","List 23","crown",NA,679,6.173913043,711,0.805622966,680,"BOI","-","-","Please name all of the ways you could use this object. Keep in mind that one object can have many uses. Separate your responses with a comma.",NA,"y",32737,NA,NA,1771,8781,NA,NA,NA,"wear, melt, give away ",1
"M20286751","1hqpywdfge","Affordance Norms_MSU_TEX",1,36,"2022-10-13T16:12:47+00:00",21.649102210999,23,"updated stim.csv","Version23.csv","Version 23","List 23","diaper",NA,678,5.64,787,0.798154395,679,"BOI","-","-","Please name all of the ways you could use this object. Keep in mind that one object can have many uses. Separate your responses with a comma.",NA,"y",21389,NA,NA,2994,18270,NA,NA,NA,"change, put on a baby, put on old person, throw in trash ",1
"M20286751","1hqpywdfge","Affordance Norms_MSU_TEX",1,37,"2022-10-13T16:12:55+00:00",8.3331298828125,23,"updated stim.csv","Version23.csv","Version 23","List 23","podiatrist",NA,662,4.791666667,2016,0.413157165,663,"BOI","-","-","Please name all of the ways you could use this object. Keep in mind that one object can have many uses. Separate your responses with a comma.",NA,"y",8017,NA,NA,-1,-1,NA,NA,NA,"",1
"M20286751","1hqpywdfge","Affordance Norms_MSU_TEX",1,38,"2022-10-13T16:13:33+00:00",37.282516002655,23,"updated stim.csv","Version23.csv","Version 23","List 23","stapler",NA,682,6.458333333,2508,0.347512878,683,"BOI","-","-","Please name all of the ways you could use this object. Keep in mind that one object can have many uses. Separate your responses with a comma.",NA,"y",37001,NA,NA,3049,35970,NA,NA,NA,"put papers together, throw , give to friend ",1
"M20286751","1hqpywdfge","Affordance Norms_MSU_TEX",1,39,"2022-10-13T16:13:50+00:00",17.177079916,23,"updated stim.csv","Version23.csv","Version 23","List 23","turtleneck",NA,681,5.375,2806,0.264717554,682,"BOI","-","-","Please name all of the ways you could use this object. Keep in mind that one object can have many uses. Separate your responses with a comma.",NA,"y",16886,NA,NA,2891,15211,NA,NA,NA,"wear, make a hairtie",1
"M20286751","1hqpywdfge","Affordance Norms_MSU_TEX",1,40,"2022-10-13T16:14:01+00:00",11.035256147385,23,"updated stim.csv","Version23.csv","Version 23","List 23","bifocals",NA,672,5.875,212,0.808390097,673,"BOI","-","-","Please name all of the ways you could use this object. Keep in mind that one object can have many uses. Separate your responses with a comma.",NA,"y",10727,NA,NA,1979,8104,NA,NA,NA,"to see, maginfy glass",1
"M20289110JT","qopg2bwokw","Affordance Norms_MSU_TEX",1,11,"2022-09-29T16:48:49+00:00",29.051291942596,3,"updated stim.csv","Version3.csv","Version 3","List 3","businesswoman",NA,86,5.08,371,0.22831517,87,"BOI","-","-","Please name all of the ways you could use this object. Keep in mind that one object can have many uses. Separate your responses with a comma.",NA,"y",28674,NA,NA,18677,22017,NA,NA,NA,"Not an object ",1
"M20289110JT","qopg2bwokw","Affordance Norms_MSU_TEX",1,12,"2022-09-29T16:49:27+00:00",38.595096111298,3,"updated stim.csv","Version3.csv","Version 3","List 3","rink",NA,71,4.333333333,2171,0.641556175,72,"BOI","-","-","Please name all of the ways you could use this object. Keep in mind that one object can have many uses. Separate your responses with a comma.",NA,"y",38121,NA,NA,4400,35618,NA,NA,NA,"To rollerskate, ice skating, rollerblading, ",1
"M20289110JT","qopg2bwokw","Affordance Norms_MSU_TEX",1,13,"2022-09-29T16:50:58+00:00",91.073755979538,3,"updated stim.csv","Version3.csv","Version 3","List 3","rack",NA,73,4.68,2119,0.859929905,74,"BOI","-","-","Please name all of the ways you could use this object. Keep in mind that one object can have many uses. Separate your responses with a comma.",NA,"y",89572,NA,NA,9104,86987,NA,NA,NA,"To keep sauces, place condiments, place dishes, hold clothes, hold towels, hold bikes, ",1
"M20289110JT","qopg2bwokw","Affordance Norms_MSU_TEX",1,14,"2022-09-29T16:51:18+00:00",19.381196022034,3,"updated stim.csv","Version3.csv","Version 3","List 3","dogcatcher",NA,74,4.72,812,0.011096937,75,"BOI","-","-","Please name all of the ways you could use this object. Keep in mind that one object can have many uses. Separate your responses with a comma.",NA,"y",18987,NA,NA,4545,16610,NA,NA,NA,"Catch dogs, catch cats, ",1
"M20289110JT","qopg2bwokw","Affordance Norms_MSU_TEX",1,15,"2022-09-29T16:52:16+00:00",58.044137001038,3,"updated stim.csv","Version3.csv","Version 3","List 3","fastener",NA,82,4.347826087,950,0.481228199,83,"BOI","-","-","Please name all of the ways you could use this object. Keep in mind that one object can have many uses. Separate your responses with a comma.",NA,"y",57624,NA,NA,2458,56760,NA,NA,NA,"Tighten clothes, loosen clothes, tighten bags, loosen bags, strap things together, loosen seatbelts, tighten seatbelts",1
"M20289110JT","qopg2bwokw","Affordance Norms_MSU_TEX",1,16,"2022-09-29T16:52:39+00:00",23.428076982498,3,"updated stim.csv","Version3.csv","Version 3","List 3","stake",NA,66,4.36,2503,0.391571319,67,"BOI","-","-","Please name all of the ways you could use this object. Keep in mind that one object can have many uses. Separate your responses with a comma.",NA,"y",23033,NA,NA,12095,20818,NA,NA,NA,"Hunting, make fires, protection ",1
"M20289110JT","qopg2bwokw","Affordance Norms_MSU_TEX",1,17,"2022-09-29T16:53:28+00:00",48.666672945023,3,"updated stim.csv","Version3.csv","Version 3","List 3","curtain",NA,84,5.875,732,0.795847806,85,"BOI","-","-","Please name all of the ways you could use this object. Keep in mind that one object can have many uses. Separate your responses with a comma.",NA,"y",47905,NA,NA,4575,44735,NA,NA,NA,"Block out sun, block out light, allow privacy, close, open , decoration, aesthetic ",1
"M20289110JT","qopg2bwokw","Affordance Norms_MSU_TEX",1,18,"2022-09-29T16:55:07+00:00",98.613338947296,3,"updated stim.csv","Version3.csv","Version 3","List 3","sash",NA,79,4.916666667,2244,0.813802173,80,"BOI","-","-","Please name all of the ways you could use this object. Keep in mind that one object can have many uses. Separate your responses with a comma.",NA,"y",97933,NA,NA,7348,26564,NA,NA,NA,"Birthdays, homecoming, prom, pageants, style, ",1
"M20289110JT","qopg2bwokw","Affordance Norms_MSU_TEX",1,19,"2022-09-29T16:57:18+00:00",131.50874900818,3,"updated stim.csv","Version3.csv","Version 3","List 3","overcoat",NA,85,6.52,1832,0.794942896,86,"BOI","-","-","Please name all of the ways you could use this object. Keep in mind that one object can have many uses. Separate your responses with a comma.",NA,"y",131090,NA,NA,6418,128284,NA,NA,NA,"To keep warm, to pair with outfit, to keep clean, to protect from rain, to protect from snow, ",1
"M20289110JT","qopg2bwokw","Affordance Norms_MSU_TEX",1,20,"2022-09-29T16:59:16+00:00",117.76244616508,3,"updated stim.csv","Version3.csv","Version 3","List 3","stone",NA,67,5.875,2545,0.16935575,68,"BOI","-","-","Please name all of the ways you could use this object. Keep in mind that one object can have many uses. Separate your responses with a comma.",NA,"y",117295,NA,NA,3201,114683,NA,NA,NA,"Start fire, skip across water, shape into objects, collect",1
"M20289110JT","qopg2bwokw","Affordance Norms_MSU_TEX",1,21,"2022-09-29T16:59:58+00:00",41.969574928284,3,"updated stim.csv","Version3.csv","Version 3","List 3","perfume",NA,78,4.96,1926,0.460539621,79,"BOI","-","-","Please name all of the ways you could use this object. Keep in mind that one object can have many uses. Separate your responses with a comma.",NA,"y",41454,NA,NA,3760,39725,NA,NA,NA,"Can be sprayed, can be poured, to smell good, to mask other smells , to feel good ",1
"M20289110JT","qopg2bwokw","Affordance Norms_MSU_TEX",1,22,"2022-09-29T17:00:28+00:00",30.121392011642,3,"updated stim.csv","Version3.csv","Version 3","List 3","lilac",NA,80,5,1508,0.204621036,81,"BOI","-","-","Please name all of the ways you could use this object. Keep in mind that one object can have many uses. Separate your responses with a comma.",NA,"y",29485,NA,NA,5622,27521,NA,NA,NA,"Placed in a bouquet, planted , grown, nurtured ",1
"M20289110JT","qopg2bwokw","Affordance Norms_MSU_TEX",1,23,"2022-09-29T17:01:30+00:00",62.16056895256,3,"updated stim.csv","Version3.csv","Version 3","List 3","plastics",NA,61,5,1995,0.297611551,62,"BOI","-","-","Please name all of the ways you could use this object. Keep in mind that one object can have many uses. Separate your responses with a comma.",NA,"y",61212,NA,NA,3279,59775,NA,NA,NA,"Used for water bottles, made into bags, made into containers , used in clothes, used in shoes, made into toys, used in video games",1
"M20289110JT","qopg2bwokw","Affordance Norms_MSU_TEX",1,24,"2022-09-29T17:03:18+00:00",107.6281709671,3,"updated stim.csv","Version3.csv","Version 3","List 3","postmaster",NA,64,5.2,2045,0.553054431,65,"BOI","-","-","Please name all of the ways you could use this object. Keep in mind that one object can have many uses. Separate your responses with a comma.",NA,"y",107034,NA,NA,92964,104618,NA,NA,NA,"Send mail, receive mail, ",1
"M20289110JT","qopg2bwokw","Affordance Norms_MSU_TEX",1,25,"2022-09-29T17:03:50+00:00",31.984750986099,3,"updated stim.csv","Version3.csv","Version 3","List 3","cart",NA,70,5.4,442,0.978148159,71,"BOI","-","-","Please name all of the ways you could use this object. Keep in mind that one object can have many uses. Separate your responses with a comma.",NA,"y",31588,NA,NA,3113,27135,NA,NA,NA,"For shopping, for moving, for holding items, to be rolled ",1
"M20289110JT","qopg2bwokw","Affordance Norms_MSU_TEX",1,26,"2022-09-29T17:04:12+00:00",21.905343055725,3,"updated stim.csv","Version3.csv","Version 3","List 3","footplate",NA,90,4.875,1038,0.590943274,91,"BOI","-","-","Please name all of the ways you could use this object. Keep in mind that one object can have many uses. Separate your responses with a comma.",NA,"y",21504,NA,NA,17095,20377,NA,NA,NA,"To place feet on",1
"M20289110JT","qopg2bwokw","Affordance Norms_MSU_TEX",1,27,"2022-09-29T17:04:47+00:00",34.838309049606,3,"updated stim.csv","Version3.csv","Version 3","List 3","sportswriter",NA,69,4.32,2484,0.788241169,70,"BOI","-","-","Please name all of the ways you could use this object. Keep in mind that one object can have many uses. Separate your responses with a comma.",NA,"y",34419,NA,NA,3751,33573,NA,NA,NA,"To cover sports news, publish articles, write blogs, be a sports anchor",1
"M20289110JT","qopg2bwokw","Affordance Norms_MSU_TEX",1,28,"2022-09-29T17:04:59+00:00",12.532877922058,3,"updated stim.csv","Version3.csv","Version 3","List 3","limestone",NA,81,4.565217391,1515,0.357597243,82,"BOI","-","-","Please name all of the ways you could use this object. Keep in mind that one object can have many uses. Separate your responses with a comma.",NA,"y",12130,NA,NA,4121,10262,NA,NA,NA,"Used to make jewelry, ",1
"M20289110JT","qopg2bwokw","Affordance Norms_MSU_TEX",1,29,"2022-09-29T17:05:13+00:00",13.688010931015,3,"updated stim.csv","Version3.csv","Version 3","List 3","postage",NA,83,4.32,2041,0.504174346,84,"BOI","-","-","Please name all of the ways you could use this object. Keep in mind that one object can have many uses. Separate your responses with a comma.",NA,"y",13250,NA,NA,7521,12468,NA,NA,NA,"Used to send packages",1
"M20289110JT","qopg2bwokw","Affordance Norms_MSU_TEX",1,30,"2022-09-29T17:05:54+00:00",41.102016210556,3,"updated stim.csv","Version3.csv","Version 3","List 3","lumber",NA,88,5.217391304,1557,0.027089463,89,"BOI","-","-","Please name all of the ways you could use this object. Keep in mind that one object can have many uses. Separate your responses with a comma.",NA,"y",40454,NA,NA,4583,39714,NA,NA,NA,"Can be chopped down, may be sold, placed in lumber yards, used for firewood, used to build shelter",1
"M20289110JT","qopg2bwokw","Affordance Norms_MSU_TEX",1,31,"2022-09-29T17:06:12+00:00",17.980608940125,3,"updated stim.csv","Version3.csv","Version 3","List 3","plow",NA,68,5,2008,0.897588843,69,"BOI","-","-","Please name all of the ways you could use this object. Keep in mind that one object can have many uses. Separate your responses with a comma.",NA,"y",17568,NA,NA,2883,16795,NA,NA,NA,"Used to plow trees, used in farming",1
"M20289110JT","qopg2bwokw","Affordance Norms_MSU_TEX",1,32,"2022-09-29T17:06:48+00:00",36.253708839417,3,"updated stim.csv","Version3.csv","Version 3","List 3","tights",NA,63,5.956521739,2696,0.229279242,64,"BOI","-","-","Please name all of the ways you could use this object. Keep in mind that one object can have many uses. Separate your responses with a comma.",NA,"y",35353,NA,NA,3101,34151,NA,NA,NA,"To keep warm, give an extra layer, keep covered, helps with compression ",1
"M20289110JT","qopg2bwokw","Affordance Norms_MSU_TEX",1,33,"2022-09-29T17:07:15+00:00",26.780664205551,3,"updated stim.csv","Version3.csv","Version 3","List 3","crumb",NA,89,4.45,714,0.473160418,90,"BOI","-","-","Please name all of the ways you could use this object. Keep in mind that one object can have many uses. Separate your responses with a comma.",NA,"y",26374,NA,NA,2245,25110,NA,NA,NA,"Can be eaten, cleaned, thrown away, used in meals",1
"M20289110JT","qopg2bwokw","Affordance Norms_MSU_TEX",1,34,"2022-09-29T17:07:40+00:00",25.443099021912,3,"updated stim.csv","Version3.csv","Version 3","List 3","litter",NA,75,5.034482759,1526,0.130915448,76,"BOI","-","-","Please name all of the ways you could use this object. Keep in mind that one object can have many uses. Separate your responses with a comma.",NA,"y",25005,NA,NA,2712,23434,NA,NA,NA,"For cats to go to restroom, may be sold, can be cleaned,",1
"M20289110JT","qopg2bwokw","Affordance Norms_MSU_TEX",1,35,"2022-09-29T17:08:00+00:00",19.813226938248,3,"updated stim.csv","Version3.csv","Version 3","List 3","delicatessen",NA,87,4.347826087,768,0.964513541,88,"BOI","-","-","Please name all of the ways you could use this object. Keep in mind that one object can have many uses. Separate your responses with a comma.",NA,"y",19295,NA,NA,15623,18308,NA,NA,NA,"N/A",1
"M20289110JT","qopg2bwokw","Affordance Norms_MSU_TEX",1,36,"2022-09-29T17:08:50+00:00",49.611887931824,3,"updated stim.csv","Version3.csv","Version 3","List 3","spit",NA,76,4.391304348,2476,0.828123751,77,"BOI","-","-","Please name all of the ways you could use this object. Keep in mind that one object can have many uses. Separate your responses with a comma.",NA,"y",48975,NA,NA,8480,47245,NA,NA,NA,"Spit out, keep mouth not dry, keep lips not dry, used for breaking down foods, mastication",1
"M20289110JT","qopg2bwokw","Affordance Norms_MSU_TEX",1,37,"2022-09-29T17:09:10+00:00",20.081284046173,3,"updated stim.csv","Version3.csv","Version 3","List 3","police",NA,72,4.739130435,2021,0.71377516,73,"BOI","-","-","Please name all of the ways you could use this object. Keep in mind that one object can have many uses. Separate your responses with a comma.",NA,"y",19635,NA,NA,3358,19000,NA,NA,NA,"Keep people safe, respond to emergency, jumpstart car",1
"M20289110JT","qopg2bwokw","Affordance Norms_MSU_TEX",1,38,"2022-09-29T17:09:29+00:00",18.777383089066,3,"updated stim.csv","Version3.csv","Version 3","List 3","pinecone",NA,62,5.821428571,1972,0.647636876,63,"BOI","-","-","Please name all of the ways you could use this object. Keep in mind that one object can have many uses. Separate your responses with a comma.",NA,"y",18170,NA,NA,2902,12343,NA,NA,NA,"May be eaten, used for scent, ",1
"M20289110JT","qopg2bwokw","Affordance Norms_MSU_TEX",1,39,"2022-09-29T17:10:03+00:00",34.475769996643,3,"updated stim.csv","Version3.csv","Version 3","List 3","stuff",NA,77,4.391304348,2574,0.106746219,78,"BOI","-","-","Please name all of the ways you could use this object. Keep in mind that one object can have many uses. Separate your responses with a comma.",NA,"y",33908,NA,NA,7944,30200,NA,NA,NA,"Used for anything, cleaned, hoarded, thrown away,gifted, ",1
"M20289110JT","qopg2bwokw","Affordance Norms_MSU_TEX",1,40,"2022-09-29T17:10:28+00:00",24.559945821762,3,"updated stim.csv","Version3.csv","Version 3","List 3","backbone",NA,65,4.64,113,0.193301397,66,"BOI","-","-","Please name all of the ways you could use this object. Keep in mind that one object can have many uses. Separate your responses with a comma.",NA,"y",22245,NA,NA,2429,21455,NA,NA,NA,"To support you back, hold body upright, posture",1
"M20294450mmv","0yccq4ctz4","Affordance Norms_MSU_TEX",1,11,"2022-10-04T03:26:27+00:00",53.244049072266,14,"updated stim.csv","Version14.csv","Version 14","List 14","earring",NA,405,6.428571429,881,0.521190906,406,"BOI","-","-","Please name all of the ways you could use this object. Keep in mind that one object can have many uses. Separate your responses with a comma.",NA,"y",52023,NA,NA,7032,46831,NA,NA,NA,"jewelry, accessory, piercing",1
"M20294450mmv","0yccq4ctz4","Affordance Norms_MSU_TEX",1,12,"2022-10-04T03:26:55+00:00",27.832767963409,14,"updated stim.csv","Version14.csv","Version 14","List 14","flannels",NA,413,5.681818182,999,0.343571271,414,"BOI","-","-","Please name all of the ways you could use this object. Keep in mind that one object can have many uses. Separate your responses with a comma.",NA,"y",27650,NA,NA,4345,25926,NA,NA,NA,"wear, keep warm, style, for fall",1
"M20294450mmv","0yccq4ctz4","Affordance Norms_MSU_TEX",1,13,"2022-10-04T03:27:46+00:00",51.240144968033,14,"updated stim.csv","Version14.csv","Version 14","List 14","brassiere",NA,409,5.666666667,306,0.051810651,410,"BOI","-","-","Please name all of the ways you could use this object. Keep in mind that one object can have many uses. Separate your responses with a comma.",NA,"y",51057,NA,NA,34019,48987,NA,NA,NA,"support, wear, cover, comfortable",1
"M20294450mmv","0yccq4ctz4","Affordance Norms_MSU_TEX",1,14,"2022-10-04T03:28:44+00:00",57.557039022446,14,"updated stim.csv","Version14.csv","Version 14","List 14","hairpin",NA,397,6.125,1216,0.666214022,398,"BOI","-","-","Please name all of the ways you could use this object. Keep in mind that one object can have many uses. Separate your responses with a comma.",NA,"y",57374,NA,NA,4664,19101,NA,NA,NA,"accessories, get hair out of the way, ",1
"M20294450mmv","0yccq4ctz4","Affordance Norms_MSU_TEX",1,15,"2022-10-04T03:30:03+00:00",78.872776031494,14,"updated stim.csv","Version14.csv","Version 14","List 14","vagina",NA,399,6.041666667,2832,0.891669639,400,"BOI","-","-","Please name all of the ways you could use this object. Keep in mind that one object can have many uses. Separate your responses with a comma.",NA,"y",78562,NA,NA,44157,76928,NA,NA,NA,"pee, bleed, to have children, hygiene ",1
"M20294450mmv","0yccq4ctz4","Affordance Norms_MSU_TEX",1,16,"2022-10-04T03:31:24+00:00",81.673900842667,14,"updated stim.csv","Version14.csv","Version 14","List 14","driftwood",NA,395,5.416666667,847,0.062436585,396,"BOI","-","-","Please name all of the ways you could use this object. Keep in mind that one object can have many uses. Separate your responses with a comma.",NA,"y",81364,NA,NA,17739,69215,NA,NA,NA,"make a fire, burn, shelter, ",1
"M20294450mmv","0yccq4ctz4","Affordance Norms_MSU_TEX",1,17,"2022-10-04T03:32:54+00:00",89.886661052704,14,"updated stim.csv","Version14.csv","Version 14","List 14","cord",NA,420,6.103448276,640,0.523772766,421,"BOI","-","-","Please name all of the ways you could use this object. Keep in mind that one object can have many uses. Separate your responses with a comma.",NA,"y",89598,NA,NA,2158,87597,NA,NA,NA,"charger, hair straightener, computer charger, lights, fans, ",1
"M20294450mmv","0yccq4ctz4","Affordance Norms_MSU_TEX",1,18,"2022-10-04T03:33:30+00:00",35.476809978485,14,"updated stim.csv","Version14.csv","Version 14","List 14","tuba",NA,401,5.130434783,2790,0.842475897,402,"BOI","-","-","Please name all of the ways you could use this object. Keep in mind that one object can have many uses. Separate your responses with a comma.",NA,"y",35292,NA,NA,2589,29761,NA,NA,NA,"play music, make money, be in a band",1
"M20294450mmv","0yccq4ctz4","Affordance Norms_MSU_TEX",1,19,"2022-10-04T03:34:32+00:00",62.295652151108,14,"updated stim.csv","Version14.csv","Version 14","List 14","booth",NA,403,4.92,282,0.969318496,404,"BOI","-","-","Please name all of the ways you could use this object. Keep in mind that one object can have many uses. Separate your responses with a comma.",NA,"y",62007,NA,NA,2208,52633,NA,NA,NA,"take pictures, sell food, sell drinks, sell prizes",1
