Username,ID,ExperimentName,Session,Trial,Date,TimeDif,"Condition Number","Stimuli File","Order File","Condition Description","Condition Notes",Stimuli*Cue,Stimuli*Answer,Stimuli*Shuffle,"Stimuli*Stimuli Notes",Stimuli*Value,Procedure*Item,"Procedure*Trial Type","Procedure*Max Time","Procedure*Min Time",Procedure*Text,"Procedure*Procedure Notes",Procedure*Shuffle,Response*RT,Response*Response,Response*Accuracy,Response*RTfirst,Response*RTlast,Response*strictAcc,Response*lenientAcc,Response*focus,Response*JOL,Response*Focus
avery.martinez@my.ccsu.edu,cmhtadbcm1,"Affordance Norms_CCSU",1,1,2022-11-28T06:57:15+00:00,19.461551904678,12,"updated stim.csv",Version62.csv,"Version 62","List 62",,,,,,0,Instruct,-,10,"In this section, you will be presented with a series of objects. Please name as many possible uses for this object as you can think of by typing them in the box below each object.",,Instruct1,19182,,,-1,-1,,,,,1
avery.martinez@my.ccsu.edu,cmhtadbcm1,"Affordance Norms_CCSU",1,2,2022-11-28T06:57:28+00:00,12.590234994888,12,"updated stim.csv",Version62.csv,"Version 62","List 62",,,,,,0,Instruct,-,10,"Please keep in mind that a single object will have more than one use. For example, a ball can be thrown or can be bounced or even stepped on. When listing multiple uses for one object, please separate each use with a comma (i.e., thrown, bounced, stepped on)",,Instruct2,12215,,,-1,-1,,,,,1
avery.martinez@my.ccsu.edu,cmhtadbcm1,"Affordance Norms_CCSU",1,3,2022-11-28T06:57:31+00:00,3.5975501537323,12,"updated stim.csv",Version62.csv,"Version 62","List 62",,,,,,0,Instruct,-,-,"Before starting the experiment, you will complete a short practice sesstion. Press ENTER when you are ready to begin.",,Instruct3,3341,,,-1,-1,,,,,1
avery.martinez@my.ccsu.edu,cmhtadbcm1,"Affordance Norms_CCSU",1,4,2022-11-28T06:58:33+00:00,61.283720016479,12,"updated stim.csv",Version62.csv,"Version 62","List 62",paperwork,,3001,5.625,1866,3002,BOI,-,-,"Please name all of the ways you could use this object. Keep in mind that one object can have many uses. Separate your responses with a comma.",,n,61054,,,11286,56327,,,,"putting something on it, drawing, writing, storing basic info on it or importanrt info",0.997
avery.martinez@my.ccsu.edu,cmhtadbcm1,"Affordance Norms_CCSU",1,5,2022-11-28T06:59:11+00:00,38.576355934143,12,"updated stim.csv",Version62.csv,"Version 62","List 62",saucer,,3005,5.777777778,2249,3006,BOI,-,-,"Please name all of the ways you could use this object. Keep in mind that one object can have many uses. Separate your responses with a comma.",,n,38194,,,3480,36743,,,,"putting stuff in it, sauces, food, hitting someone, throwing it, cleaning it, banging it, instrument, noises",1
avery.martinez@my.ccsu.edu,cmhtadbcm1,"Affordance Norms_CCSU",1,6,2022-11-28T06:59:30+00:00,19.037519931793,12,"updated stim.csv",Version62.csv,"Version 62","List 62",shortening,,3002,4.92,2358,3003,BOI,-,-,"Please name all of the ways you could use this object. Keep in mind that one object can have many uses. Separate your responses with a comma.",,n,18687,,,5081,17301,,,,"shortening? I have no idea what that is",1
avery.martinez@my.ccsu.edu,cmhtadbcm1,"Affordance Norms_CCSU",1,7,2022-11-28T07:00:14+00:00,44.015429019928,12,"updated stim.csv",Version62.csv,"Version 62","List 62",grain,,3004,5.217391304,1143,3005,BOI,-,-,"Please name all of the ways you could use this object. Keep in mind that one object can have many uses. Separate your responses with a comma.",,n,43660,,,4034,42062,,,,"baking food like bread, creating a deathtrap like in a quiet place, could probably end world hunger",1
avery.martinez@my.ccsu.edu,cmhtadbcm1,"Affordance Norms_CCSU",1,8,2022-11-28T07:00:59+00:00,45.068799972534,12,"updated stim.csv",Version62.csv,"Version 62","List 62",spaghetti,,3003,6,2461,3004,BOI,-,-,"Please name all of the ways you could use this object. Keep in mind that one object can have many uses. Separate your responses with a comma.",,n,44712,,,5668,43329,,,,"eating!, throwing at someone, can be used to recrate that one scene from lady and the tramp too",1
avery.martinez@my.ccsu.edu,cmhtadbcm1,"Affordance Norms_CCSU",1,9,2022-11-28T07:01:02+00:00,2.3630859851837,12,"updated stim.csv",Version62.csv,"Version 62","List 62",,,,,,0,Instruct,-,-,"You have completed this section. Press ENTER to continue",,"Instruct 5",2086,,,-1,-1,,,,,1
avery.martinez@my.ccsu.edu,cmhtadbcm1,"Affordance Norms_CCSU",1,10,2022-11-28T07:01:04+00:00,2.4503409862518,12,"updated stim.csv",Version62.csv,"Version 62","List 62",,,,,,0,Instruct,-,-,"You will now start the full experiment. Press ENTER when you are ready to begin.",,,2189,,,-1,-1,,,,,1
avery.martinez@my.ccsu.edu,cmhtadbcm1,"Affordance Norms_CCSU",1,11,2022-11-28T07:01:24+00:00,19.724194049835,12,"updated stim.csv",Version62.csv,"Version 62","List 62",mantel,,1842,5,1595,1843,BOI,-,-,"Please name all of the ways you could use this object. Keep in mind that one object can have many uses. Separate your responses with a comma.",,y,19058,,,3716,17850,,,,"hitting, throwing, destroying",1
avery.martinez@my.ccsu.edu,cmhtadbcm1,"Affordance Norms_CCSU",1,12,2022-11-28T07:02:16+00:00,52.047657966614,12,"updated stim.csv",Version62.csv,"Version 62","List 62",museum,,1849,4.333333333,1722,1850,BOI,-,-,"Please name all of the ways you could use this object. Keep in mind that one object can have many uses. Separate your responses with a comma.",,y,51675,,,10641,49861,,,,"holding expensive and old artifacts, a perfect place for bandits to steal from",1
avery.martinez@my.ccsu.edu,cmhtadbcm1,"Affordance Norms_CCSU",1,13,2022-11-28T07:02:30+00:00,14.572795152664,12,"updated stim.csv",Version62.csv,"Version 62","List 62",beaker,,1855,5.416666667,180,1856,BOI,-,-,"Please name all of the ways you could use this object. Keep in mind that one object can have many uses. Separate your responses with a comma.",,y,14224,,,2786,12983,,,,"science, holding liquids of all sorts",1
avery.martinez@my.ccsu.edu,cmhtadbcm1,"Affordance Norms_CCSU",1,14,2022-11-28T07:03:17+00:00,46.959028959274,12,"updated stim.csv",Version62.csv,"Version 62","List 62",pedometer,,1838,5.681818182,1904,1839,BOI,-,-,"Please name all of the ways you could use this object. Keep in mind that one object can have many uses. Separate your responses with a comma.",,y,46582,,,19844,36051,,,,"tracking your steps, can probably be useful for poilice if someone goes missing",0.996
avery.martinez@my.ccsu.edu,cmhtadbcm1,"Affordance Norms_CCSU",1,15,2022-11-28T07:03:57+00:00,40.022922039032,12,"updated stim.csv",Version62.csv,"Version 62","List 62",rose,,1859,5.76,2194,1860,BOI,-,-,"Please name all of the ways you could use this object. Keep in mind that one object can have many uses. Separate your responses with a comma.",,y,39686,,,1986,38408,,,,"giving to someone to show affection, present, gift, decoration, symbol of love",1
avery.martinez@my.ccsu.edu,cmhtadbcm1,"Affordance Norms_CCSU",1,16,2022-11-28T07:04:21+00:00,23.458029985428,12,"updated stim.csv",Version62.csv,"Version 62","List 62",hookers,,1853,5.08,1309,1854,BOI,-,-,"Please name all of the ways you could use this object. Keep in mind that one object can have many uses. Separate your responses with a comma.",,y,22719,,,11699,19673,,,,"sex workers deserving of respect",1
avery.martinez@my.ccsu.edu,cmhtadbcm1,"Affordance Norms_CCSU",1,17,2022-11-28T07:04:50+00:00,28.90393781662,12,"updated stim.csv",Version62.csv,"Version 62","List 62",weaponry,,1856,5,2915,1857,BOI,-,-,"Please name all of the ways you could use this object. Keep in mind that one object can have many uses. Separate your responses with a comma.",,y,27933,,,4275,19655,,,,"literally nothing, except maybe pistols for self defence",0.993
avery.martinez@my.ccsu.edu,cmhtadbcm1,"Affordance Norms_CCSU",1,18,2022-11-28T07:05:33+00:00,43.551611185074,12,"updated stim.csv",Version62.csv,"Version 62","List 62",tuna,,1857,4.916666667,2797,1858,BOI,-,-,"Please name all of the ways you could use this object. Keep in mind that one object can have many uses. Separate your responses with a comma.",,y,43229,,,10304,41921,,,,"killing people with their teeth, food, make great canned birthday cakes for cats",1
avery.martinez@my.ccsu.edu,cmhtadbcm1,"Affordance Norms_CCSU",1,19,2022-11-28T07:06:05+00:00,31.602859973907,12,"updated stim.csv",Version62.csv,"Version 62","List 62",crankshaft,,1848,4.666666667,682,1849,BOI,-,-,"Please name all of the ways you could use this object. Keep in mind that one object can have many uses. Separate your responses with a comma.",,y,31232,,,23107,30110,,,,"literally just for its one use lol",1
avery.martinez@my.ccsu.edu,cmhtadbcm1,"Affordance Norms_CCSU",1,20,2022-11-28T07:06:24+00:00,19.096652030945,12,"updated stim.csv",Version62.csv,"Version 62","List 62",bistro,,1832,4.518518519,226,1833,BOI,-,-,"Please name all of the ways you could use this object. Keep in mind that one object can have many uses. Separate your responses with a comma.",,y,18741,,,3558,17414,,,,"eating, socializing, drinking, meeting someone new ",1
avery.martinez@my.ccsu.edu,cmhtadbcm1,"Affordance Norms_CCSU",1,21,2022-11-28T07:06:48+00:00,23.518121004105,12,"updated stim.csv",Version62.csv,"Version 62","List 62",antique,,1858,4.423076923,50,1859,BOI,-,-,"Please name all of the ways you could use this object. Keep in mind that one object can have many uses. Separate your responses with a comma.",,y,23163,,,3948,21392,,,,"speculate the story behind it, historical object, educational ",1
avery.martinez@my.ccsu.edu,cmhtadbcm1,"Affordance Norms_CCSU",1,22,2022-11-28T07:07:15+00:00,27.578846931458,12,"updated stim.csv",Version62.csv,"Version 62","List 62",cleavers,,1840,5.48,554,1841,BOI,-,-,"Please name all of the ways you could use this object. Keep in mind that one object can have many uses. Separate your responses with a comma.",,y,26776,,,20717,24642,,,,"ground coffee, food ",1
avery.martinez@my.ccsu.edu,cmhtadbcm1,"Affordance Norms_CCSU",1,23,2022-11-28T07:07:51+00:00,35.557736873627,12,"updated stim.csv",Version62.csv,"Version 62","List 62",lifebuoy,,1847,4.260869565,1505,1848,BOI,-,-,"Please name all of the ways you could use this object. Keep in mind that one object can have many uses. Separate your responses with a comma.",,y,34909,,,19214,33410,,,,"keeping people afloat, throwing one at someone ",1
avery.martinez@my.ccsu.edu,cmhtadbcm1,"Affordance Norms_CCSU",1,24,2022-11-28T07:08:34+00:00,42.850717067719,12,"updated stim.csv",Version62.csv,"Version 62","List 62",fish,,1850,5.592592593,989,1851,BOI,-,-,"Please name all of the ways you could use this object. Keep in mind that one object can have many uses. Separate your responses with a comma.",,y,42506,,,1969,40060,,,,"food for both people and aquatic life, beneficial to the earth depending on the species of fish and their purposes",1
avery.martinez@my.ccsu.edu,cmhtadbcm1,"Affordance Norms_CCSU",1,25,2022-11-28T07:08:47+00:00,13.421705007553,12,"updated stim.csv",Version62.csv,"Version 62","List 62",track,,1845,4.916666667,2751,1846,BOI,-,-,"Please name all of the ways you could use this object. Keep in mind that one object can have many uses. Separate your responses with a comma.",,y,13164,,,3160,11640,,,,"running, jogging, sprinting, practicing",1
avery.martinez@my.ccsu.edu,cmhtadbcm1,"Affordance Norms_CCSU",1,26,2022-11-28T07:08:55+00:00,7.6245639324188,12,"updated stim.csv",Version62.csv,"Version 62","List 62",dressmaker,,1837,4.875,846,1838,BOI,-,-,"Please name all of the ways you could use this object. Keep in mind that one object can have many uses. Separate your responses with a comma.",,y,7329,,,2091,4767,,,,"making dresses..",1
avery.martinez@my.ccsu.edu,cmhtadbcm1,"Affordance Norms_CCSU",1,27,2022-11-28T07:09:24+00:00,29.142896175385,12,"updated stim.csv",Version62.csv,"Version 62","List 62",coffee,,1836,5.538461538,592,1837,BOI,-,-,"Please name all of the ways you could use this object. Keep in mind that one object can have many uses. Separate your responses with a comma.",,y,28801,,,1922,20347,,,,"energizer, can cause severe burns",1
avery.martinez@my.ccsu.edu,cmhtadbcm1,"Affordance Norms_CCSU",1,28,2022-11-28T07:09:43+00:00,19.100379943848,12,"updated stim.csv",Version62.csv,"Version 62","List 62",sweatband,,1860,6.041666667,2603,1861,BOI,-,-,"Please name all of the ways you could use this object. Keep in mind that one object can have many uses. Separate your responses with a comma.",,y,18855,,,4050,16792,,,,"slingshot, soaking up sweat ",1
avery.martinez@my.ccsu.edu,cmhtadbcm1,"Affordance Norms_CCSU",1,29,2022-11-28T07:10:15+00:00,32.644929885864,12,"updated stim.csv",Version62.csv,"Version 62","List 62",burlap,,1843,5.333333333,367,1844,BOI,-,-,"Please name all of the ways you could use this object. Keep in mind that one object can have many uses. Separate your responses with a comma.",,y,32289,,,28180,30595,,,,"potato sackss",1
avery.martinez@my.ccsu.edu,cmhtadbcm1,"Affordance Norms_CCSU",1,30,2022-11-28T07:10:20+00:00,4.7183690071106,12,"updated stim.csv",Version62.csv,"Version 62","List 62",shopper,,1846,4.541666667,2354,1847,BOI,-,-,"Please name all of the ways you could use this object. Keep in mind that one object can have many uses. Separate your responses with a comma.",,y,4503,,,1736,3106,,,,shopping,1
avery.martinez@my.ccsu.edu,cmhtadbcm1,"Affordance Norms_CCSU",1,31,2022-11-28T07:10:46+00:00,26.108752012253,12,"updated stim.csv",Version62.csv,"Version 62","List 62",tourniquet,,1839,4.956521739,2745,1840,BOI,-,-,"Please name all of the ways you could use this object. Keep in mind that one object can have many uses. Separate your responses with a comma.",,y,25763,,,18966,24522,,,,"stop life threatening bleeding",1
avery.martinez@my.ccsu.edu,cmhtadbcm1,"Affordance Norms_CCSU",1,32,2022-11-28T07:11:17+00:00,31.033507108688,12,"updated stim.csv",Version62.csv,"Version 62","List 62",heads,,1844,4.28,1272,1845,BOI,-,-,"Please name all of the ways you could use this object. Keep in mind that one object can have many uses. Separate your responses with a comma.",,y,30666,,,3420,29423,,,,"head butting, concussions, eating, thinking, talking",1
avery.martinez@my.ccsu.edu,cmhtadbcm1,"Affordance Norms_CCSU",1,33,2022-11-28T07:11:38+00:00,20.609637022018,12,"updated stim.csv",Version62.csv,"Version 62","List 62",husk,,1841,4.304347826,1339,1842,BOI,-,-,"Please name all of the ways you could use this object. Keep in mind that one object can have many uses. Separate your responses with a comma.",,y,20273,,,17121,19048,,,,"layer or shell",1
avery.martinez@my.ccsu.edu,cmhtadbcm1,"Affordance Norms_CCSU",1,34,2022-11-28T07:11:57+00:00,19.208307981491,12,"updated stim.csv",Version62.csv,"Version 62","List 62",gingerbread,,1835,5.48,1105,1836,BOI,-,-,"Please name all of the ways you could use this object. Keep in mind that one object can have many uses. Separate your responses with a comma.",,y,18925,,,1622,17633,,,,"eating, baking, throwing at someone when its stale, gingy from shrek",1
avery.martinez@my.ccsu.edu,cmhtadbcm1,"Affordance Norms_CCSU",1,35,2022-11-28T07:12:04+00:00,6.8647608757019,12,"updated stim.csv",Version62.csv,"Version 62","List 62",scotch,,1852,5.4,2281,1853,BOI,-,-,"Please name all of the ways you could use this object. Keep in mind that one object can have many uses. Separate your responses with a comma.",,y,6604,,,3139,4808,,,,alcohol,1
avery.martinez@my.ccsu.edu,cmhtadbcm1,"Affordance Norms_CCSU",1,36,2022-11-28T07:12:13+00:00,8.891077041626,12,"updated stim.csv",Version62.csv,"Version 62","List 62",tinderbox,,1834,4.958333333,2702,1835,BOI,-,-,"Please name all of the ways you could use this object. Keep in mind that one object can have many uses. Separate your responses with a comma.",,y,8655,,,3246,7303,,,,"getting messages on tinder",1
avery.martinez@my.ccsu.edu,cmhtadbcm1,"Affordance Norms_CCSU",1,37,2022-11-28T07:12:40+00:00,26.858047962189,12,"updated stim.csv",Version62.csv,"Version 62","List 62",rope,,1854,6.2,2192,1855,BOI,-,-,"Please name all of the ways you could use this object. Keep in mind that one object can have many uses. Separate your responses with a comma.",,y,26527,,,1930,25374,,,,"hitting someone, tying something or someone, pulling someone up, holding something together",1
avery.martinez@my.ccsu.edu,cmhtadbcm1,"Affordance Norms_CCSU",1,38,2022-11-28T07:12:47+00:00,6.8232731819153,12,"updated stim.csv",Version62.csv,"Version 62","List 62",shingle,,1831,4.625,2341,1832,BOI,-,-,"Please name all of the ways you could use this object. Keep in mind that one object can have many uses. Separate your responses with a comma.",,y,6536,,,3207,5387,,,,"a nasty disease",1
avery.martinez@my.ccsu.edu,cmhtadbcm1,"Affordance Norms_CCSU",1,39,2022-11-28T07:13:02+00:00,15.046777963638,12,"updated stim.csv",Version62.csv,"Version 62","List 62",dictionary,,1851,6.04,790,1852,BOI,-,-,"Please name all of the ways you could use this object. Keep in mind that one object can have many uses. Separate your responses with a comma.",,y,14793,,,2543,13430,,,,"educating oneself on certain words and their definitions",1
avery.martinez@my.ccsu.edu,cmhtadbcm1,"Affordance Norms_CCSU",1,40,2022-11-28T07:13:09+00:00,7.370512008667,12,"updated stim.csv",Version62.csv,"Version 62","List 62",booklet,,1833,5.5,275,1834,BOI,-,-,"Please name all of the ways you could use this object. Keep in mind that one object can have many uses. Separate your responses with a comma.",,y,7139,,,2647,5870,,,,"keep track of things",1
avery.martinez@my.ccsu.edu,cmhtadbcm1,"Affordance Norms_CCSU",1,41,2022-11-28T07:13:13+00:00,3.5133099555969,12,"updated stim.csv",Version62.csv,"Version 62","List 62",,,,,,0,Instruct,,,"You will now be asked a few questions about your experience today.",,"Instruct 4",3279,,,-1,-1,,,,,1
