Username,ID,ExperimentName,Session,Trial,Date,TimeDif,"Condition Number","Stimuli File","Order File","Condition Description","Condition Notes",Stimuli*Cue,Stimuli*Answer,Stimuli*Shuffle,"Stimuli*Stimuli Notes",Stimuli*Value,Stimuli*Rand,Procedure*Item,"Procedure*Trial Type","Procedure*Max Time","Procedure*Min Time",Procedure*Text,"Procedure*Procedure Notes",Procedure*Shuffle,Response*RT,Response*Response,Response*Accuracy,Response*RTfirst,Response*RTlast,Response*strictAcc,Response*lenientAcc,Response*focus,Response*JOL,Response*Focus
M20302614_RB,uul650ktd7,"Affordance Norms_MSU_TEX",1,1,2022-11-11T21:30:45+00:00,11.980164051056,79,"updated stim.csv",Version79.csv,"Version 79","List 79",,,,,,,0,Instruct,-,10,"In this section, you will be presented with a series of objects. Please name as many possible uses for this object as you can think of by typing them in the box below each object.",,Instruct1,11359,,,-1,-1,,,,,1
M20302614_RB,uul650ktd7,"Affordance Norms_MSU_TEX",1,2,2022-11-11T21:30:59+00:00,13.924700021744,79,"updated stim.csv",Version79.csv,"Version 79","List 79",,,,,,,0,Instruct,-,10,"Please keep in mind that a single object will have more than one use. For example, a ball can be thrown or can be bounced or even stepped on. When listing multiple uses for one object, please separate each use with a comma (i.e., thrown, bounced, stepped on)",,Instruct2,13171,,,-1,-1,,,,,1
M20302614_RB,uul650ktd7,"Affordance Norms_MSU_TEX",1,3,2022-11-11T21:31:06+00:00,6.5933990478516,79,"updated stim.csv",Version79.csv,"Version 79","List 79",,,,,,,0,Instruct,-,-,"Before starting the experiment, you will complete a short practice sesstion. Press ENTER when you are ready to begin.",,Instruct3,6264,,,-1,-1,,,,,1
M20302614_RB,uul650ktd7,"Affordance Norms_MSU_TEX",1,4,2022-11-11T21:31:28+00:00,22.681001901627,79,"updated stim.csv",Version79.csv,"Version 79","List 79",shortening,,3002,4.92,2358,0.604328482,3003,BOI,-,-,"Please name all of the ways you could use this object. Keep in mind that one object can have many uses. Separate your responses with a comma.",,n,22356,,,11605,14036,,,,baking,1
M20302614_RB,uul650ktd7,"Affordance Norms_MSU_TEX",1,5,2022-11-11T21:32:36+00:00,67.645770072937,79,"updated stim.csv",Version79.csv,"Version 79","List 79",saucer,,3005,5.777777778,2249,0.304808074,3006,BOI,-,-,"Please name all of the ways you could use this object. Keep in mind that one object can have many uses. Separate your responses with a comma.",,n,67330,,,16409,65575,,,,"Tea cup",1
M20302614_RB,uul650ktd7,"Affordance Norms_MSU_TEX",1,6,2022-11-11T21:32:42+00:00,6.3300340175629,79,"updated stim.csv",Version79.csv,"Version 79","List 79",spaghetti,,3003,6,2461,0.090379998,3004,BOI,-,-,"Please name all of the ways you could use this object. Keep in mind that one object can have many uses. Separate your responses with a comma.",,n,6121,,,3703,4788,,,,eaten,1
M20302614_RB,uul650ktd7,"Affordance Norms_MSU_TEX",1,7,2022-11-11T21:32:59+00:00,16.456192016602,79,"updated stim.csv",Version79.csv,"Version 79","List 79",paperwork,,3001,5.625,1866,0.124284162,3002,BOI,-,-,"Please name all of the ways you could use this object. Keep in mind that one object can have many uses. Separate your responses with a comma.",,n,16166,,,7988,14344,,,,documentation,1
M20302614_RB,uul650ktd7,"Affordance Norms_MSU_TEX",1,8,2022-11-11T21:33:08+00:00,9.6230459213257,79,"updated stim.csv",Version79.csv,"Version 79","List 79",grain,,3004,5.217391304,1143,0.226863762,3005,BOI,-,-,"Please name all of the ways you could use this object. Keep in mind that one object can have many uses. Separate your responses with a comma.",,n,9329,,,2400,7854,,,,"bread, rice",1
M20302614_RB,uul650ktd7,"Affordance Norms_MSU_TEX",1,9,2022-11-11T21:33:11+00:00,2.7050330638885,79,"updated stim.csv",Version79.csv,"Version 79","List 79",,,,,,,0,Instruct,-,-,"You have completed this section. Press ENTER to continue",,"Instruct 5",2500,,,-1,-1,,,,,1
M20302614_RB,uul650ktd7,"Affordance Norms_MSU_TEX",1,10,2022-11-11T21:33:13+00:00,2.2255568504333,79,"updated stim.csv",Version79.csv,"Version 79","List 79",,,,,,,0,Instruct,-,-,"You will now start the full experiment. Press ENTER when you are ready to begin.",,,2024,,,-1,-1,,,,,1
M20302614_RB,uul650ktd7,"Affordance Norms_MSU_TEX",1,11,2022-11-11T21:34:01+00:00,47.990599155426,79,"updated stim.csv",Version79.csv,"Version 79","List 79",jewelry,,2350,6.576923077,1386,0.713923994,2351,BOI,-,-,"Please name all of the ways you could use this object. Keep in mind that one object can have many uses. Separate your responses with a comma.",,y,47679,,,3039,45383,,,,"gift, worn, promise, accessory",1
M20302614_RB,uul650ktd7,"Affordance Norms_MSU_TEX",1,12,2022-11-11T21:34:21+00:00,19.973989009857,79,"updated stim.csv",Version79.csv,"Version 79","List 79",sequin,,2357,4.923076923,2312,0.648605063,2358,BOI,-,-,"Please name all of the ways you could use this object. Keep in mind that one object can have many uses. Separate your responses with a comma.",,y,19676,,,7479,18250,,,,"sparkle, shine, flashy",1
M20302614_RB,uul650ktd7,"Affordance Norms_MSU_TEX",1,13,2022-11-11T21:35:15+00:00,53.708643913269,79,"updated stim.csv",Version79.csv,"Version 79","List 79",cheesecloth,,2356,5.52173913,508,0.430760063,2357,BOI,-,-,"Please name all of the ways you could use this object. Keep in mind that one object can have many uses. Separate your responses with a comma.",,y,53405,,,49146,52559,,,,cooking,1
M20302614_RB,uul650ktd7,"Affordance Norms_MSU_TEX",1,14,2022-11-11T21:35:26+00:00,10.524395942688,79,"updated stim.csv",Version79.csv,"Version 79","List 79",cereal,,2364,5.958333333,481,0.539046967,2365,BOI,-,-,"Please name all of the ways you could use this object. Keep in mind that one object can have many uses. Separate your responses with a comma.",,y,10221,,,2171,3749,,,,eaten,1
M20302614_RB,uul650ktd7,"Affordance Norms_MSU_TEX",1,15,2022-11-11T21:35:35+00:00,9.8690330982208,79,"updated stim.csv",Version79.csv,"Version 79","List 79",dwelling,,2347,4.857142857,872,0.800363581,2348,BOI,-,-,"Please name all of the ways you could use this object. Keep in mind that one object can have many uses. Separate your responses with a comma.",,y,9574,,,6737,8314,,,,thinking,1
M20302614_RB,uul650ktd7,"Affordance Norms_MSU_TEX",1,16,2022-11-11T21:36:18+00:00,42.460247039795,79,"updated stim.csv",Version79.csv,"Version 79","List 79",velvet,,2355,4.916666667,2846,0.824771748,2356,BOI,-,-,"Please name all of the ways you could use this object. Keep in mind that one object can have many uses. Separate your responses with a comma.",,y,42130,,,4696,40536,,,,"clothes, furniture",1
M20302614_RB,uul650ktd7,"Affordance Norms_MSU_TEX",1,17,2022-11-11T21:36:29+00:00,10.586036920547,79,"updated stim.csv",Version79.csv,"Version 79","List 79",peach,,2367,5.88,1891,0.589067104,2368,BOI,-,-,"Please name all of the ways you could use this object. Keep in mind that one object can have many uses. Separate your responses with a comma.",,y,10250,,,3933,8902,,,,"eaten, color",1
M20302614_RB,uul650ktd7,"Affordance Norms_MSU_TEX",1,18,2022-11-11T21:36:42+00:00,13.615278959274,79,"updated stim.csv",Version79.csv,"Version 79","List 79",dipstick,,2369,5.185185185,800,0.932121689,2370,BOI,-,-,"Please name all of the ways you could use this object. Keep in mind that one object can have many uses. Separate your responses with a comma.",,y,13289,,,3644,11314,,,,"engine oil",1
M20302614_RB,uul650ktd7,"Affordance Norms_MSU_TEX",1,19,2022-11-11T21:36:52+00:00,9.3801229000092,79,"updated stim.csv",Version79.csv,"Version 79","List 79",priest,,2345,4.56,2062,0.932851877,2346,BOI,-,-,"Please name all of the ways you could use this object. Keep in mind that one object can have many uses. Separate your responses with a comma.",,y,9061,,,2267,7747,,,,"church, sermon",1
M20302614_RB,uul650ktd7,"Affordance Norms_MSU_TEX",1,20,2022-11-11T21:37:05+00:00,13.444472074509,79,"updated stim.csv",Version79.csv,"Version 79","List 79",playhouse,,2363,4.869565217,2001,0.157685511,2364,BOI,-,-,"Please name all of the ways you could use this object. Keep in mind that one object can have many uses. Separate your responses with a comma.",,y,12996,,,4354,10545,,,,"kids, theater",1
M20302614_RB,uul650ktd7,"Affordance Norms_MSU_TEX",1,21,2022-11-11T21:37:27+00:00,21.699084043503,79,"updated stim.csv",Version79.csv,"Version 79","List 79",Sleeve,,2352,5.798376184,2409,0.153703755,2353,BOI,-,-,"Please name all of the ways you could use this object. Keep in mind that one object can have many uses. Separate your responses with a comma.",,y,21166,,,4911,19728,,,,"warmth, cloths, papers",1
M20302614_RB,uul650ktd7,"Affordance Norms_MSU_TEX",1,22,2022-11-11T21:37:34+00:00,6.8977119922638,79,"updated stim.csv",Version79.csv,"Version 79","List 79",hedgehog,,2341,5.043478261,1275,0.684172196,2342,BOI,-,-,"Please name all of the ways you could use this object. Keep in mind that one object can have many uses. Separate your responses with a comma.",,y,6576,,,3373,4286,,,,pet,1
M20302614_RB,uul650ktd7,"Affordance Norms_MSU_TEX",1,23,2022-11-11T21:37:43+00:00,9.7598550319672,79,"updated stim.csv",Version79.csv,"Version 79","List 79",barbecue,,2343,4.833333333,146,0.033897424,2344,BOI,-,-,"Please name all of the ways you could use this object. Keep in mind that one object can have many uses. Separate your responses with a comma.",,y,9454,,,7452,8089,,,,eat,1
M20302614_RB,uul650ktd7,"Affordance Norms_MSU_TEX",1,24,2022-11-11T21:37:51+00:00,8.0607650279999,79,"updated stim.csv",Version79.csv,"Version 79","List 79",sandalwood,,2353,4.36,2232,0.705640103,2354,BOI,-,-,"Please name all of the ways you could use this object. Keep in mind that one object can have many uses. Separate your responses with a comma.",,y,7758,,,4055,6360,,,,candle,1
M20302614_RB,uul650ktd7,"Affordance Norms_MSU_TEX",1,25,2022-11-11T21:38:11+00:00,19.953529834747,79,"updated stim.csv",Version79.csv,"Version 79","List 79",deer,,2366,4.416666667,765,0.832559416,2367,BOI,-,-,"Please name all of the ways you could use this object. Keep in mind that one object can have many uses. Separate your responses with a comma.",,y,19647,,,8931,18476,,,,"hunt, eat, pet",1
M20302614_RB,uul650ktd7,"Affordance Norms_MSU_TEX",1,26,2022-11-11T21:38:24+00:00,12.362406015396,79,"updated stim.csv",Version79.csv,"Version 79","List 79",kitchenette,,2368,4.782608696,1426,0.182636876,2369,BOI,-,-,"Please name all of the ways you could use this object. Keep in mind that one object can have many uses. Separate your responses with a comma.",,y,12046,,,8930,10741,,,,cooking,1
M20302614_RB,uul650ktd7,"Affordance Norms_MSU_TEX",1,27,2022-11-11T21:38:48+00:00,24.798521995544,79,"updated stim.csv",Version79.csv,"Version 79","List 79",footpath,,2351,4.592592593,1037,0.252720376,2352,BOI,-,-,"Please name all of the ways you could use this object. Keep in mind that one object can have many uses. Separate your responses with a comma.",,y,24489,,,19903,22972,,,,walking,1
M20302614_RB,uul650ktd7,"Affordance Norms_MSU_TEX",1,28,2022-11-11T21:39:32+00:00,43.041171073914,79,"updated stim.csv",Version79.csv,"Version 79","List 79",spider,,2358,5.32,2472,0.30204139,2359,BOI,-,-,"Please name all of the ways you could use this object. Keep in mind that one object can have many uses. Separate your responses with a comma.",,y,42584,,,6171,41430,,,,decoration,1
M20302614_RB,uul650ktd7,"Affordance Norms_MSU_TEX",1,29,2022-11-11T21:39:38+00:00,6.9331269264221,79,"updated stim.csv",Version79.csv,"Version 79","List 79",headgear,,2370,5.625,1266,0.922886061,2371,BOI,-,-,"Please name all of the ways you could use this object. Keep in mind that one object can have many uses. Separate your responses with a comma.",,y,6714,,,2287,5529,,,,protection,1
M20302614_RB,uul650ktd7,"Affordance Norms_MSU_TEX",1,30,2022-11-11T21:39:45+00:00,6.0839140415192,79,"updated stim.csv",Version79.csv,"Version 79","List 79",torch,,2360,4.851851852,2737,0.49415984,2361,BOI,-,-,"Please name all of the ways you could use this object. Keep in mind that one object can have many uses. Separate your responses with a comma.",,y,5797,,,1987,4020,,,,lighting,1
M20302614_RB,uul650ktd7,"Affordance Norms_MSU_TEX",1,31,2022-11-11T21:39:50+00:00,5.1314940452576,79,"updated stim.csv",Version79.csv,"Version 79","List 79",saw,,2348,4.76,2253,0.618102518,2349,BOI,-,-,"Please name all of the ways you could use this object. Keep in mind that one object can have many uses. Separate your responses with a comma.",,y,4891,,,1744,3622,,,,cutting,1
M20302614_RB,uul650ktd7,"Affordance Norms_MSU_TEX",1,32,2022-11-11T21:39:56+00:00,6.5075271129608,79,"updated stim.csv",Version79.csv,"Version 79","List 79",peroxide,,2346,4.555555556,1928,0.322641679,2347,BOI,-,-,"Please name all of the ways you could use this object. Keep in mind that one object can have many uses. Separate your responses with a comma.",,y,6202,,,2410,5004,,,,cleaning,1
M20302614_RB,uul650ktd7,"Affordance Norms_MSU_TEX",1,33,2022-11-11T21:40:16+00:00,20.003291845322,79,"updated stim.csv",Version79.csv,"Version 79","List 79",lump,,2354,4.5,1558,0.915296396,2355,BOI,-,-,"Please name all of the ways you could use this object. Keep in mind that one object can have many uses. Separate your responses with a comma.",,y,19686,,,14435,18354,,,,squeezing,1
M20302614_RB,uul650ktd7,"Affordance Norms_MSU_TEX",1,34,2022-11-11T21:40:23+00:00,6.4208040237427,79,"updated stim.csv",Version79.csv,"Version 79","List 79",bag,,2359,6.038461538,121,0.897114607,2360,BOI,-,-,"Please name all of the ways you could use this object. Keep in mind that one object can have many uses. Separate your responses with a comma.",,y,6216,,,1897,5009,,,,carrying,1
M20302614_RB,uul650ktd7,"Affordance Norms_MSU_TEX",1,35,2022-11-11T21:40:44+00:00,20.926090955734,79,"updated stim.csv",Version79.csv,"Version 79","List 79",knee,,2362,5.818181818,1433,0.735850028,2363,BOI,-,-,"Please name all of the ways you could use this object. Keep in mind that one object can have many uses. Separate your responses with a comma.",,y,20615,,,3388,19326,,,,"kneel, walking, dancing, jumping",1
M20302614_RB,uul650ktd7,"Affordance Norms_MSU_TEX",1,36,2022-11-11T21:41:04+00:00,20.879139184952,79,"updated stim.csv",Version79.csv,"Version 79","List 79",peel,,2361,4.458333333,1905,0.459372387,2362,BOI,-,-,"Please name all of the ways you could use this object. Keep in mind that one object can have many uses. Separate your responses with a comma.",,y,20654,,,13279,19402,,,,zesting,1
M20302614_RB,uul650ktd7,"Affordance Norms_MSU_TEX",1,37,2022-11-11T21:41:18+00:00,13.909248828888,79,"updated stim.csv",Version79.csv,"Version 79","List 79",laboratory,,2342,4.739130435,1443,0.615111828,2343,BOI,-,-,"Please name all of the ways you could use this object. Keep in mind that one object can have many uses. Separate your responses with a comma.",,y,13691,,,3033,12141,,,,experiments,1
M20302614_RB,uul650ktd7,"Affordance Norms_MSU_TEX",1,38,2022-11-11T21:41:31+00:00,12.571949005127,79,"updated stim.csv",Version79.csv,"Version 79","List 79",doorman,,2349,4.68,826,0.616558737,2350,BOI,-,-,"Please name all of the ways you could use this object. Keep in mind that one object can have many uses. Separate your responses with a comma.",,y,12353,,,6090,11392,,,,"carry stuff",1
M20302614_RB,uul650ktd7,"Affordance Norms_MSU_TEX",1,39,2022-11-11T21:41:52+00:00,21.115621089935,79,"updated stim.csv",Version79.csv,"Version 79","List 79",leggings,,2344,6.130434783,1487,0.513087252,2345,BOI,-,-,"Please name all of the ways you could use this object. Keep in mind that one object can have many uses. Separate your responses with a comma.",,y,20887,,,3312,19611,,,,"clothes, exercise clothes, warmth",1
M20302614_RB,uul650ktd7,"Affordance Norms_MSU_TEX",1,40,2022-11-11T21:42:01+00:00,8.8092110157013,79,"updated stim.csv",Version79.csv,"Version 79","List 79",tinsel,,2365,4.777777778,2705,0.329362384,2366,BOI,-,-,"Please name all of the ways you could use this object. Keep in mind that one object can have many uses. Separate your responses with a comma.",,y,8599,,,4644,7473,,,,decorations,1
M20302614_RB,uul650ktd7,"Affordance Norms_MSU_TEX",1,41,2022-11-11T21:42:06+00:00,5.1322548389435,79,"updated stim.csv",Version79.csv,"Version 79","List 79",,,,,,,0,Instruct,,,"You will now be asked a few questions about your experience today.",,"Instruct 4",4878,,,-1,-1,,,,,1
