Username,ID,ExperimentName,Session,Trial,Date,TimeDif,"Condition Number","Stimuli File","Order File","Condition Description","Condition Notes",Stimuli*Cue,Stimuli*Answer,Stimuli*Shuffle,"Stimuli*Stimuli Notes",Stimuli*Value,Stimuli*Rand,Procedure*Item,"Procedure*Trial Type","Procedure*Max Time","Procedure*Min Time",Procedure*Text,"Procedure*Procedure Notes",Procedure*Shuffle,Response*RT,Response*Response,Response*Accuracy,Response*RTfirst,Response*RTlast,Response*strictAcc,Response*lenientAcc,Response*focus,Response*JOL,Response*Focus
KRR,f7q5vgyakt,"Affordance Norms_MSU_TEX",1,1,2022-10-18T05:15:41+00:00,15.493405103683,29,"updated stim.csv",Version29.csv,"Version 29","List 29",,,,,,,0,Instruct,-,10,"In this section, you will be presented with a series of objects. Please name as many possible uses for this object as you can think of by typing them in the box below each object.",,Instruct1,15268,,,-1,-1,,,,,1
KRR,f7q5vgyakt,"Affordance Norms_MSU_TEX",1,2,2022-10-18T05:15:53+00:00,11.628319978714,29,"updated stim.csv",Version29.csv,"Version 29","List 29",,,,,,,0,Instruct,-,10,"Please keep in mind that a single object will have more than one use. For example, a ball can be thrown or can be bounced or even stepped on. When listing multiple uses for one object, please separate each use with a comma (i.e., thrown, bounced, stepped on)",,Instruct2,11301,,,-1,-1,,,,,1
KRR,f7q5vgyakt,"Affordance Norms_MSU_TEX",1,3,2022-10-18T05:16:03+00:00,10.304656028748,29,"updated stim.csv",Version29.csv,"Version 29","List 29",,,,,,,0,Instruct,-,-,"Before starting the experiment, you will complete a short practice sesstion. Press ENTER when you are ready to begin.",,Instruct3,9994,,,-1,-1,,,,,1
KRR,f7q5vgyakt,"Affordance Norms_MSU_TEX",1,4,2022-10-18T05:17:21+00:00,77.940980911255,29,"updated stim.csv",Version29.csv,"Version 29","List 29",grain,,3004,5.217391304,1143,0.226863762,3005,BOI,-,-,"Please name all of the ways you could use this object. Keep in mind that one object can have many uses. Separate your responses with a comma.",,n,77554,,,31734,75533,,,,"food, ingredients, animal food",0.886
KRR,f7q5vgyakt,"Affordance Norms_MSU_TEX",1,5,2022-10-18T05:18:27+00:00,65.685235977173,29,"updated stim.csv",Version29.csv,"Version 29","List 29",shortening,,3002,4.92,2358,0.604328482,3003,BOI,-,-,"Please name all of the ways you could use this object. Keep in mind that one object can have many uses. Separate your responses with a comma.",,n,65131,,,62591,64967,,,,baking,0.481
KRR,f7q5vgyakt,"Affordance Norms_MSU_TEX",1,6,2022-10-18T05:19:29+00:00,61.996273040771,29,"updated stim.csv",Version29.csv,"Version 29","List 29",paperwork,,3001,5.625,1866,0.124284162,3002,BOI,-,-,"Please name all of the ways you could use this object. Keep in mind that one object can have many uses. Separate your responses with a comma.",,n,61647,,,13361,58274,,,,"sports physical, parking ticket, taxes, buying a car, ",1
KRR,f7q5vgyakt,"Affordance Norms_MSU_TEX",1,7,2022-10-18T05:19:50+00:00,21.48374414444,29,"updated stim.csv",Version29.csv,"Version 29","List 29",spaghetti,,3003,6,2461,0.090379998,3004,BOI,-,-,"Please name all of the ways you could use this object. Keep in mind that one object can have many uses. Separate your responses with a comma.",,n,21211,,,7372,17504,,,,"build a bridge, arts and crafts, cooking",1
KRR,f7q5vgyakt,"Affordance Norms_MSU_TEX",1,8,2022-10-18T05:21:21+00:00,90.36280798912,29,"updated stim.csv",Version29.csv,"Version 29","List 29",saucer,,3005,5.777777778,2249,0.304808074,3006,BOI,-,-,"Please name all of the ways you could use this object. Keep in mind that one object can have many uses. Separate your responses with a comma.",,n,89892,,,23318,32936,,,,"hold snacks, place a cup, ",0.741
KRR,f7q5vgyakt,"Affordance Norms_MSU_TEX",1,9,2022-10-18T05:21:24+00:00,2.821751832962,29,"updated stim.csv",Version29.csv,"Version 29","List 29",,,,,,,0,Instruct,-,-,"You have completed this section. Press ENTER to continue",,"Instruct 5",2621,,,-1,-1,,,,,1
KRR,f7q5vgyakt,"Affordance Norms_MSU_TEX",1,10,2022-10-18T05:21:26+00:00,2.7457041740417,29,"updated stim.csv",Version29.csv,"Version 29","List 29",,,,,,,0,Instruct,-,-,"You will now start the full experiment. Press ENTER when you are ready to begin.",,,2549,,,-1,-1,,,,,1
KRR,f7q5vgyakt,"Affordance Norms_MSU_TEX",1,11,2022-10-18T05:22:06+00:00,39.491681814194,29,"updated stim.csv",Version29.csv,"Version 29","List 29",puppy,,856,6.25,2104,0.657314439,857,BOI,-,-,"Please name all of the ways you could use this object. Keep in mind that one object can have many uses. Separate your responses with a comma.",,y,39282,,,5162,36156,,,,"play with, emotional support, protection, attack, assistance",1
KRR,f7q5vgyakt,"Affordance Norms_MSU_TEX",1,12,2022-10-18T05:23:14+00:00,67.813063144684,29,"updated stim.csv",Version29.csv,"Version 29","List 29",drawer,,861,6,839,0.020367593,862,BOI,-,-,"Please name all of the ways you could use this object. Keep in mind that one object can have many uses. Separate your responses with a comma.",,y,67052,,,12018,53188,,,,"hold clothing, organize files, hold supplies",0.977
KRR,f7q5vgyakt,"Affordance Norms_MSU_TEX",1,13,2022-10-18T05:24:26+00:00,72.490386962891,29,"updated stim.csv",Version29.csv,"Version 29","List 29",shoelace,,843,6.16,2351,0.491082523,844,BOI,-,-,"Please name all of the ways you could use this object. Keep in mind that one object can have many uses. Separate your responses with a comma.",,y,72063,,,3386,71783,,,,"tie shoes, make a knot, make a keychain, make a bracelet, replacement for hoodie string",0.853
KRR,f7q5vgyakt,"Affordance Norms_MSU_TEX",1,14,2022-10-18T05:24:59+00:00,33.07578086853,29,"updated stim.csv",Version29.csv,"Version 29","List 29",melon,,851,5.681818182,1641,0.714880294,852,BOI,-,-,"Please name all of the ways you could use this object. Keep in mind that one object can have many uses. Separate your responses with a comma.",,y,32848,,,2734,30003,,,,"food, hold drinks, make juice, target practice",1
KRR,f7q5vgyakt,"Affordance Norms_MSU_TEX",1,15,2022-10-18T05:25:32+00:00,32.675584077835,29,"updated stim.csv",Version29.csv,"Version 29","List 29",saffron,,866,4.666666667,2214,0.91541526,867,BOI,-,-,"Please name all of the ways you could use this object. Keep in mind that one object can have many uses. Separate your responses with a comma.",,y,32219,,,19158,30925,,,,"seasoning, color food, smelling",0.84
KRR,f7q5vgyakt,"Affordance Norms_MSU_TEX",1,16,2022-10-18T05:26:11+00:00,38.938781023026,29,"updated stim.csv",Version29.csv,"Version 29","List 29",cassette,,863,5.148148148,453,0.47456788,864,BOI,-,-,"Please name all of the ways you could use this object. Keep in mind that one object can have many uses. Separate your responses with a comma.",,y,38702,,,23161,32411,,,,"listen to recordings, make recordings",0.828
KRR,f7q5vgyakt,"Affordance Norms_MSU_TEX",1,17,2022-10-18T05:26:37+00:00,26.317234992981,29,"updated stim.csv",Version29.csv,"Version 29","List 29",dancer,,859,5.090909091,754,0.545210897,860,BOI,-,-,"Please name all of the ways you could use this object. Keep in mind that one object can have many uses. Separate your responses with a comma.",,y,26097,,,10578,25765,,,,"entertainment, bonding",1
KRR,f7q5vgyakt,"Affordance Norms_MSU_TEX",1,18,2022-10-18T05:27:22+00:00,44.953701972961,29,"updated stim.csv",Version29.csv,"Version 29","List 29",marionette,,849,4.333333333,1607,0.239086256,850,BOI,-,-,"Please name all of the ways you could use this object. Keep in mind that one object can have many uses. Separate your responses with a comma.",,y,44717,,,13410,44124,,,,"puppeteering, shows, scaring someone, hobby",0.934
KRR,f7q5vgyakt,"Affordance Norms_MSU_TEX",1,19,2022-10-18T05:28:00+00:00,37.453783988953,29,"updated stim.csv",Version29.csv,"Version 29","List 29",eggbeater,,862,5.96,893,0.11369401,863,BOI,-,-,"Please name all of the ways you could use this object. Keep in mind that one object can have many uses. Separate your responses with a comma.",,y,37239,,,23851,32255,,,,"scramble eggs, whisk batter",0.802
KRR,f7q5vgyakt,"Affordance Norms_MSU_TEX",1,20,2022-10-18T05:28:52+00:00,52.687619924545,29,"updated stim.csv",Version29.csv,"Version 29","List 29",chopsticks,,855,6.391304348,534,0.12111344,856,BOI,-,-,"Please name all of the ways you could use this object. Keep in mind that one object can have many uses. Separate your responses with a comma.",,y,52441,,,2266,51642,,,,"pick up food, arts and crafts, skewers, stirrers ",0.86
KRR,f7q5vgyakt,"Affordance Norms_MSU_TEX",1,21,2022-10-18T05:29:10+00:00,17.550751209259,29,"updated stim.csv",Version29.csv,"Version 29","List 29",puppet,,869,5.739130435,2103,0.435409395,870,BOI,-,-,"Please name all of the ways you could use this object. Keep in mind that one object can have many uses. Separate your responses with a comma.",,y,17330,,,4367,17211,,,,"puppeteering, shows, hobby",1
KRR,f7q5vgyakt,"Affordance Norms_MSU_TEX",1,22,2022-10-18T05:29:37+00:00,27.184122800827,29,"updated stim.csv",Version29.csv,"Version 29","List 29",dartboard,,854,5.608695652,759,0.267211371,855,BOI,-,-,"Please name all of the ways you could use this object. Keep in mind that one object can have many uses. Separate your responses with a comma.",,y,26964,,,3519,26755,,,,"aim practice, fun with friends, competition, settle arguments",1
KRR,f7q5vgyakt,"Affordance Norms_MSU_TEX",1,23,2022-10-18T05:29:54+00:00,16.769035100937,29,"updated stim.csv",Version29.csv,"Version 29","List 29",drawers,,865,5.869565217,840,0.225533231,866,BOI,-,-,"Please name all of the ways you could use this object. Keep in mind that one object can have many uses. Separate your responses with a comma.",,y,16533,,,4613,16371,,,,"hold clothes, organize files, hold supplies",1
KRR,f7q5vgyakt,"Affordance Norms_MSU_TEX",1,24,2022-10-18T05:30:58+00:00,64.527031898499,29,"updated stim.csv",Version29.csv,"Version 29","List 29",cubical,,848,4.36,722,0.555956074,849,BOI,-,-,"Please name all of the ways you could use this object. Keep in mind that one object can have many uses. Separate your responses with a comma.",,y,64147,,,27146,60295,,,,"private work, being an accountant",0.745
KRR,f7q5vgyakt,"Affordance Norms_MSU_TEX",1,25,2022-10-18T05:31:17+00:00,18.768795013428,29,"updated stim.csv",Version29.csv,"Version 29","List 29",chinchilla,,846,4.925925926,528,0.932461993,847,BOI,-,-,"Please name all of the ways you could use this object. Keep in mind that one object can have many uses. Separate your responses with a comma.",,y,18528,,,11282,18322,,,,"play with, emotional support, passing time",0.75
KRR,f7q5vgyakt,"Affordance Norms_MSU_TEX",1,26,2022-10-18T05:31:42+00:00,25.047832012177,29,"updated stim.csv",Version29.csv,"Version 29","List 29",shoestring,,845,6.36,2352,0.103386452,846,BOI,-,-,"Please name all of the ways you could use this object. Keep in mind that one object can have many uses. Separate your responses with a comma.",,y,24811,,,3311,24664,,,,"tie your shoes, make a bracelet, make a key chain, arts and crafts, replacement hoodiestring",1
KRR,f7q5vgyakt,"Affordance Norms_MSU_TEX",1,27,2022-10-18T05:32:09+00:00,26.52438211441,29,"updated stim.csv",Version29.csv,"Version 29","List 29",ball,,847,6.608695652,128,0.22268434,848,BOI,-,-,"Please name all of the ways you could use this object. Keep in mind that one object can have many uses. Separate your responses with a comma.",,y,26282,,,1493,26033,,,,"bounce it, step on it, roll it, play fetch, play basketball, play tennis, play football, play soccer, play baseball",1
KRR,f7q5vgyakt,"Affordance Norms_MSU_TEX",1,28,2022-10-18T05:32:49+00:00,40.601618051529,29,"updated stim.csv",Version29.csv,"Version 29","List 29",canvas,,857,5.590909091,420,0.874071933,858,BOI,-,-,"Please name all of the ways you could use this object. Keep in mind that one object can have many uses. Separate your responses with a comma.",,y,40352,,,1509,40253,,,,"paint, make models",0.866
KRR,f7q5vgyakt,"Affordance Norms_MSU_TEX",1,29,2022-10-18T05:33:05+00:00,15.819809913635,29,"updated stim.csv",Version29.csv,"Version 29","List 29",horsefly,,850,4.32,1313,0.128854278,851,BOI,-,-,"Please name all of the ways you could use this object. Keep in mind that one object can have many uses. Separate your responses with a comma.",,y,15609,,,12828,13977,,,,kill,0.762
KRR,f7q5vgyakt,"Affordance Norms_MSU_TEX",1,30,2022-10-18T05:33:30+00:00,24.687737941742,29,"updated stim.csv",Version29.csv,"Version 29","List 29",recruiter,,841,4.347826087,2149,0.094929085,842,BOI,-,-,"Please name all of the ways you could use this object. Keep in mind that one object can have many uses. Separate your responses with a comma.",,y,24386,,,11925,23750,,,,"scout high school games, scout workers",0.9
KRR,f7q5vgyakt,"Affordance Norms_MSU_TEX",1,31,2022-10-18T05:33:51+00:00,21.147133111954,29,"updated stim.csv",Version29.csv,"Version 29","List 29",kiwi,,844,6.08,1430,0.639617568,845,BOI,-,-,"Please name all of the ways you could use this object. Keep in mind that one object can have many uses. Separate your responses with a comma.",,y,20934,,,1299,20751,,,,"eat, make juice, target practice, cut in half, use as ingredient",1
KRR,f7q5vgyakt,"Affordance Norms_MSU_TEX",1,32,2022-10-18T05:34:46+00:00,54.70391201973,29,"updated stim.csv",Version29.csv,"Version 29","List 29",whiskers,,842,4.625,2929,0.016400371,843,BOI,-,-,"Please name all of the ways you could use this object. Keep in mind that one object can have many uses. Separate your responses with a comma.",,y,54481,,,22366,52527,,,,sensory,0.625
KRR,f7q5vgyakt,"Affordance Norms_MSU_TEX",1,33,2022-10-18T05:35:35+00:00,49.06222486496,29,"updated stim.csv",Version29.csv,"Version 29","List 29",reefer,,853,4.52173913,2151,0.532492067,854,BOI,-,-,"Please name all of the ways you could use this object. Keep in mind that one object can have many uses. Separate your responses with a comma.",,y,49011,,,43745,48878,,,,"transport, cooling",0.481
KRR,f7q5vgyakt,"Affordance Norms_MSU_TEX",1,34,2022-10-18T05:35:57+00:00,22.692449092865,29,"updated stim.csv",Version29.csv,"Version 29","List 29",wool,,870,5.392857143,2967,0.698769358,871,BOI,-,-,"Please name all of the ways you could use this object. Keep in mind that one object can have many uses. Separate your responses with a comma.",,y,22452,,,1317,16578,,,,"make clothes, make a bed, arts and crafts, knitting",1
KRR,f7q5vgyakt,"Affordance Norms_MSU_TEX",1,35,2022-10-18T05:36:04+00:00,7.1228320598602,29,"updated stim.csv",Version29.csv,"Version 29","List 29",peacock,,852,4.8,1892,0.379182657,853,BOI,-,-,"Please name all of the ways you could use this object. Keep in mind that one object can have many uses. Separate your responses with a comma.",,y,6773,,,3118,4557,,,,admire,1
KRR,f7q5vgyakt,"Affordance Norms_MSU_TEX",1,36,2022-10-18T05:36:13+00:00,8.9517138004303,29,"updated stim.csv",Version29.csv,"Version 29","List 29",seaplane,,858,4.333333333,2297,0.432682347,859,BOI,-,-,"Please name all of the ways you could use this object. Keep in mind that one object can have many uses. Separate your responses with a comma.",,y,8627,,,2671,8329,,,,"transportation, fun, admiration",1
KRR,f7q5vgyakt,"Affordance Norms_MSU_TEX",1,37,2022-10-18T05:36:28+00:00,14.46687912941,29,"updated stim.csv",Version29.csv,"Version 29","List 29",stepchild,,860,5.04,2524,0.735613852,861,BOI,-,-,"Please name all of the ways you could use this object. Keep in mind that one object can have many uses. Separate your responses with a comma.",,y,14252,,,7765,13693,,,,"bonding time",1
KRR,f7q5vgyakt,"Affordance Norms_MSU_TEX",1,38,2022-10-18T05:36:55+00:00,27.226958990097,29,"updated stim.csv",Version29.csv,"Version 29","List 29",streetwalker,,864,4.84,2566,0.15320214,865,BOI,-,-,"Please name all of the ways you could use this object. Keep in mind that one object can have many uses. Separate your responses with a comma.",,y,27004,,,19438,26908,,,,"entertainment, pleasure",0.743
KRR,f7q5vgyakt,"Affordance Norms_MSU_TEX",1,39,2022-10-18T05:37:24+00:00,28.660881996155,29,"updated stim.csv",Version29.csv,"Version 29","List 29",advisor,,867,4.347826087,16,0.306787272,868,BOI,-,-,"Please name all of the ways you could use this object. Keep in mind that one object can have many uses. Separate your responses with a comma.",,y,28404,,,24537,28229,,,,advice,0.597
KRR,f7q5vgyakt,"Affordance Norms_MSU_TEX",1,40,2022-10-18T05:37:59+00:00,35.116487979889,29,"updated stim.csv",Version29.csv,"Version 29","List 29",loo,,868,4.952380952,1547,0.944259023,869,BOI,-,-,"Please name all of the ways you could use this object. Keep in mind that one object can have many uses. Separate your responses with a comma.",,y,34726,,,10597,29824,,,,"Go pee, defecate ",0.938
KRR,f7q5vgyakt,"Affordance Norms_MSU_TEX",1,41,2022-10-18T05:38:02+00:00,2.6708030700684,29,"updated stim.csv",Version29.csv,"Version 29","List 29",,,,,,,0,Instruct,,,"You will now be asked a few questions about your experience today.",,"Instruct 4",2445,,,-1,-1,,,,,1
