Username,ID,ExperimentName,Session,Trial,Date,TimeDif,"Condition Number","Stimuli File","Order File","Condition Description","Condition Notes",Stimuli*Cue,Stimuli*Answer,Stimuli*Shuffle,"Stimuli*Stimuli Notes",Stimuli*Value,Stimuli*Rand,Procedure*Item,"Procedure*Trial Type","Procedure*Max Time","Procedure*Min Time",Procedure*Text,"Procedure*Procedure Notes",Procedure*Shuffle,Response*RT,Response*Response,Response*Accuracy,Response*RTfirst,Response*RTlast,Response*strictAcc,Response*lenientAcc,Response*focus,Response*JOL,Response*Focus
M20310991,52gy3l2sda,"Affordance Norms_MSU_TEX",1,1,2022-11-29T06:32:08+00:00,11.632319927216,51,"updated stim.csv",Version51.csv,"Version 51","List 51",,,,,,,0,Instruct,-,10,"In this section, you will be presented with a series of objects. Please name as many possible uses for this object as you can think of by typing them in the box below each object.",,Instruct1,11522,,,-1,-1,,,,,1
M20310991,52gy3l2sda,"Affordance Norms_MSU_TEX",1,2,2022-11-29T06:33:17+00:00,69.091634988785,51,"updated stim.csv",Version51.csv,"Version 51","List 51",,,,,,,0,Instruct,-,10,"Please keep in mind that a single object will have more than one use. For example, a ball can be thrown or can be bounced or even stepped on. When listing multiple uses for one object, please separate each use with a comma (i.e., thrown, bounced, stepped on)",,Instruct2,68755,,,-1,-1,,,,,1
M20310991,52gy3l2sda,"Affordance Norms_MSU_TEX",1,3,2022-11-29T06:34:55+00:00,97.900658130646,51,"updated stim.csv",Version51.csv,"Version 51","List 51",,,,,,,0,Instruct,-,-,"Before starting the experiment, you will complete a short practice sesstion. Press ENTER when you are ready to begin.",,Instruct3,97101,,,-1,-1,,,,,1
M20310991,52gy3l2sda,"Affordance Norms_MSU_TEX",1,4,2022-11-29T06:35:39+00:00,44.531445980072,51,"updated stim.csv",Version51.csv,"Version 51","List 51",shortening,,3002,4.92,2358,0.604328482,3003,BOI,-,-,"Please name all of the ways you could use this object. Keep in mind that one object can have many uses. Separate your responses with a comma.",,n,45246,,,42596,44955,,,,Baking,1
M20310991,52gy3l2sda,"Affordance Norms_MSU_TEX",1,5,2022-11-29T06:35:42+00:00,3.1067750453949,51,"updated stim.csv",Version51.csv,"Version 51","List 51",saucer,,3005,5.777777778,2249,0.304808074,3006,BOI,-,-,"Please name all of the ways you could use this object. Keep in mind that one object can have many uses. Separate your responses with a comma.",,n,2713,,,2009,2345,,,,tea,1
M20310991,52gy3l2sda,"Affordance Norms_MSU_TEX",1,6,2022-11-29T06:36:34+00:00,51.686950922012,51,"updated stim.csv",Version51.csv,"Version 51","List 51",spaghetti,,3003,6,2461,0.090379998,3004,BOI,-,-,"Please name all of the ways you could use this object. Keep in mind that one object can have many uses. Separate your responses with a comma.",,n,51439,,,50022,50978,,,,"to eat",1
M20310991,52gy3l2sda,"Affordance Norms_MSU_TEX",1,7,2022-11-29T06:36:46+00:00,11.433089017868,51,"updated stim.csv",Version51.csv,"Version 51","List 51",paperwork,,3001,5.625,1866,0.124284162,3002,BOI,-,-,"Please name all of the ways you could use this object. Keep in mind that one object can have many uses. Separate your responses with a comma.",,n,11258,,,7012,9866,,,,business,1
M20310991,52gy3l2sda,"Affordance Norms_MSU_TEX",1,8,2022-11-29T06:36:51+00:00,4.9616799354553,51,"updated stim.csv",Version51.csv,"Version 51","List 51",grain,,3004,5.217391304,1143,0.226863762,3005,BOI,-,-,"Please name all of the ways you could use this object. Keep in mind that one object can have many uses. Separate your responses with a comma.",,n,4801,,,2207,4601,,,,bread,1
M20310991,52gy3l2sda,"Affordance Norms_MSU_TEX",1,9,2022-11-29T06:36:52+00:00,1.2923240661621,51,"updated stim.csv",Version51.csv,"Version 51","List 51",,,,,,,0,Instruct,-,-,"You have completed this section. Press ENTER to continue",,"Instruct 5",1130,,,-1,-1,,,,,1
M20310991,52gy3l2sda,"Affordance Norms_MSU_TEX",1,10,2022-11-29T06:36:54+00:00,1.9702279567719,51,"updated stim.csv",Version51.csv,"Version 51","List 51",,,,,,,0,Instruct,-,-,"You will now start the full experiment. Press ENTER when you are ready to begin.",,,1795,,,-1,-1,,,,,1
M20310991,52gy3l2sda,"Affordance Norms_MSU_TEX",1,11,2022-11-29T06:37:05+00:00,10.956625938416,51,"updated stim.csv",Version51.csv,"Version 51","List 51",wheelbarrow,,1528,5.5,2922,0.212295551,1529,BOI,-,-,"Please name all of the ways you could use this object. Keep in mind that one object can have many uses. Separate your responses with a comma.",,y,10771,,,7606,10402,,,,"to push people",1
M20310991,52gy3l2sda,"Affordance Norms_MSU_TEX",1,12,2022-11-29T06:40:10+00:00,185.15911197662,51,"updated stim.csv",Version51.csv,"Version 51","List 51",infant,,1512,6.038461538,1353,0.940811184,1513,BOI,-,-,"Please name all of the ways you could use this object. Keep in mind that one object can have many uses. Separate your responses with a comma.",,y,184744,,,183930,184595,,,,nurse,0.954
M20310991,52gy3l2sda,"Affordance Norms_MSU_TEX",1,13,2022-11-29T06:40:18+00:00,7.7307569980621,51,"updated stim.csv",Version51.csv,"Version 51","List 51",policeman,,1511,5.428571429,2022,0.737181731,1512,BOI,-,-,"Please name all of the ways you could use this object. Keep in mind that one object can have many uses. Separate your responses with a comma.",,y,7539,,,5322,7252,,,,safety,1
M20310991,52gy3l2sda,"Affordance Norms_MSU_TEX",1,14,2022-11-29T06:40:20+00:00,2.2514510154724,51,"updated stim.csv",Version51.csv,"Version 51","List 51",sofa,,1526,6.608695652,2443,0.269242736,1527,BOI,-,-,"Please name all of the ways you could use this object. Keep in mind that one object can have many uses. Separate your responses with a comma.",,y,2073,,,1565,1949,,,,sit,1
M20310991,52gy3l2sda,"Affordance Norms_MSU_TEX",1,15,2022-11-29T06:43:06+00:00,165.83460497856,51,"updated stim.csv",Version51.csv,"Version 51","List 51",proprietor,,1520,4.884615385,2076,0.829707526,1521,BOI,-,-,"Please name all of the ways you could use this object. Keep in mind that one object can have many uses. Separate your responses with a comma.",,y,164617,,,162489,164307,,,,money,0.955
M20310991,52gy3l2sda,"Affordance Norms_MSU_TEX",1,16,2022-11-29T06:43:11+00:00,4.7825970649719,51,"updated stim.csv",Version51.csv,"Version 51","List 51",cider,,1509,4.958333333,541,0.87542522,1510,BOI,-,-,"Please name all of the ways you could use this object. Keep in mind that one object can have many uses. Separate your responses with a comma.",,y,4606,,,3534,4201,,,,drink,1
M20310991,52gy3l2sda,"Affordance Norms_MSU_TEX",1,17,2022-11-29T06:43:15+00:00,4.6939089298248,51,"updated stim.csv",Version51.csv,"Version 51","List 51",xylophone,,1503,5.821428571,2986,0.190271809,1504,BOI,-,-,"Please name all of the ways you could use this object. Keep in mind that one object can have many uses. Separate your responses with a comma.",,y,4383,,,2059,4001,,,,play,1
M20310991,52gy3l2sda,"Affordance Norms_MSU_TEX",1,18,2022-11-29T06:44:06+00:00,51.089598178864,51,"updated stim.csv",Version51.csv,"Version 51","List 51",babe,,1508,4.555555556,110,0.699593713,1509,BOI,-,-,"Please name all of the ways you could use this object. Keep in mind that one object can have many uses. Separate your responses with a comma.",,y,50699,,,49261,50148,,,,"to love",1
M20310991,52gy3l2sda,"Affordance Norms_MSU_TEX",1,19,2022-11-29T06:44:14+00:00,7.3551588058472,51,"updated stim.csv",Version51.csv,"Version 51","List 51",blackboard,,1506,5.392857143,228,0.385673173,1507,BOI,-,-,"Please name all of the ways you could use this object. Keep in mind that one object can have many uses. Separate your responses with a comma.",,y,7151,,,3000,6895,,,,"to write on with chalk",1
M20310991,52gy3l2sda,"Affordance Norms_MSU_TEX",1,20,2022-11-29T06:45:33+00:00,79.79211306572,51,"updated stim.csv",Version51.csv,"Version 51","List 51",featherbed,,1516,5.434782609,957,0.522463593,1517,BOI,-,-,"Please name all of the ways you could use this object. Keep in mind that one object can have many uses. Separate your responses with a comma.",,y,79534,,,75860,79503,,,,"to sleep\",1
M20310991,52gy3l2sda,"Affordance Norms_MSU_TEX",1,21,2022-11-29T06:49:55+00:00,261.60360193253,51,"updated stim.csv",Version51.csv,"Version 51","List 51",stepson,,1523,5.304347826,2530,0.024295195,1524,BOI,-,-,"Please name all of the ways you could use this object. Keep in mind that one object can have many uses. Separate your responses with a comma.",,y,261307,,,251051,254461,,,,manipulation,0.962
M20310991,52gy3l2sda,"Affordance Norms_MSU_TEX",1,22,2022-11-29T06:50:03+00:00,8.2339169979095,51,"updated stim.csv",Version51.csv,"Version 51","List 51",key,,1527,6.28,1411,0.685961554,1528,BOI,-,-,"Please name all of the ways you could use this object. Keep in mind that one object can have many uses. Separate your responses with a comma.",,y,7936,,,5041,7807,,,,"to open door",1
M20310991,52gy3l2sda,"Affordance Norms_MSU_TEX",1,23,2022-11-29T06:50:06+00:00,3.2261891365051,51,"updated stim.csv",Version51.csv,"Version 51","List 51",staple,,1515,5.32,2507,0.060624644,1516,BOI,-,-,"Please name all of the ways you could use this object. Keep in mind that one object can have many uses. Separate your responses with a comma.",,y,3063,,,1972,2971,,,,paper,1
M20310991,52gy3l2sda,"Affordance Norms_MSU_TEX",1,24,2022-11-29T06:50:26+00:00,19.710252046585,51,"updated stim.csv",Version51.csv,"Version 51","List 51",girdle,,1507,5.52173913,1107,0.403202861,1508,BOI,-,-,"Please name all of the ways you could use this object. Keep in mind that one object can have many uses. Separate your responses with a comma.",,y,19535,,,4400,6369,,,,wear,1
M20310991,52gy3l2sda,"Affordance Norms_MSU_TEX",1,25,2022-11-29T06:51:15+00:00,48.906431913376,51,"updated stim.csv",Version51.csv,"Version 51","List 51",playwright,,1502,4.28,2005,0.095057385,1503,BOI,-,-,"Please name all of the ways you could use this object. Keep in mind that one object can have many uses. Separate your responses with a comma.",,y,48708,,,43806,48506,,,,"to write plays",1
M20310991,52gy3l2sda,"Affordance Norms_MSU_TEX",1,26,2022-11-29T06:51:24+00:00,8.9913709163666,51,"updated stim.csv",Version51.csv,"Version 51","List 51",chili,,1519,5.291666667,523,0.039859829,1520,BOI,-,-,"Please name all of the ways you could use this object. Keep in mind that one object can have many uses. Separate your responses with a comma.",,y,8806,,,3433,4473,,,,"to eat ",1
M20310991,52gy3l2sda,"Affordance Norms_MSU_TEX",1,27,2022-11-29T06:54:09+00:00,164.73008203506,51,"updated stim.csv",Version51.csv,"Version 51","List 51",sapphire,,1529,5.125,2241,0.188230501,1530,BOI,-,-,"Please name all of the ways you could use this object. Keep in mind that one object can have many uses. Separate your responses with a comma.",,y,164437,,,162175,164151,,,,"to manifest",1
M20310991,52gy3l2sda,"Affordance Norms_MSU_TEX",1,28,2022-11-29T06:54:18+00:00,9.1926131248474,51,"updated stim.csv",Version51.csv,"Version 51","List 51",shaving,,1510,5.535714286,2324,0.097961156,1511,BOI,-,-,"Please name all of the ways you could use this object. Keep in mind that one object can have many uses. Separate your responses with a comma.",,y,8991,,,6389,8726,,,,"to clean",1
M20310991,52gy3l2sda,"Affordance Norms_MSU_TEX",1,29,2022-11-29T06:54:30+00:00,12.448441028595,51,"updated stim.csv",Version51.csv,"Version 51","List 51",glass,,1530,6.12,1110,0.762600674,1531,BOI,-,-,"Please name all of the ways you could use this object. Keep in mind that one object can have many uses. Separate your responses with a comma.",,y,12267,,,5968,12085,,,,"to see",1
M20310991,52gy3l2sda,"Affordance Norms_MSU_TEX",1,30,2022-11-29T06:54:34+00:00,3.9319679737091,51,"updated stim.csv",Version51.csv,"Version 51","List 51",yarn,,1505,6.115384615,2991,0.383242409,1506,BOI,-,-,"Please name all of the ways you could use this object. Keep in mind that one object can have many uses. Separate your responses with a comma.",,y,3723,,,1737,3624,,,,"to knit",1
M20310991,52gy3l2sda,"Affordance Norms_MSU_TEX",1,31,2022-11-29T06:54:46+00:00,11.400394916534,51,"updated stim.csv",Version51.csv,"Version 51","List 51",scapula,,1524,4.684210526,2265,0.345127101,1525,BOI,-,-,"Please name all of the ways you could use this object. Keep in mind that one object can have many uses. Separate your responses with a comma.",,y,11221,,,9902,10879,,,,"to cut",1
M20310991,52gy3l2sda,"Affordance Norms_MSU_TEX",1,32,2022-11-29T06:54:51+00:00,4.9164810180664,51,"updated stim.csv",Version51.csv,"Version 51","List 51",urinal,,1514,5.666666667,2828,0.356268891,1515,BOI,-,-,"Please name all of the ways you could use this object. Keep in mind that one object can have many uses. Separate your responses with a comma.",,y,4737,,,3567,4528,,,,"to piss",1
M20310991,52gy3l2sda,"Affordance Norms_MSU_TEX",1,33,2022-11-29T06:55:52+00:00,61.162343978882,51,"updated stim.csv",Version51.csv,"Version 51","List 51",mayo,,1517,5.956521739,1627,0.0114764,1518,BOI,-,-,"Please name all of the ways you could use this object. Keep in mind that one object can have many uses. Separate your responses with a comma.",,y,60799,,,56046,60448,,,,"to spread, to eat",1
M20310991,52gy3l2sda,"Affordance Norms_MSU_TEX",1,34,2022-11-29T06:58:16+00:00,144.55480909348,51,"updated stim.csv",Version51.csv,"Version 51","List 51",banjo,,1513,6.291666667,141,0.621942115,1514,BOI,-,-,"Please name all of the ways you could use this object. Keep in mind that one object can have many uses. Separate your responses with a comma.",,y,144172,,,142836,143895,,,,"to play",0.974
M20310991,52gy3l2sda,"Affordance Norms_MSU_TEX",1,35,2022-11-29T07:06:14+00:00,477.4967148304,51,"updated stim.csv",Version51.csv,"Version 51","List 51",deliverer,,1521,4.52173913,769,0.488394424,1522,BOI,-,-,"Please name all of the ways you could use this object. Keep in mind that one object can have many uses. Separate your responses with a comma.",,y,476884,,,473622,476610,,,,"deliver mail",0.969
M20310991,52gy3l2sda,"Affordance Norms_MSU_TEX",1,36,2022-11-29T07:06:53+00:00,39.53940820694,51,"updated stim.csv",Version51.csv,"Version 51","List 51",candle,,1501,5.166666667,410,0.051390084,1502,BOI,-,-,"Please name all of the ways you could use this object. Keep in mind that one object can have many uses. Separate your responses with a comma.",,y,39359,,,37938,38948,,,,light,0.59
M20310991,52gy3l2sda,"Affordance Norms_MSU_TEX",1,37,2022-11-29T07:08:26+00:00,92.988176822662,51,"updated stim.csv",Version51.csv,"Version 51","List 51",poet,,1518,4.565217391,2017,0.114446289,1519,BOI,-,-,"Please name all of the ways you could use this object. Keep in mind that one object can have many uses. Separate your responses with a comma.",,y,92572,,,88960,92316,,,,"writes poems",1
M20310991,52gy3l2sda,"Affordance Norms_MSU_TEX",1,38,2022-11-29T07:08:31+00:00,4.6132590770721,51,"updated stim.csv",Version51.csv,"Version 51","List 51",cabdriver,,1504,5.12,387,0.939948613,1505,BOI,-,-,"Please name all of the ways you could use this object. Keep in mind that one object can have many uses. Separate your responses with a comma.",,y,4426,,,2021,4243,,,,"drives cabs",1
M20310991,52gy3l2sda,"Affordance Norms_MSU_TEX",1,39,2022-11-29T07:08:45+00:00,13.77015709877,51,"updated stim.csv",Version51.csv,"Version 51","List 51",onion,,1525,5.476190476,1809,0.403393639,1526,BOI,-,-,"Please name all of the ways you could use this object. Keep in mind that one object can have many uses. Separate your responses with a comma.",,y,13593,,,1931,5504,,,,"cry, cook",1
M20310991,52gy3l2sda,"Affordance Norms_MSU_TEX",1,40,2022-11-29T07:08:49+00:00,3.9338979721069,51,"updated stim.csv",Version51.csv,"Version 51","List 51",muffin,,1522,5.875,1711,0.130783282,1523,BOI,-,-,"Please name all of the ways you could use this object. Keep in mind that one object can have many uses. Separate your responses with a comma.",,y,3742,,,2398,3435,,,,"to eat",1
M20310991,52gy3l2sda,"Affordance Norms_MSU_TEX",1,41,2022-11-29T07:08:52+00:00,3.0156857967377,51,"updated stim.csv",Version51.csv,"Version 51","List 51",,,,,,,0,Instruct,,,"You will now be asked a few questions about your experience today.",,"Instruct 4",2822,,,-1,-1,,,,,1
