Username,ID,ExperimentName,Session,Trial,Date,TimeDif,"Condition Number","Stimuli File","Order File","Condition Description","Condition Notes",Stimuli*Cue,Stimuli*Answer,Stimuli*Shuffle,"Stimuli*Stimuli Notes",Stimuli*Value,Stimuli*Rand,Procedure*Item,"Procedure*Trial Type","Procedure*Max Time","Procedure*Min Time",Procedure*Text,"Procedure*Procedure Notes",Procedure*Shuffle,Response*RT,Response*Response,Response*Accuracy,Response*RTfirst,Response*RTlast,Response*strictAcc,Response*lenientAcc,Response*focus,Response*JOL,Response*Focus
M20316883ZS,cuw1is00b8,"Affordance Norms_MSU_TEX",1,1,2022-11-16T01:11:39+00:00,13.179558992386,92,"updated stim.csv",Version92.csv,"Version 92","List 92",,,,,,,0,Instruct,-,10,"In this section, you will be presented with a series of objects. Please name as many possible uses for this object as you can think of by typing them in the box below each object.",,Instruct1,12957,,,-1,-1,,,,,1
M20316883ZS,cuw1is00b8,"Affordance Norms_MSU_TEX",1,2,2022-11-16T01:11:51+00:00,12.337847948074,92,"updated stim.csv",Version92.csv,"Version 92","List 92",,,,,,,0,Instruct,-,10,"Please keep in mind that a single object will have more than one use. For example, a ball can be thrown or can be bounced or even stepped on. When listing multiple uses for one object, please separate each use with a comma (i.e., thrown, bounced, stepped on)",,Instruct2,12046,,,-1,-1,,,,,1
M20316883ZS,cuw1is00b8,"Affordance Norms_MSU_TEX",1,3,2022-11-16T01:11:56+00:00,4.8481512069702,92,"updated stim.csv",Version92.csv,"Version 92","List 92",,,,,,,0,Instruct,-,-,"Before starting the experiment, you will complete a short practice sesstion. Press ENTER when you are ready to begin.",,Instruct3,4559,,,-1,-1,,,,,1
M20316883ZS,cuw1is00b8,"Affordance Norms_MSU_TEX",1,4,2022-11-16T01:12:13+00:00,17.080976009369,92,"updated stim.csv",Version92.csv,"Version 92","List 92",grain,,3004,5.217391304,1143,0.226863762,3005,BOI,-,-,"Please name all of the ways you could use this object. Keep in mind that one object can have many uses. Separate your responses with a comma.",,n,16785,,,5214,11580,,,,"cooking, planting",1
M20316883ZS,cuw1is00b8,"Affordance Norms_MSU_TEX",1,5,2022-11-16T01:12:26+00:00,13.098707914352,92,"updated stim.csv",Version92.csv,"Version 92","List 92",spaghetti,,3003,6,2461,0.090379998,3004,BOI,-,-,"Please name all of the ways you could use this object. Keep in mind that one object can have many uses. Separate your responses with a comma.",,n,12806,,,1432,2750,,,,eating,1
M20316883ZS,cuw1is00b8,"Affordance Norms_MSU_TEX",1,6,2022-11-16T01:13:03+00:00,36.123416900635,92,"updated stim.csv",Version92.csv,"Version 92","List 92",paperwork,,3001,5.625,1866,0.124284162,3002,BOI,-,-,"Please name all of the ways you could use this object. Keep in mind that one object can have many uses. Separate your responses with a comma.",,n,35834,,,2871,35191,,,,"homework, taking notes, filling out information, work",1
M20316883ZS,cuw1is00b8,"Affordance Norms_MSU_TEX",1,7,2022-11-16T01:13:12+00:00,9.3563389778137,92,"updated stim.csv",Version92.csv,"Version 92","List 92",shortening,,3002,4.92,2358,0.604328482,3003,BOI,-,-,"Please name all of the ways you could use this object. Keep in mind that one object can have many uses. Separate your responses with a comma.",,n,9075,,,7429,8639,,,,cutting,1
M20316883ZS,cuw1is00b8,"Affordance Norms_MSU_TEX",1,8,2022-11-16T01:13:19+00:00,6.9624199867249,92,"updated stim.csv",Version92.csv,"Version 92","List 92",saucer,,3005,5.777777778,2249,0.304808074,3006,BOI,-,-,"Please name all of the ways you could use this object. Keep in mind that one object can have many uses. Separate your responses with a comma.",,n,6695,,,2152,6492,,,,"cooking, crafting",1
M20316883ZS,cuw1is00b8,"Affordance Norms_MSU_TEX",1,9,2022-11-16T01:13:21+00:00,1.7664630413055,92,"updated stim.csv",Version92.csv,"Version 92","List 92",,,,,,,0,Instruct,-,-,"You have completed this section. Press ENTER to continue",,"Instruct 5",1602,,,-1,-1,,,,,1
M20316883ZS,cuw1is00b8,"Affordance Norms_MSU_TEX",1,10,2022-11-16T01:13:23+00:00,1.9976131916046,92,"updated stim.csv",Version92.csv,"Version 92","List 92",,,,,,,0,Instruct,-,-,"You will now start the full experiment. Press ENTER when you are ready to begin.",,,1837,,,-1,-1,,,,,1
M20316883ZS,cuw1is00b8,"Affordance Norms_MSU_TEX",1,11,2022-11-16T01:13:33+00:00,10.279082775116,92,"updated stim.csv",Version92.csv,"Version 92","List 92",rawhide,,2733,4.541666667,2141,0.992980546,2734,BOI,-,-,"Please name all of the ways you could use this object. Keep in mind that one object can have many uses. Separate your responses with a comma.",,y,10003,,,-1,-1,,,,,1
M20316883ZS,cuw1is00b8,"Affordance Norms_MSU_TEX",1,12,2022-11-16T01:13:48+00:00,14.619558095932,92,"updated stim.csv",Version92.csv,"Version 92","List 92",bill,,2735,5.111111111,214,0.182223817,2736,BOI,-,-,"Please name all of the ways you could use this object. Keep in mind that one object can have many uses. Separate your responses with a comma.",,y,14337,,,3935,13687,,,,"pay, see what you bought",1
M20316883ZS,cuw1is00b8,"Affordance Norms_MSU_TEX",1,13,2022-11-16T01:14:19+00:00,31.603862047195,92,"updated stim.csv",Version92.csv,"Version 92","List 92",torso,,2739,5.64,2739,0.109305249,2740,BOI,-,-,"Please name all of the ways you could use this object. Keep in mind that one object can have many uses. Separate your responses with a comma.",,y,31135,,,4485,30666,,,,"eating, digesting, kissing, working out",1
M20316883ZS,cuw1is00b8,"Affordance Norms_MSU_TEX",1,14,2022-11-16T01:14:27+00:00,8.2332539558411,92,"updated stim.csv",Version92.csv,"Version 92","List 92",newsprint,,2752,4.260869565,1762,0.324228274,2753,BOI,-,-,"Please name all of the ways you could use this object. Keep in mind that one object can have many uses. Separate your responses with a comma.",,y,7954,,,1598,7311,,,,"reading, knowing information",1
M20316883ZS,cuw1is00b8,"Affordance Norms_MSU_TEX",1,15,2022-11-16T01:14:31+00:00,3.7072598934174,92,"updated stim.csv",Version92.csv,"Version 92","List 92",vacuum,,2738,5.291666667,2831,0.217079292,2739,BOI,-,-,"Please name all of the ways you could use this object. Keep in mind that one object can have many uses. Separate your responses with a comma.",,y,3542,,,1655,2842,,,,"cleaning ",1
M20316883ZS,cuw1is00b8,"Affordance Norms_MSU_TEX",1,16,2022-11-16T01:14:39+00:00,7.9676330089569,92,"updated stim.csv",Version92.csv,"Version 92","List 92",tissue,,2759,5.72,2707,0.79838115,2760,BOI,-,-,"Please name all of the ways you could use this object. Keep in mind that one object can have many uses. Separate your responses with a comma.",,y,7691,,,1907,7496,,,,"wiping your nose, cleaning",1
M20316883ZS,cuw1is00b8,"Affordance Norms_MSU_TEX",1,17,2022-11-16T01:14:50+00:00,10.833302021027,92,"updated stim.csv",Version92.csv,"Version 92","List 92",airplane,,2750,4.625,22,0.539121628,2751,BOI,-,-,"Please name all of the ways you could use this object. Keep in mind that one object can have many uses. Separate your responses with a comma.",,y,10546,,,2828,9802,,,,"traveling, working, flying ",1
M20316883ZS,cuw1is00b8,"Affordance Norms_MSU_TEX",1,18,2022-11-16T01:15:28+00:00,38.52353811264,92,"updated stim.csv",Version92.csv,"Version 92","List 92",spokesman,,2734,4.375,2479,0.399647674,2735,BOI,-,-,"Please name all of the ways you could use this object. Keep in mind that one object can have many uses. Separate your responses with a comma.",,y,38250,,,31438,37700,,,,"sell things, give speeches",1
M20316883ZS,cuw1is00b8,"Affordance Norms_MSU_TEX",1,19,2022-11-16T01:15:53+00:00,25.004925012589,92,"updated stim.csv",Version92.csv,"Version 92","List 92",padding,,2742,4.925925926,1841,0.414513499,2743,BOI,-,-,"Please name all of the ways you could use this object. Keep in mind that one object can have many uses. Separate your responses with a comma.",,y,23646,,,5124,23415,,,,"to not hurt yourself when you fall, make a mattress, make clothes",1
M20316883ZS,cuw1is00b8,"Affordance Norms_MSU_TEX",1,20,2022-11-16T01:15:59+00:00,5.9978890419006,92,"updated stim.csv",Version92.csv,"Version 92","List 92",poker,,2745,4.590909091,2019,0.251545465,2746,BOI,-,-,"Please name all of the ways you could use this object. Keep in mind that one object can have many uses. Separate your responses with a comma.",,y,5688,,,2050,5411,,,,"play, win money ",1
M20316883ZS,cuw1is00b8,"Affordance Norms_MSU_TEX",1,21,2022-11-16T01:16:06+00:00,6.0863559246063,92,"updated stim.csv",Version92.csv,"Version 92","List 92",basil,,2736,5.916666667,160,0.041453571,2737,BOI,-,-,"Please name all of the ways you could use this object. Keep in mind that one object can have many uses. Separate your responses with a comma.",,y,5800,,,1766,5567,,,,"cooking, planting",1
M20316883ZS,cuw1is00b8,"Affordance Norms_MSU_TEX",1,22,2022-11-16T01:16:12+00:00,6.2008230686188,92,"updated stim.csv",Version92.csv,"Version 92","List 92",mule,,2743,4.318181818,1716,0.264178826,2744,BOI,-,-,"Please name all of the ways you could use this object. Keep in mind that one object can have many uses. Separate your responses with a comma.",,y,5918,,,3665,4762,,,,"look at",1
M20316883ZS,cuw1is00b8,"Affordance Norms_MSU_TEX",1,23,2022-11-16T01:16:18+00:00,6.0531589984894,92,"updated stim.csv",Version92.csv,"Version 92","List 92",typewriter,,2731,5.592592593,2814,0.066843696,2732,BOI,-,-,"Please name all of the ways you could use this object. Keep in mind that one object can have many uses. Separate your responses with a comma.",,y,5769,,,2272,4970,,,,"write stories ",1
M20316883ZS,cuw1is00b8,"Affordance Norms_MSU_TEX",1,24,2022-11-16T01:16:21+00:00,3.4752418994904,92,"updated stim.csv",Version92.csv,"Version 92","List 92",garnets,,2751,4.65,1082,0.45457956,2752,BOI,-,-,"Please name all of the ways you could use this object. Keep in mind that one object can have many uses. Separate your responses with a comma.",,y,3302,,,2380,3045,,,,wear,1
M20316883ZS,cuw1is00b8,"Affordance Norms_MSU_TEX",1,25,2022-11-16T01:16:35+00:00,13.950364112854,92,"updated stim.csv",Version92.csv,"Version 92","List 92",teahouse,,2737,4.347826087,2645,0.253002246,2738,BOI,-,-,"Please name all of the ways you could use this object. Keep in mind that one object can have many uses. Separate your responses with a comma.",,y,13660,,,5566,13460,,,,"to play, drink tea with friends ",1
M20316883ZS,cuw1is00b8,"Affordance Norms_MSU_TEX",1,26,2022-11-16T01:16:44+00:00,8.9526588916779,92,"updated stim.csv",Version92.csv,"Version 92","List 92",cannonball,,2755,4.304347826,416,0.112743857,2756,BOI,-,-,"Please name all of the ways you could use this object. Keep in mind that one object can have many uses. Separate your responses with a comma.",,y,8652,,,2330,8343,,,,"shoot pirates, look at",1
M20316883ZS,cuw1is00b8,"Affordance Norms_MSU_TEX",1,27,2022-11-16T01:16:48+00:00,4.1077411174774,92,"updated stim.csv",Version92.csv,"Version 92","List 92",sangria,,2756,4.863636364,2239,0.271380112,2757,BOI,-,-,"Please name all of the ways you could use this object. Keep in mind that one object can have many uses. Separate your responses with a comma.",,y,3951,,,2931,3684,,,,drink,1
M20316883ZS,cuw1is00b8,"Affordance Norms_MSU_TEX",1,28,2022-11-16T01:17:00+00:00,11.232172012329,92,"updated stim.csv",Version92.csv,"Version 92","List 92",screen,,2749,5.041666667,2285,0.449651764,2750,BOI,-,-,"Please name all of the ways you could use this object. Keep in mind that one object can have many uses. Separate your responses with a comma.",,y,10942,,,3868,10686,,,,"show things, play video games ",1
M20316883ZS,cuw1is00b8,"Affordance Norms_MSU_TEX",1,29,2022-11-16T01:17:14+00:00,14.836867809296,92,"updated stim.csv",Version92.csv,"Version 92","List 92",zipper,,2740,6.08,2999,0.091808488,2741,BOI,-,-,"Please name all of the ways you could use this object. Keep in mind that one object can have many uses. Separate your responses with a comma.",,y,14540,,,2064,11502,,,,"zip up jacket, close a bag",1
M20316883ZS,cuw1is00b8,"Affordance Norms_MSU_TEX",1,30,2022-11-16T01:17:26+00:00,11.329522132874,92,"updated stim.csv",Version92.csv,"Version 92","List 92",wife,,2746,6.357142857,2934,0.301062412,2747,BOI,-,-,"Please name all of the ways you could use this object. Keep in mind that one object can have many uses. Separate your responses with a comma.",,y,11008,,,2618,9895,,,,"have kids with, love, best friend ",1
M20316883ZS,cuw1is00b8,"Affordance Norms_MSU_TEX",1,31,2022-11-16T01:17:34+00:00,8.3017349243164,92,"updated stim.csv",Version92.csv,"Version 92","List 92",workbox,,2754,5.454545455,2970,0.23536446,2755,BOI,-,-,"Please name all of the ways you could use this object. Keep in mind that one object can have many uses. Separate your responses with a comma.",,y,8008,,,3468,7534,,,,"put work stuff in ",1
M20316883ZS,cuw1is00b8,"Affordance Norms_MSU_TEX",1,32,2022-11-16T01:17:49+00:00,15.431107997894,92,"updated stim.csv",Version92.csv,"Version 92","List 92",fruitcake,,2747,6,1061,0.894019945,2748,BOI,-,-,"Please name all of the ways you could use this object. Keep in mind that one object can have many uses. Separate your responses with a comma.",,y,15157,,,12970,14951,,,,eat,1
M20316883ZS,cuw1is00b8,"Affordance Norms_MSU_TEX",1,33,2022-11-16T01:17:53+00:00,3.7219390869141,92,"updated stim.csv",Version92.csv,"Version 92","List 92",smoothie,,2741,6.041666667,2423,0.034869801,2742,BOI,-,-,"Please name all of the ways you could use this object. Keep in mind that one object can have many uses. Separate your responses with a comma.",,y,3545,,,2442,3214,,,,drink,1
M20316883ZS,cuw1is00b8,"Affordance Norms_MSU_TEX",1,34,2022-11-16T01:17:56+00:00,3.2825839519501,92,"updated stim.csv",Version92.csv,"Version 92","List 92",cellist,,2760,4.869565217,473,0.269429709,2761,BOI,-,-,"Please name all of the ways you could use this object. Keep in mind that one object can have many uses. Separate your responses with a comma.",,y,3123,,,-1,-1,,,,,1
M20316883ZS,cuw1is00b8,"Affordance Norms_MSU_TEX",1,35,2022-11-16T01:18:00+00:00,3.6187319755554,92,"updated stim.csv",Version92.csv,"Version 92","List 92",sweatshirt,,2744,6.6,2605,0.206073363,2745,BOI,-,-,"Please name all of the ways you could use this object. Keep in mind that one object can have many uses. Separate your responses with a comma.",,y,3451,,,1570,2645,,,,wear,1
M20316883ZS,cuw1is00b8,"Affordance Norms_MSU_TEX",1,36,2022-11-16T01:18:10+00:00,9.546550989151,92,"updated stim.csv",Version92.csv,"Version 92","List 92",technician,,2757,4.56,2655,0.092155041,2758,BOI,-,-,"Please name all of the ways you could use this object. Keep in mind that one object can have many uses. Separate your responses with a comma.",,y,9273,,,1873,8691,,,,"fix your technology",1
M20316883ZS,cuw1is00b8,"Affordance Norms_MSU_TEX",1,37,2022-11-16T01:18:24+00:00,14.907441139221,92,"updated stim.csv",Version92.csv,"Version 92","List 92",wreath,,2732,5.461538462,2979,0.545736443,2733,BOI,-,-,"Please name all of the ways you could use this object. Keep in mind that one object can have many uses. Separate your responses with a comma.",,y,14635,,,9899,13935,,,,"put on your door",1
M20316883ZS,cuw1is00b8,"Affordance Norms_MSU_TEX",1,38,2022-11-16T01:18:38+00:00,13.01242685318,92,"updated stim.csv",Version92.csv,"Version 92","List 92",groin,,2758,5.72,1180,0.249014614,2759,BOI,-,-,"Please name all of the ways you could use this object. Keep in mind that one object can have many uses. Separate your responses with a comma.",,y,12722,,,3213,12628,,,,"have for yourself",1
M20316883ZS,cuw1is00b8,"Affordance Norms_MSU_TEX",1,39,2022-11-16T01:18:48+00:00,10.512843132019,92,"updated stim.csv",Version92.csv,"Version 92","List 92",swing,,2748,5.36,2608,0.846479663,2749,BOI,-,-,"Please name all of the ways you could use this object. Keep in mind that one object can have many uses. Separate your responses with a comma.",,y,10222,,,3289,9525,,,,"play, sit on",1
M20316883ZS,cuw1is00b8,"Affordance Norms_MSU_TEX",1,40,2022-11-16T01:18:56+00:00,7.5315699577332,92,"updated stim.csv",Version92.csv,"Version 92","List 92",chestnut,,2753,5.555555556,514,0.971745449,2754,BOI,-,-,"Please name all of the ways you could use this object. Keep in mind that one object can have many uses. Separate your responses with a comma.",,y,7242,,,2413,6761,,,,"eat, roast",1
M20316883ZS,cuw1is00b8,"Affordance Norms_MSU_TEX",1,41,2022-11-16T01:18:59+00:00,3.1207098960876,92,"updated stim.csv",Version92.csv,"Version 92","List 92",,,,,,,0,Instruct,,,"You will now be asked a few questions about your experience today.",,"Instruct 4",2871,,,-1,-1,,,,,1
