Username,ID,ExperimentName,Session,Trial,Date,TimeDif,"Condition Number","Stimuli File","Order File","Condition Description","Condition Notes",Stimuli*Cue,Stimuli*Answer,Stimuli*Shuffle,"Stimuli*Stimuli Notes",Stimuli*Value,Stimuli*Rand,Procedure*Item,"Procedure*Trial Type","Procedure*Max Time","Procedure*Min Time",Procedure*Text,"Procedure*Procedure Notes",Procedure*Shuffle,Response*RT,Response*Response,Response*Accuracy,Response*RTfirst,Response*RTlast,Response*strictAcc,Response*lenientAcc,Response*focus,Response*JOL,Response*Focus
M20302112,uotyjflthu,"Affordance Norms_MSU_TEX",1,1,2022-11-19T05:09:08+00:00,11.291725158691,18,"updated stim.csv",Version18.csv,"Version 18","List 18",,,,,,,0,Instruct,-,10,"In this section, you will be presented with a series of objects. Please name as many possible uses for this object as you can think of by typing them in the box below each object.",,Instruct1,11125,,,-1,-1,,,,,1
M20302112,uotyjflthu,"Affordance Norms_MSU_TEX",1,2,2022-11-19T05:09:19+00:00,10.992353916168,18,"updated stim.csv",Version18.csv,"Version 18","List 18",,,,,,,0,Instruct,-,10,"Please keep in mind that a single object will have more than one use. For example, a ball can be thrown or can be bounced or even stepped on. When listing multiple uses for one object, please separate each use with a comma (i.e., thrown, bounced, stepped on)",,Instruct2,10766,,,-1,-1,,,,,1
M20302112,uotyjflthu,"Affordance Norms_MSU_TEX",1,3,2022-11-19T05:09:21+00:00,1.7055339813232,18,"updated stim.csv",Version18.csv,"Version 18","List 18",,,,,,,0,Instruct,-,-,"Before starting the experiment, you will complete a short practice sesstion. Press ENTER when you are ready to begin.",,Instruct3,1495,,,-1,-1,,,,,1
M20302112,uotyjflthu,"Affordance Norms_MSU_TEX",1,4,2022-11-19T05:09:55+00:00,34.463297128677,18,"updated stim.csv",Version18.csv,"Version 18","List 18",spaghetti,,3003,6,2461,0.090379998,3004,BOI,-,-,"Please name all of the ways you could use this object. Keep in mind that one object can have many uses. Separate your responses with a comma.",,n,34254,,,7793,33314,,,,"eat, share, meatballs, noodles, food, dinner, lunch, leftovers",1
M20302112,uotyjflthu,"Affordance Norms_MSU_TEX",1,5,2022-11-19T05:10:17+00:00,22.368955850601,18,"updated stim.csv",Version18.csv,"Version 18","List 18",paperwork,,3001,5.625,1866,0.124284162,3002,BOI,-,-,"Please name all of the ways you could use this object. Keep in mind that one object can have many uses. Separate your responses with a comma.",,n,22136,,,2435,20698,,,,"homework, buisness, letters, signatures, work ",1
M20302112,uotyjflthu,"Affordance Norms_MSU_TEX",1,6,2022-11-19T05:10:32+00:00,14.409371137619,18,"updated stim.csv",Version18.csv,"Version 18","List 18",saucer,,3005,5.777777778,2249,0.304808074,3006,BOI,-,-,"Please name all of the ways you could use this object. Keep in mind that one object can have many uses. Separate your responses with a comma.",,n,14180,,,2459,13150,,,,"flying, food, cooking, hitting, sauce",1
M20302112,uotyjflthu,"Affordance Norms_MSU_TEX",1,7,2022-11-19T05:10:48+00:00,15.869324922562,18,"updated stim.csv",Version18.csv,"Version 18","List 18",grain,,3004,5.217391304,1143,0.226863762,3005,BOI,-,-,"Please name all of the ways you could use this object. Keep in mind that one object can have many uses. Separate your responses with a comma.",,n,15638,,,2125,12669,,,,"rice, healthy, meal, small. ",1
M20302112,uotyjflthu,"Affordance Norms_MSU_TEX",1,8,2022-11-19T05:11:04+00:00,16.528888940811,18,"updated stim.csv",Version18.csv,"Version 18","List 18",shortening,,3002,4.92,2358,0.604328482,3003,BOI,-,-,"Please name all of the ways you could use this object. Keep in mind that one object can have many uses. Separate your responses with a comma.",,n,16296,,,3318,13870,,,,"length, smaller",1
M20302112,uotyjflthu,"Affordance Norms_MSU_TEX",1,9,2022-11-19T05:11:06+00:00,1.3042070865631,18,"updated stim.csv",Version18.csv,"Version 18","List 18",,,,,,,0,Instruct,-,-,"You have completed this section. Press ENTER to continue",,"Instruct 5",1080,,,-1,-1,,,,,1
M20302112,uotyjflthu,"Affordance Norms_MSU_TEX",1,10,2022-11-19T05:11:09+00:00,2.9826130867004,18,"updated stim.csv",Version18.csv,"Version 18","List 18",,,,,,,0,Instruct,-,-,"You will now start the full experiment. Press ENTER when you are ready to begin.",,,2773,,,-1,-1,,,,,1
M20302112,uotyjflthu,"Affordance Norms_MSU_TEX",1,11,2022-11-19T05:11:20+00:00,11.560213804245,18,"updated stim.csv",Version18.csv,"Version 18","List 18",breastplate,,519,5.136363636,314,0.791797957,520,BOI,-,-,"Please name all of the ways you could use this object. Keep in mind that one object can have many uses. Separate your responses with a comma.",,y,11330,,,4209,7465,,,,safety,1
M20302112,uotyjflthu,"Affordance Norms_MSU_TEX",1,12,2022-11-19T05:11:34+00:00,14.347246170044,18,"updated stim.csv",Version18.csv,"Version 18","List 18",appetizer,,513,6.12,60,0.088357206,514,BOI,-,-,"Please name all of the ways you could use this object. Keep in mind that one object can have many uses. Separate your responses with a comma.",,y,14127,,,2110,6686,,,,"eating, first meal",1
M20302112,uotyjflthu,"Affordance Norms_MSU_TEX",1,13,2022-11-19T05:11:53+00:00,18.319444894791,18,"updated stim.csv",Version18.csv,"Version 18","List 18",croissant,,518,6,699,0.195516583,519,BOI,-,-,"Please name all of the ways you could use this object. Keep in mind that one object can have many uses. Separate your responses with a comma.",,y,18093,,,3087,16868,,,,"eating, food, starbucks, meme",1
M20302112,uotyjflthu,"Affordance Norms_MSU_TEX",1,14,2022-11-19T05:12:09+00:00,16.137284994125,18,"updated stim.csv",Version18.csv,"Version 18","List 18",eyeball,,516,5.555555556,930,0.887767133,517,BOI,-,-,"Please name all of the ways you could use this object. Keep in mind that one object can have many uses. Separate your responses with a comma.",,y,15916,,,1468,14424,,,,"see, look, hurts, vision, cow eye ",1
M20302112,uotyjflthu,"Affordance Norms_MSU_TEX",1,15,2022-11-19T05:12:29+00:00,20.304748058319,18,"updated stim.csv",Version18.csv,"Version 18","List 18",packaging,,524,5.038461538,1838,0.013887713,525,BOI,-,-,"Please name all of the ways you could use this object. Keep in mind that one object can have many uses. Separate your responses with a comma.",,y,20073,,,1753,19250,,,,"amazon, shipping, camping, tight, safe",1
M20302112,uotyjflthu,"Affordance Norms_MSU_TEX",1,16,2022-11-19T05:12:39+00:00,9.6073310375214,18,"updated stim.csv",Version18.csv,"Version 18","List 18",chimpanzee,,512,4.260869565,525,0.027839326,513,BOI,-,-,"Please name all of the ways you could use this object. Keep in mind that one object can have many uses. Separate your responses with a comma.",,y,9391,,,1518,8013,,,,"monkey, loud, abnoxious ",1
M20302112,uotyjflthu,"Affordance Norms_MSU_TEX",1,17,2022-11-19T05:12:47+00:00,8.3597869873047,18,"updated stim.csv",Version18.csv,"Version 18","List 18",programmer,,511,4.695652174,2071,0.979417302,512,BOI,-,-,"Please name all of the ways you could use this object. Keep in mind that one object can have many uses. Separate your responses with a comma.",,y,8143,,,1594,6849,,,,"coding, hacker, job",1
M20302112,uotyjflthu,"Affordance Norms_MSU_TEX",1,18,2022-11-19T05:13:04+00:00,16.79976606369,18,"updated stim.csv",Version18.csv,"Version 18","List 18",coupon,,540,4.821428571,667,0.305307499,541,BOI,-,-,"Please name all of the ways you could use this object. Keep in mind that one object can have many uses. Separate your responses with a comma.",,y,16443,,,1610,15773,,,,"saving, paper, shopping",1
M20302112,uotyjflthu,"Affordance Norms_MSU_TEX",1,19,2022-11-19T05:13:18+00:00,14.367812871933,18,"updated stim.csv",Version18.csv,"Version 18","List 18",inventor,,529,4.391304348,1366,0.759903521,530,BOI,-,-,"Please name all of the ways you could use this object. Keep in mind that one object can have many uses. Separate your responses with a comma.",,y,13962,,,5290,13289,,,,"fixes, invents, hard-worker",1
M20302112,uotyjflthu,"Affordance Norms_MSU_TEX",1,20,2022-11-19T05:13:28+00:00,9.1710069179535,18,"updated stim.csv",Version18.csv,"Version 18","List 18",sweater,,531,6.592592593,2604,0.037244496,532,BOI,-,-,"Please name all of the ways you could use this object. Keep in mind that one object can have many uses. Separate your responses with a comma.",,y,8948,,,1438,6964,,,,"cold, weather, pretty ",1
M20302112,uotyjflthu,"Affordance Norms_MSU_TEX",1,21,2022-11-19T05:13:34+00:00,6.1937930583954,18,"updated stim.csv",Version18.csv,"Version 18","List 18",tenderloin,,539,4.962962963,2663,0.710184563,540,BOI,-,-,"Please name all of the ways you could use this object. Keep in mind that one object can have many uses. Separate your responses with a comma.",,y,5970,,,3791,5005,,,,"delicious ",1
M20302112,uotyjflthu,"Affordance Norms_MSU_TEX",1,22,2022-11-19T05:13:44+00:00,10.027855157852,18,"updated stim.csv",Version18.csv,"Version 18","List 18",semen,,523,5.269230769,2310,0.728002682,524,BOI,-,-,"Please name all of the ways you could use this object. Keep in mind that one object can have many uses. Separate your responses with a comma.",,y,9816,,,5705,8622,,,,"sperm, sex",1
M20302112,uotyjflthu,"Affordance Norms_MSU_TEX",1,23,2022-11-19T05:13:49+00:00,4.9420228004456,18,"updated stim.csv",Version18.csv,"Version 18","List 18",guard,,515,5,1184,0.014898881,516,BOI,-,-,"Please name all of the ways you could use this object. Keep in mind that one object can have many uses. Separate your responses with a comma.",,y,4731,,,2106,3266,,,,"safety ",1
M20302112,uotyjflthu,"Affordance Norms_MSU_TEX",1,24,2022-11-19T05:13:54+00:00,5.6731719970703,18,"updated stim.csv",Version18.csv,"Version 18","List 18",bellboy,,535,4.8,197,0.341449251,536,BOI,-,-,"Please name all of the ways you could use this object. Keep in mind that one object can have many uses. Separate your responses with a comma.",,y,5462,,,4333,4928,,,,ringer,1
M20302112,uotyjflthu,"Affordance Norms_MSU_TEX",1,25,2022-11-19T05:14:01+00:00,6.7734479904175,18,"updated stim.csv",Version18.csv,"Version 18","List 18",skewer,,525,4.5,2396,0.276241995,526,BOI,-,-,"Please name all of the ways you could use this object. Keep in mind that one object can have many uses. Separate your responses with a comma.",,y,6561,,,2166,5916,,,,"i do not know this word",1
M20302112,uotyjflthu,"Affordance Norms_MSU_TEX",1,26,2022-11-19T05:14:06+00:00,4.3816111087799,18,"updated stim.csv",Version18.csv,"Version 18","List 18",dishwasher,,522,5.592592593,803,0.012255055,523,BOI,-,-,"Please name all of the ways you could use this object. Keep in mind that one object can have many uses. Separate your responses with a comma.",,y,4185,,,2051,3161,,,,"cleaning ",1
M20302112,uotyjflthu,"Affordance Norms_MSU_TEX",1,27,2022-11-19T05:14:10+00:00,4.061136007309,18,"updated stim.csv",Version18.csv,"Version 18","List 18",armor,,530,5.333333333,74,0.187270689,531,BOI,-,-,"Please name all of the ways you could use this object. Keep in mind that one object can have many uses. Separate your responses with a comma.",,y,3853,,,1515,3031,,,,protection,1
M20302112,uotyjflthu,"Affordance Norms_MSU_TEX",1,28,2022-11-19T05:14:18+00:00,8.9093909263611,18,"updated stim.csv",Version18.csv,"Version 18","List 18",girlfriend,,536,5.730769231,1109,0.219592421,537,BOI,-,-,"Please name all of the ways you could use this object. Keep in mind that one object can have many uses. Separate your responses with a comma.",,y,8702,,,1962,8117,,,,"intimate, soulmate",1
M20302112,uotyjflthu,"Affordance Norms_MSU_TEX",1,29,2022-11-19T05:14:23+00:00,4.8921761512756,18,"updated stim.csv",Version18.csv,"Version 18","List 18",upholstery,,526,5.461538462,2827,0.065017905,527,BOI,-,-,"Please name all of the ways you could use this object. Keep in mind that one object can have many uses. Separate your responses with a comma.",,y,4684,,,1519,4091,,,,"i do not know this word",1
M20302112,uotyjflthu,"Affordance Norms_MSU_TEX",1,30,2022-11-19T05:14:31+00:00,8.120885848999,18,"updated stim.csv",Version18.csv,"Version 18","List 18",leopard,,534,5.260869565,1492,0.304149864,535,BOI,-,-,"Please name all of the ways you could use this object. Keep in mind that one object can have many uses. Separate your responses with a comma.",,y,7913,,,1460,7213,,,,"fast, animal, instinctual ",1
M20302112,uotyjflthu,"Affordance Norms_MSU_TEX",1,31,2022-11-19T05:14:47+00:00,15.775578022003,18,"updated stim.csv",Version18.csv,"Version 18","List 18",boy,,521,4.962962963,296,0.235786191,522,BOI,-,-,"Please name all of the ways you could use this object. Keep in mind that one object can have many uses. Separate your responses with a comma.",,y,15551,,,2325,14020,,,,"opposite of girl, sex, gender",1
M20302112,uotyjflthu,"Affordance Norms_MSU_TEX",1,32,2022-11-19T05:14:59+00:00,11.275376081467,18,"updated stim.csv",Version18.csv,"Version 18","List 18",orphan,,514,5.259259259,1824,0.409410216,515,BOI,-,-,"Please name all of the ways you could use this object. Keep in mind that one object can have many uses. Separate your responses with a comma.",,y,11058,,,1777,8305,,,,"alone, afraid",1
M20302112,uotyjflthu,"Affordance Norms_MSU_TEX",1,33,2022-11-19T05:15:02+00:00,3.7149510383606,18,"updated stim.csv",Version18.csv,"Version 18","List 18",espresso,,533,5.24,921,0.53592974,534,BOI,-,-,"Please name all of the ways you could use this object. Keep in mind that one object can have many uses. Separate your responses with a comma.",,y,3502,,,2193,2876,,,,"energy ",1
M20302112,uotyjflthu,"Affordance Norms_MSU_TEX",1,34,2022-11-19T05:15:09+00:00,6.2797830104828,18,"updated stim.csv",Version18.csv,"Version 18","List 18",capacitor,,527,4.375,423,0.29017358,528,BOI,-,-,"Please name all of the ways you could use this object. Keep in mind that one object can have many uses. Separate your responses with a comma.",,y,6043,,,1537,4792,,,,"i do not know this word",1
M20302112,uotyjflthu,"Affordance Norms_MSU_TEX",1,35,2022-11-19T05:15:15+00:00,6.7226409912109,18,"updated stim.csv",Version18.csv,"Version 18","List 18",cosmetician,,520,4.8,655,0.584332234,521,BOI,-,-,"Please name all of the ways you could use this object. Keep in mind that one object can have many uses. Separate your responses with a comma.",,y,6510,,,1673,5962,,,,"i do not know this word",1
M20302112,uotyjflthu,"Affordance Norms_MSU_TEX",1,36,2022-11-19T05:15:23+00:00,7.3593599796295,18,"updated stim.csv",Version18.csv,"Version 18","List 18",croquet,,517,4.84,701,0.291263355,518,BOI,-,-,"Please name all of the ways you could use this object. Keep in mind that one object can have many uses. Separate your responses with a comma.",,y,7145,,,2913,6466,,,,"fair game, old time",1
M20302112,uotyjflthu,"Affordance Norms_MSU_TEX",1,37,2022-11-19T05:15:32+00:00,9.3955149650574,18,"updated stim.csv",Version18.csv,"Version 18","List 18",Elevator,,537,5.486522911,901,0.750646332,538,BOI,-,-,"Please name all of the ways you could use this object. Keep in mind that one object can have many uses. Separate your responses with a comma.",,y,9191,,,3480,7948,,,,"no stairs, slow, fast ",1
M20302112,uotyjflthu,"Affordance Norms_MSU_TEX",1,38,2022-11-19T05:15:39+00:00,6.8019440174103,18,"updated stim.csv",Version18.csv,"Version 18","List 18",adapter,,532,4.583333333,13,0.866092268,533,BOI,-,-,"Please name all of the ways you could use this object. Keep in mind that one object can have many uses. Separate your responses with a comma.",,y,6596,,,2437,6051,,,,"i do not know this word",1
M20302112,uotyjflthu,"Affordance Norms_MSU_TEX",1,39,2022-11-19T05:15:43+00:00,3.7252960205078,18,"updated stim.csv",Version18.csv,"Version 18","List 18",basin,,538,4.818181818,161,0.378920968,539,BOI,-,-,"Please name all of the ways you could use this object. Keep in mind that one object can have many uses. Separate your responses with a comma.",,y,3516,,,1352,2975,,,,water,1
M20302112,uotyjflthu,"Affordance Norms_MSU_TEX",1,40,2022-11-19T05:15:47+00:00,4.4795980453491,18,"updated stim.csv",Version18.csv,"Version 18","List 18",thread,,528,4.76,2684,0.433773044,529,BOI,-,-,"Please name all of the ways you could use this object. Keep in mind that one object can have many uses. Separate your responses with a comma.",,y,4263,,,1661,3110,,,,"text chain",1
M20302112,uotyjflthu,"Affordance Norms_MSU_TEX",1,41,2022-11-19T05:15:49+00:00,2.0862858295441,18,"updated stim.csv",Version18.csv,"Version 18","List 18",,,,,,,0,Instruct,,,"You will now be asked a few questions about your experience today.",,"Instruct 4",1876,,,-1,-1,,,,,1
