Username,ID,ExperimentName,Session,Trial,Date,TimeDif,"Condition Number","Stimuli File","Order File","Condition Description","Condition Notes",Stimuli*Cue,Stimuli*Answer,Stimuli*Shuffle,"Stimuli*Stimuli Notes",Stimuli*Value,Stimuli*Rand,Procedure*Item,"Procedure*Trial Type","Procedure*Max Time","Procedure*Min Time",Procedure*Text,"Procedure*Procedure Notes",Procedure*Shuffle,Response*RT,Response*Response,Response*Accuracy,Response*RTfirst,Response*RTlast,Response*strictAcc,Response*lenientAcc,Response*focus,Response*JOL,Response*Focus
m20315428KT,p59z8w17yw,"Affordance Norms_MSU_TEX",1,1,2022-11-28T05:54:00+00:00,12.078049898148,36,"updated stim.csv",Version36.csv,"Version 36","List 36",,,,,,,0,Instruct,-,10,"In this section, you will be presented with a series of objects. Please name as many possible uses for this object as you can think of by typing them in the box below each object.",,Instruct1,11377,,,-1,-1,,,,,1
m20315428KT,p59z8w17yw,"Affordance Norms_MSU_TEX",1,2,2022-11-28T05:54:11+00:00,11.453555107117,36,"updated stim.csv",Version36.csv,"Version 36","List 36",,,,,,,0,Instruct,-,10,"Please keep in mind that a single object will have more than one use. For example, a ball can be thrown or can be bounced or even stepped on. When listing multiple uses for one object, please separate each use with a comma (i.e., thrown, bounced, stepped on)",,Instruct2,11064,,,-1,-1,,,,,1
m20315428KT,p59z8w17yw,"Affordance Norms_MSU_TEX",1,3,2022-11-28T05:54:15+00:00,4.1473820209503,36,"updated stim.csv",Version36.csv,"Version 36","List 36",,,,,,,0,Instruct,-,-,"Before starting the experiment, you will complete a short practice sesstion. Press ENTER when you are ready to begin.",,Instruct3,3934,,,-1,-1,,,,,1
m20315428KT,p59z8w17yw,"Affordance Norms_MSU_TEX",1,4,2022-11-28T05:54:35+00:00,19.898892879486,36,"updated stim.csv",Version36.csv,"Version 36","List 36",grain,,3004,5.217391304,1143,0.226863762,3005,BOI,-,-,"Please name all of the ways you could use this object. Keep in mind that one object can have many uses. Separate your responses with a comma.",,n,19548,,,17711,18426,,,,rice,1
m20315428KT,p59z8w17yw,"Affordance Norms_MSU_TEX",1,5,2022-11-28T05:54:47+00:00,11.871797084808,36,"updated stim.csv",Version36.csv,"Version 36","List 36",shortening,,3002,4.92,2358,0.604328482,3003,BOI,-,-,"Please name all of the ways you could use this object. Keep in mind that one object can have many uses. Separate your responses with a comma.",,n,11492,,,9878,11079,,,,short,1
m20315428KT,p59z8w17yw,"Affordance Norms_MSU_TEX",1,6,2022-11-28T05:55:02+00:00,15.546912908554,36,"updated stim.csv",Version36.csv,"Version 36","List 36",saucer,,3005,5.777777778,2249,0.304808074,3006,BOI,-,-,"Please name all of the ways you could use this object. Keep in mind that one object can have many uses. Separate your responses with a comma.",,n,15201,,,2087,14032,,,,"thrown, tossed,chunked",1
m20315428KT,p59z8w17yw,"Affordance Norms_MSU_TEX",1,7,2022-11-28T05:55:21+00:00,18.592279195786,36,"updated stim.csv",Version36.csv,"Version 36","List 36",paperwork,,3001,5.625,1866,0.124284162,3002,BOI,-,-,"Please name all of the ways you could use this object. Keep in mind that one object can have many uses. Separate your responses with a comma.",,n,18202,,,2395,16963,,,,"filled out, shredded, folded, thrown away",1
m20315428KT,p59z8w17yw,"Affordance Norms_MSU_TEX",1,8,2022-11-28T05:55:31+00:00,9.9474849700928,36,"updated stim.csv",Version36.csv,"Version 36","List 36",spaghetti,,3003,6,2461,0.090379998,3004,BOI,-,-,"Please name all of the ways you could use this object. Keep in mind that one object can have many uses. Separate your responses with a comma.",,n,9595,,,1703,7151,,,,eaten,1
m20315428KT,p59z8w17yw,"Affordance Norms_MSU_TEX",1,9,2022-11-28T05:55:33+00:00,1.9612958431244,36,"updated stim.csv",Version36.csv,"Version 36","List 36",,,,,,,0,Instruct,-,-,"You have completed this section. Press ENTER to continue",,"Instruct 5",1776,,,-1,-1,,,,,1
m20315428KT,p59z8w17yw,"Affordance Norms_MSU_TEX",1,10,2022-11-28T05:55:37+00:00,4.3899221420288,36,"updated stim.csv",Version36.csv,"Version 36","List 36",,,,,,,0,Instruct,-,-,"You will now start the full experiment. Press ENTER when you are ready to begin.",,,3961,,,-1,-1,,,,,1
m20315428KT,p59z8w17yw,"Affordance Norms_MSU_TEX",1,11,2022-11-28T05:55:58+00:00,20.922981977463,36,"updated stim.csv",Version36.csv,"Version 36","List 36",drugstore,,1079,5.260869565,853,0.581825983,1080,BOI,-,-,"Please name all of the ways you could use this object. Keep in mind that one object can have many uses. Separate your responses with a comma.",,y,20538,,,2480,18965,,,,"shop, medicine, cheap, convienient",1
m20315428KT,p59z8w17yw,"Affordance Norms_MSU_TEX",1,12,2022-11-28T05:56:16+00:00,18.198832988739,36,"updated stim.csv",Version36.csv,"Version 36","List 36",woodshed,,1051,5.25,2964,0.210010171,1052,BOI,-,-,"Please name all of the ways you could use this object. Keep in mind that one object can have many uses. Separate your responses with a comma.",,y,17852,,,2885,17634,,,,"build, work, tool storage",1
m20315428KT,p59z8w17yw,"Affordance Norms_MSU_TEX",1,13,2022-11-28T05:56:41+00:00,24.484225034714,36,"updated stim.csv",Version36.csv,"Version 36","List 36",motorcycle,,1066,5.555555556,1696,0.62938025,1067,BOI,-,-,"Please name all of the ways you could use this object. Keep in mind that one object can have many uses. Separate your responses with a comma.",,y,24160,,,2084,23146,,,,"riden, crashed, start, turn off, race",1
m20315428KT,p59z8w17yw,"Affordance Norms_MSU_TEX",1,14,2022-11-28T05:57:06+00:00,25.235323905945,36,"updated stim.csv",Version36.csv,"Version 36","List 36",rain,,1067,4.958333333,2129,0.893890864,1068,BOI,-,-,"Please name all of the ways you could use this object. Keep in mind that one object can have many uses. Separate your responses with a comma.",,y,24849,,,4269,24671,,,,"walk, umbrella, puddle jump, dance in it",1
m20315428KT,p59z8w17yw,"Affordance Norms_MSU_TEX",1,15,2022-11-28T05:57:10+00:00,3.8665111064911,36,"updated stim.csv",Version36.csv,"Version 36","List 36",switchboard,,1074,4.777777778,2610,0.925747236,1075,BOI,-,-,"Please name all of the ways you could use this object. Keep in mind that one object can have many uses. Separate your responses with a comma.",,y,3618,,,-1,-1,,,,,1
m20315428KT,p59z8w17yw,"Affordance Norms_MSU_TEX",1,16,2022-11-28T05:57:12+00:00,1.4728119373322,36,"updated stim.csv",Version36.csv,"Version 36","List 36",evergreen,,1078,4.444444444,923,0.294521341,1079,BOI,-,-,"Please name all of the ways you could use this object. Keep in mind that one object can have many uses. Separate your responses with a comma.",,y,1289,,,-1,-1,,,,,1
m20315428KT,p59z8w17yw,"Affordance Norms_MSU_TEX",1,17,2022-11-28T05:57:25+00:00,13.4465239048,36,"updated stim.csv",Version36.csv,"Version 36","List 36",mentor,,1053,4.347826087,1645,0.570505968,1054,BOI,-,-,"Please name all of the ways you could use this object. Keep in mind that one object can have many uses. Separate your responses with a comma.",,y,13094,,,1506,12825,,,,"tutor, learn, take notes from",1
m20315428KT,p59z8w17yw,"Affordance Norms_MSU_TEX",1,18,2022-11-28T05:57:31+00:00,5.5145862102509,36,"updated stim.csv",Version36.csv,"Version 36","List 36",teardrop,,1064,4.695652174,2651,0.380138083,1065,BOI,-,-,"Please name all of the ways you could use this object. Keep in mind that one object can have many uses. Separate your responses with a comma.",,y,5202,,,2883,4423,,,,"wiped off",1
m20315428KT,p59z8w17yw,"Affordance Norms_MSU_TEX",1,19,2022-11-28T05:57:43+00:00,12.916269779205,36,"updated stim.csv",Version36.csv,"Version 36","List 36",telescope,,1059,5.916666667,2659,0.548611427,1060,BOI,-,-,"Please name all of the ways you could use this object. Keep in mind that one object can have many uses. Separate your responses with a comma.",,y,12549,,,2851,10449,,,,"look in sky, look at stars",1
m20315428KT,p59z8w17yw,"Affordance Norms_MSU_TEX",1,20,2022-11-28T05:57:48+00:00,4.5293440818787,36,"updated stim.csv",Version36.csv,"Version 36","List 36",laxative,,1052,5.206896552,1476,0.827402237,1053,BOI,-,-,"Please name all of the ways you could use this object. Keep in mind that one object can have many uses. Separate your responses with a comma.",,y,4169,,,2280,2928,,,,eat,1
m20315428KT,p59z8w17yw,"Affordance Norms_MSU_TEX",1,21,2022-11-28T05:57:50+00:00,2.2255029678345,36,"updated stim.csv",Version36.csv,"Version 36","List 36",ductwork,,1056,4.52173913,862,0.409527308,1057,BOI,-,-,"Please name all of the ways you could use this object. Keep in mind that one object can have many uses. Separate your responses with a comma.",,y,2030,,,-1,-1,,,,,1
m20315428KT,p59z8w17yw,"Affordance Norms_MSU_TEX",1,22,2022-11-28T05:57:55+00:00,4.4641420841217,36,"updated stim.csv",Version36.csv,"Version 36","List 36",harmonica,,1061,6.416666667,1251,0.845063225,1062,BOI,-,-,"Please name all of the ways you could use this object. Keep in mind that one object can have many uses. Separate your responses with a comma.",,y,3941,,,1504,3765,,,,"play it",1
m20315428KT,p59z8w17yw,"Affordance Norms_MSU_TEX",1,23,2022-11-28T05:58:00+00:00,5.0456829071045,36,"updated stim.csv",Version36.csv,"Version 36","List 36",tombstone,,1072,5.043478261,2725,0.273275065,1073,BOI,-,-,"Please name all of the ways you could use this object. Keep in mind that one object can have many uses. Separate your responses with a comma.",,y,4715,,,2826,4514,,,,"design it",1
m20315428KT,p59z8w17yw,"Affordance Norms_MSU_TEX",1,24,2022-11-28T05:58:07+00:00,7.2608060836792,36,"updated stim.csv",Version36.csv,"Version 36","List 36",flashbulb,,1076,4.375,1001,0.629683234,1077,BOI,-,-,"Please name all of the ways you could use this object. Keep in mind that one object can have many uses. Separate your responses with a comma.",,y,6932,,,2511,6730,,,,"turn on, turn off",1
m20315428KT,p59z8w17yw,"Affordance Norms_MSU_TEX",1,25,2022-11-28T05:58:20+00:00,13.539422988892,36,"updated stim.csv",Version36.csv,"Version 36","List 36",engine,,1065,5.333333333,908,0.128914388,1066,BOI,-,-,"Please name all of the ways you could use this object. Keep in mind that one object can have many uses. Separate your responses with a comma.",,y,12018,,,1196,11859,,,,"fix it, take apart, put together",1
m20315428KT,p59z8w17yw,"Affordance Norms_MSU_TEX",1,26,2022-11-28T05:58:39+00:00,18.246093034744,36,"updated stim.csv",Version36.csv,"Version 36","List 36",barber,,1060,4.958333333,147,0.779479627,1061,BOI,-,-,"Please name all of the ways you could use this object. Keep in mind that one object can have many uses. Separate your responses with a comma.",,y,17848,,,2733,17613,,,,"hair cut, trim, fade, hairstyle",1
m20315428KT,p59z8w17yw,"Affordance Norms_MSU_TEX",1,27,2022-11-28T05:58:46+00:00,7.3673300743103,36,"updated stim.csv",Version36.csv,"Version 36","List 36",curler,,1068,4.454545455,730,0.741093099,1069,BOI,-,-,"Please name all of the ways you could use this object. Keep in mind that one object can have many uses. Separate your responses with a comma.",,y,7055,,,1992,5044,,,,"curl hair",1
m20315428KT,p59z8w17yw,"Affordance Norms_MSU_TEX",1,28,2022-11-28T05:58:54+00:00,7.928377866745,36,"updated stim.csv",Version36.csv,"Version 36","List 36",male,,1057,5.5,1581,0.27446193,1058,BOI,-,-,"Please name all of the ways you could use this object. Keep in mind that one object can have many uses. Separate your responses with a comma.",,y,7528,,,3509,5095,,,,work,1
m20315428KT,p59z8w17yw,"Affordance Norms_MSU_TEX",1,29,2022-11-28T05:59:02+00:00,7.553160905838,36,"updated stim.csv",Version36.csv,"Version 36","List 36",lambskin,,1055,4.416666667,1454,0.690896227,1056,BOI,-,-,"Please name all of the ways you could use this object. Keep in mind that one object can have many uses. Separate your responses with a comma.",,y,7226,,,4399,6103,,,,jacket?,1
m20315428KT,p59z8w17yw,"Affordance Norms_MSU_TEX",1,30,2022-11-28T05:59:06+00:00,4.3161971569061,36,"updated stim.csv",Version36.csv,"Version 36","List 36",beagle,,1075,5.2,179,0.616805077,1076,BOI,-,-,"Please name all of the ways you could use this object. Keep in mind that one object can have many uses. Separate your responses with a comma.",,y,3989,,,2280,3442,,,,hunting,1
m20315428KT,p59z8w17yw,"Affordance Norms_MSU_TEX",1,31,2022-11-28T05:59:13+00:00,7.1751198768616,36,"updated stim.csv",Version36.csv,"Version 36","List 36",leftovers,,1070,5.625,1485,0.349934709,1071,BOI,-,-,"Please name all of the ways you could use this object. Keep in mind that one object can have many uses. Separate your responses with a comma.",,y,6816,,,1367,4372,,,,"eat, throw away",1
m20315428KT,p59z8w17yw,"Affordance Norms_MSU_TEX",1,32,2022-11-28T05:59:26+00:00,12.783397197723,36,"updated stim.csv",Version36.csv,"Version 36","List 36",manicure,,1080,4.730769231,1590,0.1995438,1081,BOI,-,-,"Please name all of the ways you could use this object. Keep in mind that one object can have many uses. Separate your responses with a comma.",,y,12426,,,2515,12107,,,,"nails, paint, polish, colors",1
m20315428KT,p59z8w17yw,"Affordance Norms_MSU_TEX",1,33,2022-11-28T05:59:37+00:00,10.669778823853,36,"updated stim.csv",Version36.csv,"Version 36","List 36",vitamins,,1077,5.12,2870,0.952358959,1078,BOI,-,-,"Please name all of the ways you could use this object. Keep in mind that one object can have many uses. Separate your responses with a comma.",,y,10379,,,2014,7033,,,,"medicine, health,",1
m20315428KT,p59z8w17yw,"Affordance Norms_MSU_TEX",1,34,2022-11-28T05:59:44+00:00,7.3421521186829,36,"updated stim.csv",Version36.csv,"Version 36","List 36",edibles,,1063,5.428571429,888,0.341038926,1064,BOI,-,-,"Please name all of the ways you could use this object. Keep in mind that one object can have many uses. Separate your responses with a comma.",,y,6910,,,5622,6233,,,,eat,1
m20315428KT,p59z8w17yw,"Affordance Norms_MSU_TEX",1,35,2022-11-28T05:59:53+00:00,8.6736898422241,36,"updated stim.csv",Version36.csv,"Version 36","List 36",llama,,1054,4.75,1530,0.940050955,1055,BOI,-,-,"Please name all of the ways you could use this object. Keep in mind that one object can have many uses. Separate your responses with a comma.",,y,7625,,,2623,7463,,,,"petting zoo, spits",1
m20315428KT,p59z8w17yw,"Affordance Norms_MSU_TEX",1,36,2022-11-28T06:00:04+00:00,11.547872066498,36,"updated stim.csv",Version36.csv,"Version 36","List 36",houseboat,,1071,4.956521739,1327,0.078689969,1072,BOI,-,-,"Please name all of the ways you could use this object. Keep in mind that one object can have many uses. Separate your responses with a comma.",,y,11195,,,1881,11015,,,,"live in, water, float, ocean, sea",1
m20315428KT,p59z8w17yw,"Affordance Norms_MSU_TEX",1,37,2022-11-28T06:00:13+00:00,8.7460420131683,36,"updated stim.csv",Version36.csv,"Version 36","List 36",alfalfa,,1073,5.045454545,26,0.1332912,1074,BOI,-,-,"Please name all of the ways you could use this object. Keep in mind that one object can have many uses. Separate your responses with a comma.",,y,8392,,,7443,8084,,,,movie,1
m20315428KT,p59z8w17yw,"Affordance Norms_MSU_TEX",1,38,2022-11-28T06:00:25+00:00,12.445559978485,36,"updated stim.csv",Version36.csv,"Version 36","List 36",ornament,,1062,6.181818182,1823,0.998707225,1063,BOI,-,-,"Please name all of the ways you could use this object. Keep in mind that one object can have many uses. Separate your responses with a comma.",,y,12105,,,1587,11900,,,,"decorate, hang up, break, drop it, fix it",1
m20315428KT,p59z8w17yw,"Affordance Norms_MSU_TEX",1,39,2022-11-28T06:00:31+00:00,5.8356471061707,36,"updated stim.csv",Version36.csv,"Version 36","List 36",saltshaker,,1058,6,2228,0.087603339,1059,BOI,-,-,"Please name all of the ways you could use this object. Keep in mind that one object can have many uses. Separate your responses with a comma.",,y,5486,,,2877,4633,,,,"season food",1
m20315428KT,p59z8w17yw,"Affordance Norms_MSU_TEX",1,40,2022-11-28T06:00:42+00:00,10.556562900543,36,"updated stim.csv",Version36.csv,"Version 36","List 36",screwdriver,,1069,6.52173913,2287,0.220320709,1070,BOI,-,-,"Please name all of the ways you could use this object. Keep in mind that one object can have many uses. Separate your responses with a comma.",,y,10210,,,2786,10121,,,,"take apart items, put items together",1
m20315428KT,p59z8w17yw,"Affordance Norms_MSU_TEX",1,41,2022-11-28T06:00:44+00:00,2.4724099636078,36,"updated stim.csv",Version36.csv,"Version 36","List 36",,,,,,,0,Instruct,,,"You will now be asked a few questions about your experience today.",,"Instruct 4",2257,,,-1,-1,,,,,1
