Username,ID,ExperimentName,Session,Trial,Date,TimeDif,"Condition Number","Stimuli File","Order File","Condition Description","Condition Notes",Stimuli*Cue,Stimuli*Answer,Stimuli*Shuffle,"Stimuli*Stimuli Notes",Stimuli*Value,Stimuli*Rand,Procedure*Item,"Procedure*Trial Type","Procedure*Max Time","Procedure*Min Time",Procedure*Text,"Procedure*Procedure Notes",Procedure*Shuffle,Response*RT,Response*Response,Response*Accuracy,Response*RTfirst,Response*RTlast,Response*strictAcc,Response*lenientAcc,Response*focus,Response*JOL,Response*Focus
20306722SG,qqnjzr3vcd,"Affordance Norms_MSU_TEX",1,1,2022-11-17T04:02:32+00:00,34.918670892715,6,"updated stim.csv",Version6.csv,"Version 6","List 6",,,,,,,0,Instruct,-,10,"In this section, you will be presented with a series of objects. Please name as many possible uses for this object as you can think of by typing them in the box below each object.",,Instruct1,34782,,,-1,-1,,,,,1
20306722SG,qqnjzr3vcd,"Affordance Norms_MSU_TEX",1,2,2022-11-17T04:02:48+00:00,16.16385602951,6,"updated stim.csv",Version6.csv,"Version 6","List 6",,,,,,,0,Instruct,-,10,"Please keep in mind that a single object will have more than one use. For example, a ball can be thrown or can be bounced or even stepped on. When listing multiple uses for one object, please separate each use with a comma (i.e., thrown, bounced, stepped on)",,Instruct2,16000,,,-1,-1,,,,,1
20306722SG,qqnjzr3vcd,"Affordance Norms_MSU_TEX",1,3,2022-11-17T04:02:55+00:00,6.2339470386505,6,"updated stim.csv",Version6.csv,"Version 6","List 6",,,,,,,0,Instruct,-,-,"Before starting the experiment, you will complete a short practice sesstion. Press ENTER when you are ready to begin.",,Instruct3,6060,,,-1,-1,,,,,1
20306722SG,qqnjzr3vcd,"Affordance Norms_MSU_TEX",1,4,2022-11-17T04:04:00+00:00,65.028645038605,6,"updated stim.csv",Version6.csv,"Version 6","List 6",shortening,,3002,4.92,2358,0.604328482,3003,BOI,-,-,"Please name all of the ways you could use this object. Keep in mind that one object can have many uses. Separate your responses with a comma.",,n,64759,,,9782,57128,,,,"baking, cooking, cutting, ",1
20306722SG,qqnjzr3vcd,"Affordance Norms_MSU_TEX",1,5,2022-11-17T04:04:30+00:00,30.612401008606,6,"updated stim.csv",Version6.csv,"Version 6","List 6",saucer,,3005,5.777777778,2249,0.304808074,3006,BOI,-,-,"Please name all of the ways you could use this object. Keep in mind that one object can have many uses. Separate your responses with a comma.",,n,30422,,,11776,26587,,,,"cook, seasoning",1
20306722SG,qqnjzr3vcd,"Affordance Norms_MSU_TEX",1,6,2022-11-17T04:05:15+00:00,44.339962005615,6,"updated stim.csv",Version6.csv,"Version 6","List 6",paperwork,,3001,5.625,1866,0.124284162,3002,BOI,-,-,"Please name all of the ways you could use this object. Keep in mind that one object can have many uses. Separate your responses with a comma.",,n,44161,,,3673,41618,,,,"homework, research , working, editing, projects, teaching ",1
20306722SG,qqnjzr3vcd,"Affordance Norms_MSU_TEX",1,7,2022-11-17T04:05:53+00:00,38.62544298172,6,"updated stim.csv",Version6.csv,"Version 6","List 6",grain,,3004,5.217391304,1143,0.226863762,3005,BOI,-,-,"Please name all of the ways you could use this object. Keep in mind that one object can have many uses. Separate your responses with a comma.",,n,38422,,,6838,36983,,,,"farming, seeding, feeding, baking, breaking down , planting",1
20306722SG,qqnjzr3vcd,"Affordance Norms_MSU_TEX",1,8,2022-11-17T04:06:19+00:00,25.605422019958,6,"updated stim.csv",Version6.csv,"Version 6","List 6",spaghetti,,3003,6,2461,0.090379998,3004,BOI,-,-,"Please name all of the ways you could use this object. Keep in mind that one object can have many uses. Separate your responses with a comma.",,n,25412,,,2104,18893,,,,"eating , cooking , tasting , smelling ,making, ",1
20306722SG,qqnjzr3vcd,"Affordance Norms_MSU_TEX",1,9,2022-11-17T04:06:21+00:00,2.3264510631561,6,"updated stim.csv",Version6.csv,"Version 6","List 6",,,,,,,0,Instruct,-,-,"You have completed this section. Press ENTER to continue",,"Instruct 5",2124,,,-1,-1,,,,,1
20306722SG,qqnjzr3vcd,"Affordance Norms_MSU_TEX",1,10,2022-11-17T04:06:26+00:00,5.1646440029144,6,"updated stim.csv",Version6.csv,"Version 6","List 6",,,,,,,0,Instruct,-,-,"You will now start the full experiment. Press ENTER when you are ready to begin.",,,4973,,,-1,-1,,,,,1
20306722SG,qqnjzr3vcd,"Affordance Norms_MSU_TEX",1,11,2022-11-17T04:07:15+00:00,48.603699922562,6,"updated stim.csv",Version6.csv,"Version 6","List 6",blindfold,,167,5.125,237,0.416830365,168,BOI,-,-,"Please name all of the ways you could use this object. Keep in mind that one object can have many uses. Separate your responses with a comma.",,y,48290,,,2340,46572,,,,"hiding, guessing, leading, playing a game , testing, trusting",1
20306722SG,qqnjzr3vcd,"Affordance Norms_MSU_TEX",1,12,2022-11-17T04:08:03+00:00,48.385581016541,6,"updated stim.csv",Version6.csv,"Version 6","List 6",footballer,,165,5.041666667,1031,0.824671402,166,BOI,-,-,"Please name all of the ways you could use this object. Keep in mind that one object can have many uses. Separate your responses with a comma.",,y,48178,,,6378,42625,,,,"athlete, big, athletic, skilled, crafted, responsible, leadership, ",1
20306722SG,qqnjzr3vcd,"Affordance Norms_MSU_TEX",1,13,2022-11-17T04:08:49+00:00,45.149677991867,6,"updated stim.csv",Version6.csv,"Version 6","List 6",crystal,,170,4.37037037,720,0.826771226,171,BOI,-,-,"Please name all of the ways you could use this object. Keep in mind that one object can have many uses. Separate your responses with a comma.",,y,44953,,,3464,39652,,,,"rock , witchcraft, jewelry, décor ",1
20306722SG,qqnjzr3vcd,"Affordance Norms_MSU_TEX",1,14,2022-11-17T04:09:25+00:00,36.917232990265,6,"updated stim.csv",Version6.csv,"Version 6","List 6",van,,163,6.28,2836,0.923120289,164,BOI,-,-,"Please name all of the ways you could use this object. Keep in mind that one object can have many uses. Separate your responses with a comma.",,y,36703,,,1521,16798,,,,"kidnapping, travel, family , large capacity, ",1
20306722SG,qqnjzr3vcd,"Affordance Norms_MSU_TEX",1,15,2022-11-17T04:09:37+00:00,11.297347068787,6,"updated stim.csv",Version6.csv,"Version 6","List 6",parsnip,,159,5.666666667,1878,0.217047994,160,BOI,-,-,"Please name all of the ways you could use this object. Keep in mind that one object can have many uses. Separate your responses with a comma.",,y,11122,,,8482,10128,,,,"i dont know ",1
20306722SG,qqnjzr3vcd,"Affordance Norms_MSU_TEX",1,16,2022-11-17T04:10:00+00:00,23.281014919281,6,"updated stim.csv",Version6.csv,"Version 6","List 6",chinaware,,158,5.913043478,527,0.987997305,159,BOI,-,-,"Please name all of the ways you could use this object. Keep in mind that one object can have many uses. Separate your responses with a comma.",,y,23104,,,2398,16339,,,,"decoration, eating , drinking, antique, plating ",1
20306722SG,qqnjzr3vcd,"Affordance Norms_MSU_TEX",1,17,2022-11-17T04:10:05+00:00,4.7536289691925,6,"updated stim.csv",Version6.csv,"Version 6","List 6",pilaf,,157,4.7,1959,0.18002119,158,BOI,-,-,"Please name all of the ways you could use this object. Keep in mind that one object can have many uses. Separate your responses with a comma.",,y,4585,,,1840,3958,,,,"i dont know",1
20306722SG,qqnjzr3vcd,"Affordance Norms_MSU_TEX",1,18,2022-11-17T04:11:12+00:00,67.45903801918,6,"updated stim.csv",Version6.csv,"Version 6","List 6",tabasco,,173,5.260869565,2615,0.993494851,174,BOI,-,-,"Please name all of the ways you could use this object. Keep in mind that one object can have many uses. Separate your responses with a comma.",,y,67190,,,5786,56798,,,,"seasoning, sauce, hot, spicy, ",1
20306722SG,qqnjzr3vcd,"Affordance Norms_MSU_TEX",1,19,2022-11-17T04:11:51+00:00,38.768136024475,6,"updated stim.csv",Version6.csv,"Version 6","List 6",bicep,,151,5.666666667,209,0.894670762,152,BOI,-,-,"Please name all of the ways you could use this object. Keep in mind that one object can have many uses. Separate your responses with a comma.",,y,38567,,,1727,37026,,,,"strong, weights, muscle, grown, strengthened, arm, curls ",1
20306722SG,qqnjzr3vcd,"Affordance Norms_MSU_TEX",1,20,2022-11-17T04:12:36+00:00,44.93218588829,6,"updated stim.csv",Version6.csv,"Version 6","List 6",screw,,152,5.708333333,2286,0.354129595,153,BOI,-,-,"Please name all of the ways you could use this object. Keep in mind that one object can have many uses. Separate your responses with a comma.",,y,44766,,,12853,43785,,,,"building, stabilize, nails, round, silver, driver",1
20306722SG,qqnjzr3vcd,"Affordance Norms_MSU_TEX",1,21,2022-11-17T04:13:10+00:00,34.179003000259,6,"updated stim.csv",Version6.csv,"Version 6","List 6",wand,,169,5.08,2892,0.374452273,170,BOI,-,-,"Please name all of the ways you could use this object. Keep in mind that one object can have many uses. Separate your responses with a comma.",,y,33874,,,4288,32169,,,,"witch, harry potter, wizard , magic",1
20306722SG,qqnjzr3vcd,"Affordance Norms_MSU_TEX",1,22,2022-11-17T04:14:24+00:00,73.402932167053,6,"updated stim.csv",Version6.csv,"Version 6","List 6",ginger,,178,5.32,1104,0.498173145,179,BOI,-,-,"Please name all of the ways you could use this object. Keep in mind that one object can have many uses. Separate your responses with a comma.",,y,73098,,,3684,34273,,,,"cookie, hair color, Irish, ",1
20306722SG,qqnjzr3vcd,"Affordance Norms_MSU_TEX",1,23,2022-11-17T04:15:23+00:00,59.646704912186,6,"updated stim.csv",Version6.csv,"Version 6","List 6",scale,,175,5.652173913,2259,0.959918952,176,BOI,-,-,"Please name all of the ways you could use this object. Keep in mind that one object can have many uses. Separate your responses with a comma.",,y,59394,,,2772,57894,,,,"weight, measure, grams, pounds, kilos, ",1
20306722SG,qqnjzr3vcd,"Affordance Norms_MSU_TEX",1,24,2022-11-17T04:16:15+00:00,51.378154993057,6,"updated stim.csv",Version6.csv,"Version 6","List 6",bathe,,156,5.214285714,168,0.590683649,157,BOI,-,-,"Please name all of the ways you could use this object. Keep in mind that one object can have many uses. Separate your responses with a comma.",,y,51176,,,3675,40886,,,,"bathtub, shower, cleaning, wet, shampoo, soap, conditioner, steamy, hot , bubbles, candles, ",1
20306722SG,qqnjzr3vcd,"Affordance Norms_MSU_TEX",1,25,2022-11-17T04:16:51+00:00,36.640269994736,6,"updated stim.csv",Version6.csv,"Version 6","List 6",balcony,,176,4.739130435,127,0.967270436,177,BOI,-,-,"Please name all of the ways you could use this object. Keep in mind that one object can have many uses. Separate your responses with a comma.",,y,36398,,,6291,21788,,,,"lights, view , city, high, ",1
20306722SG,qqnjzr3vcd,"Affordance Norms_MSU_TEX",1,26,2022-11-17T04:18:02+00:00,71.05285692215,6,"updated stim.csv",Version6.csv,"Version 6","List 6",whisky,,174,5.857142857,2931,0.820907003,175,BOI,-,-,"Please name all of the ways you could use this object. Keep in mind that one object can have many uses. Separate your responses with a comma.",,y,70775,,,2007,67468,,,,"drink, alcohol , crown, brown , warm, Tennessee, ",1
20306722SG,qqnjzr3vcd,"Affordance Norms_MSU_TEX",1,27,2022-11-17T04:18:45+00:00,42.772970199585,6,"updated stim.csv",Version6.csv,"Version 6","List 6",tofu,,180,5.555555556,2717,0.437108817,181,BOI,-,-,"Please name all of the ways you could use this object. Keep in mind that one object can have many uses. Separate your responses with a comma.",,y,42591,,,3469,41148,,,,"food, asian, fake meat, soybean, ",1
20306722SG,qqnjzr3vcd,"Affordance Norms_MSU_TEX",1,28,2022-11-17T04:19:06+00:00,20.923959970474,6,"updated stim.csv",Version6.csv,"Version 6","List 6",tinfoil,,155,5.458333333,2703,0.677843929,156,BOI,-,-,"Please name all of the ways you could use this object. Keep in mind that one object can have many uses. Separate your responses with a comma.",,y,20717,,,3698,19233,,,,"cooking, covering, conductor , silver, ",1
20306722SG,qqnjzr3vcd,"Affordance Norms_MSU_TEX",1,29,2022-11-17T04:19:18+00:00,11.916046857834,6,"updated stim.csv",Version6.csv,"Version 6","List 6",canvass,,177,4.347826087,421,0.150190136,178,BOI,-,-,"Please name all of the ways you could use this object. Keep in mind that one object can have many uses. Separate your responses with a comma.",,y,11749,,,1518,10762,,,,"painting, looking, education, website, ",1
20306722SG,qqnjzr3vcd,"Affordance Norms_MSU_TEX",1,30,2022-11-17T04:19:44+00:00,26.066397190094,6,"updated stim.csv",Version6.csv,"Version 6","List 6",bird,,171,4.896551724,220,0.733213397,172,BOI,-,-,"Please name all of the ways you could use this object. Keep in mind that one object can have many uses. Separate your responses with a comma.",,y,25900,,,3843,25261,,,,"animal, fly, sky, eagle, wings, black",1
20306722SG,qqnjzr3vcd,"Affordance Norms_MSU_TEX",1,31,2022-11-17T04:20:23+00:00,38.862397909164,6,"updated stim.csv",Version6.csv,"Version 6","List 6",harvest,,168,4.464285714,1256,0.861077807,169,BOI,-,-,"Please name all of the ways you could use this object. Keep in mind that one object can have many uses. Separate your responses with a comma.",,y,38664,,,14094,38053,,,,"thanksgiving, farming, collecting, pilgrims , accquiring",1
20306722SG,qqnjzr3vcd,"Affordance Norms_MSU_TEX",1,32,2022-11-17T04:21:38+00:00,74.735599994659,6,"updated stim.csv",Version6.csv,"Version 6","List 6",family,,153,5.291666667,944,0.967521962,154,BOI,-,-,"Please name all of the ways you could use this object. Keep in mind that one object can have many uses. Separate your responses with a comma.",,y,74448,,,2875,20796,,,,"mom, dad, sister, brother, love, ",1
20306722SG,qqnjzr3vcd,"Affordance Norms_MSU_TEX",1,33,2022-11-17T04:21:44+00:00,6.2931098937988,6,"updated stim.csv",Version6.csv,"Version 6","List 6",chronograph,,154,4.684210526,538,0.574977468,155,BOI,-,-,"Please name all of the ways you could use this object. Keep in mind that one object can have many uses. Separate your responses with a comma.",,y,6071,,,2894,4464,,,,,1
20306722SG,qqnjzr3vcd,"Affordance Norms_MSU_TEX",1,34,2022-11-17T04:22:11+00:00,27.696543216705,6,"updated stim.csv",Version6.csv,"Version 6","List 6",berry,,179,5.523809524,205,0.969656849,180,BOI,-,-,"Please name all of the ways you could use this object. Keep in mind that one object can have many uses. Separate your responses with a comma.",,y,27291,,,2033,26535,,,,"blue, fruit, black, straw, sweet , tart, ripe",1
20306722SG,qqnjzr3vcd,"Affordance Norms_MSU_TEX",1,35,2022-11-17T04:22:14+00:00,2.1936318874359,6,"updated stim.csv",Version6.csv,"Version 6","List 6",negligee,,172,4.75,1749,0.715344787,173,BOI,-,-,"Please name all of the ways you could use this object. Keep in mind that one object can have many uses. Separate your responses with a comma.",,y,1990,,,-1,-1,,,,,1
20306722SG,qqnjzr3vcd,"Affordance Norms_MSU_TEX",1,36,2022-11-17T04:22:43+00:00,29.044471979141,6,"updated stim.csv",Version6.csv,"Version 6","List 6",snowfall,,166,4.347826087,2433,0.405301502,167,BOI,-,-,"Please name all of the ways you could use this object. Keep in mind that one object can have many uses. Separate your responses with a comma.",,y,28847,,,1634,25326,,,,"cold, Christmas, winter, snowflakes, snow globes, ",1
20306722SG,qqnjzr3vcd,"Affordance Norms_MSU_TEX",1,37,2022-11-17T04:23:07+00:00,24.62845492363,6,"updated stim.csv",Version6.csv,"Version 6","List 6",physician,,161,5.12,1945,0.324749543,162,BOI,-,-,"Please name all of the ways you could use this object. Keep in mind that one object can have many uses. Separate your responses with a comma.",,y,24446,,,5870,24092,,,,"doctor, pills, help ,medicine, educated",1
20306722SG,qqnjzr3vcd,"Affordance Norms_MSU_TEX",1,38,2022-11-17T04:23:26+00:00,19.092001199722,6,"updated stim.csv",Version6.csv,"Version 6","List 6",desert,,160,4.291666667,779,0.522113996,161,BOI,-,-,"Please name all of the ways you could use this object. Keep in mind that one object can have many uses. Separate your responses with a comma.",,y,18751,,,3404,17664,,,,"hot, sand , brown, land, ",1
20306722SG,qqnjzr3vcd,"Affordance Norms_MSU_TEX",1,39,2022-11-17T04:23:46+00:00,20.015113830566,6,"updated stim.csv",Version6.csv,"Version 6","List 6",ticket,,164,5.333333333,2692,0.82890071,165,BOI,-,-,"Please name all of the ways you could use this object. Keep in mind that one object can have many uses. Separate your responses with a comma.",,y,19820,,,4234,19035,,,,"speeding, parking, fine, money, police, ",1
20306722SG,qqnjzr3vcd,"Affordance Norms_MSU_TEX",1,40,2022-11-17T04:24:41+00:00,54.840377092361,6,"updated stim.csv",Version6.csv,"Version 6","List 6",myself,,162,5.038461538,1731,0.310058292,163,BOI,-,-,"Please name all of the ways you could use this object. Keep in mind that one object can have many uses. Separate your responses with a comma.",,y,54635,,,17166,53784,,,,"female, athletic, tall, active, livley",1
20306722SG,qqnjzr3vcd,"Affordance Norms_MSU_TEX",1,41,2022-11-17T04:24:45+00:00,3.4724328517914,6,"updated stim.csv",Version6.csv,"Version 6","List 6",,,,,,,0,Instruct,,,"You will now be asked a few questions about your experience today.",,"Instruct 4",3287,,,-1,-1,,,,,1
