Username,ID,ExperimentName,Session,Trial,Date,TimeDif,"Condition Number","Stimuli File","Order File","Condition Description","Condition Notes",Stimuli*Cue,Stimuli*Answer,Stimuli*Shuffle,"Stimuli*Stimuli Notes",Stimuli*Value,Procedure*Item,"Procedure*Trial Type","Procedure*Max Time","Procedure*Min Time",Procedure*Text,"Procedure*Procedure Notes",Procedure*Shuffle,Response*RT,Response*Response,Response*Accuracy,Response*RTfirst,Response*RTlast,Response*strictAcc,Response*lenientAcc,Response*focus,Response*JOL,Response*Focus
ryan.najemy@uconn.edu,9slw9jnvps,"Affordance Norms_UCONN",1,1,2022-10-26T17:23:34+00:00,11.05911397934,30,"updated stim.csv",Version80.csv,"Version 80","List 80",,,,,,0,Instruct,-,10,"In this section, you will be presented with a series of objects. Please name as many possible uses for this object as you can think of by typing them in the box below each object.",,Instruct1,10926,,,-1,-1,,,,,1
ryan.najemy@uconn.edu,9slw9jnvps,"Affordance Norms_UCONN",1,2,2022-10-26T17:23:47+00:00,13.348243951797,30,"updated stim.csv",Version80.csv,"Version 80","List 80",,,,,,0,Instruct,-,10,"Please keep in mind that a single object will have more than one use. For example, a ball can be thrown or can be bounced or even stepped on. When listing multiple uses for one object, please separate each use with a comma (i.e., thrown, bounced, stepped on)",,Instruct2,13141,,,-1,-1,,,,,1
ryan.najemy@uconn.edu,9slw9jnvps,"Affordance Norms_UCONN",1,3,2022-10-26T17:23:54+00:00,6.8044018745422,30,"updated stim.csv",Version80.csv,"Version 80","List 80",,,,,,0,Instruct,-,-,"Before starting the experiment, you will complete a short practice sesstion. Press ENTER when you are ready to begin.",,Instruct3,6661,,,-1,-1,,,,,1
ryan.najemy@uconn.edu,9slw9jnvps,"Affordance Norms_UCONN",1,4,2022-10-26T17:24:02+00:00,7.7370080947876,30,"updated stim.csv",Version80.csv,"Version 80","List 80",saucer,,3005,5.777777778,2249,3006,BOI,-,-,"Please name all of the ways you could use this object. Keep in mind that one object can have many uses. Separate your responses with a comma.",,n,7479,,,3880,4697,,,,cook,1
ryan.najemy@uconn.edu,9slw9jnvps,"Affordance Norms_UCONN",1,5,2022-10-26T17:24:12+00:00,10.123986959457,30,"updated stim.csv",Version80.csv,"Version 80","List 80",paperwork,,3001,5.625,1866,3002,BOI,-,-,"Please name all of the ways you could use this object. Keep in mind that one object can have many uses. Separate your responses with a comma.",,n,9976,,,1803,9738,,,,"write, look, study",1
ryan.najemy@uconn.edu,9slw9jnvps,"Affordance Norms_UCONN",1,6,2022-10-26T17:24:21+00:00,8.9408650398254,30,"updated stim.csv",Version80.csv,"Version 80","List 80",spaghetti,,3003,6,2461,3004,BOI,-,-,"Please name all of the ways you could use this object. Keep in mind that one object can have many uses. Separate your responses with a comma.",,n,8784,,,1616,4128,,,,eat,1
ryan.najemy@uconn.edu,9slw9jnvps,"Affordance Norms_UCONN",1,7,2022-10-26T17:24:28+00:00,7.3080968856812,30,"updated stim.csv",Version80.csv,"Version 80","List 80",shortening,,3002,4.92,2358,3003,BOI,-,-,"Please name all of the ways you could use this object. Keep in mind that one object can have many uses. Separate your responses with a comma.",,n,7128,,,6587,6901,,,,cut,1
ryan.najemy@uconn.edu,9slw9jnvps,"Affordance Norms_UCONN",1,8,2022-10-26T17:24:41+00:00,12.511522054672,30,"updated stim.csv",Version80.csv,"Version 80","List 80",grain,,3004,5.217391304,1143,3005,BOI,-,-,"Please name all of the ways you could use this object. Keep in mind that one object can have many uses. Separate your responses with a comma.",,n,12358,,,11612,12270,,,,limit,1
ryan.najemy@uconn.edu,9slw9jnvps,"Affordance Norms_UCONN",1,9,2022-10-26T17:24:42+00:00,1.0341880321503,30,"updated stim.csv",Version80.csv,"Version 80","List 80",,,,,,0,Instruct,-,-,"You have completed this section. Press ENTER to continue",,"Instruct 5",854,,,-1,-1,,,,,1
ryan.najemy@uconn.edu,9slw9jnvps,"Affordance Norms_UCONN",1,10,2022-10-26T17:24:43+00:00,1.6666541099548,30,"updated stim.csv",Version80.csv,"Version 80","List 80",,,,,,0,Instruct,-,-,"You will now start the full experiment. Press ENTER when you are ready to begin.",,,1396,,,-1,-1,,,,,1
ryan.najemy@uconn.edu,9slw9jnvps,"Affordance Norms_UCONN",1,11,2022-10-26T17:24:54+00:00,10.484795808792,30,"updated stim.csv",Version80.csv,"Version 80","List 80",globe,,2386,5.28,1116,2387,BOI,-,-,"Please name all of the ways you could use this object. Keep in mind that one object can have many uses. Separate your responses with a comma.",,y,10231,,,2295,9983,,,,"world, spin, geography",1
ryan.najemy@uconn.edu,9slw9jnvps,"Affordance Norms_UCONN",1,12,2022-10-26T17:24:59+00:00,5.2724311351776,30,"updated stim.csv",Version80.csv,"Version 80","List 80",mastiff,,2397,5,1617,2398,BOI,-,-,"Please name all of the ways you could use this object. Keep in mind that one object can have many uses. Separate your responses with a comma.",,y,5029,,,4667,4882,,,,idk,1
ryan.najemy@uconn.edu,9slw9jnvps,"Affordance Norms_UCONN",1,13,2022-10-26T17:25:04+00:00,4.948301076889,30,"updated stim.csv",Version80.csv,"Version 80","List 80",emerald,,2385,4.833333333,902,2386,BOI,-,-,"Please name all of the ways you could use this object. Keep in mind that one object can have many uses. Separate your responses with a comma.",,y,4798,,,4170,4671,,,,value,1
ryan.najemy@uconn.edu,9slw9jnvps,"Affordance Norms_UCONN",1,14,2022-10-26T17:25:14+00:00,9.7111268043518,30,"updated stim.csv",Version80.csv,"Version 80","List 80",environmentalist,,2387,4.482758621,915,2388,BOI,-,-,"Please name all of the ways you could use this object. Keep in mind that one object can have many uses. Separate your responses with a comma.",,y,9254,,,4430,8357,,,,"study, experiment, ",1
ryan.najemy@uconn.edu,9slw9jnvps,"Affordance Norms_UCONN",1,15,2022-10-26T17:25:25+00:00,11.533338069916,30,"updated stim.csv",Version80.csv,"Version 80","List 80",seashore,,2376,4.44,2299,2377,BOI,-,-,"Please name all of the ways you could use this object. Keep in mind that one object can have many uses. Separate your responses with a comma.",,y,11236,,,1815,11083,,,,"beach, swim, fun",1
ryan.najemy@uconn.edu,9slw9jnvps,"Affordance Norms_UCONN",1,16,2022-10-26T17:25:31+00:00,5.2419519424438,30,"updated stim.csv",Version80.csv,"Version 80","List 80",shelving,,2374,5.47826087,2336,2375,BOI,-,-,"Please name all of the ways you could use this object. Keep in mind that one object can have many uses. Separate your responses with a comma.",,y,4990,,,2783,4745,,,,organize,1
ryan.najemy@uconn.edu,9slw9jnvps,"Affordance Norms_UCONN",1,17,2022-10-26T17:25:36+00:00,5.7749781608582,30,"updated stim.csv",Version80.csv,"Version 80","List 80",pew,,2378,4.666666667,1936,2379,BOI,-,-,"Please name all of the ways you could use this object. Keep in mind that one object can have many uses. Separate your responses with a comma.",,y,5622,,,1864,5249,,,,"church, sit",1
ryan.najemy@uconn.edu,9slw9jnvps,"Affordance Norms_UCONN",1,18,2022-10-26T17:25:43+00:00,6.8062648773193,30,"updated stim.csv",Version80.csv,"Version 80","List 80",knuckle,,2389,5.76,1439,2390,BOI,-,-,"Please name all of the ways you could use this object. Keep in mind that one object can have many uses. Separate your responses with a comma.",,y,6625,,,2435,6499,,,,"hand, punch, crack",1
ryan.najemy@uconn.edu,9slw9jnvps,"Affordance Norms_UCONN",1,19,2022-10-26T17:25:54+00:00,10.699563980103,30,"updated stim.csv",Version80.csv,"Version 80","List 80",firebox,,2391,4.363636364,984,2392,BOI,-,-,"Please name all of the ways you could use this object. Keep in mind that one object can have many uses. Separate your responses with a comma.",,y,10525,,,3107,10312,,,,"hot, warmth",1
ryan.najemy@uconn.edu,9slw9jnvps,"Affordance Norms_UCONN",1,20,2022-10-26T17:26:02+00:00,7.6561460494995,30,"updated stim.csv",Version80.csv,"Version 80","List 80",clothespin,,2384,5.12,571,2385,BOI,-,-,"Please name all of the ways you could use this object. Keep in mind that one object can have many uses. Separate your responses with a comma.",,y,7419,,,2004,7311,,,,"hold, release",1
ryan.najemy@uconn.edu,9slw9jnvps,"Affordance Norms_UCONN",1,21,2022-10-26T17:26:05+00:00,3.9319500923157,30,"updated stim.csv",Version80.csv,"Version 80","List 80",woodcarver,,2400,4.625,2958,2401,BOI,-,-,"Please name all of the ways you could use this object. Keep in mind that one object can have many uses. Separate your responses with a comma.",,y,3783,,,2995,3623,,,,design,1
ryan.najemy@uconn.edu,9slw9jnvps,"Affordance Norms_UCONN",1,22,2022-10-26T17:26:17+00:00,11.672043800354,30,"updated stim.csv",Version80.csv,"Version 80","List 80",basket,,2398,6.391304348,162,2399,BOI,-,-,"Please name all of the ways you could use this object. Keep in mind that one object can have many uses. Separate your responses with a comma.",,y,11431,,,10604,11259,,,,carry,1
ryan.najemy@uconn.edu,9slw9jnvps,"Affordance Norms_UCONN",1,23,2022-10-26T17:26:20+00:00,2.9489641189575,30,"updated stim.csv",Version80.csv,"Version 80","List 80",musket,,2379,5.217391304,1725,2380,BOI,-,-,"Please name all of the ways you could use this object. Keep in mind that one object can have many uses. Separate your responses with a comma.",,y,2796,,,2008,2548,,,,shoot,1
ryan.najemy@uconn.edu,9slw9jnvps,"Affordance Norms_UCONN",1,24,2022-10-26T17:26:28+00:00,8.3396189212799,30,"updated stim.csv",Version80.csv,"Version 80","List 80",fingernail,,2371,5.88,979,2372,BOI,-,-,"Please name all of the ways you could use this object. Keep in mind that one object can have many uses. Separate your responses with a comma.",,y,8111,,,2273,7948,,,,"cut, pinch",1
ryan.najemy@uconn.edu,9slw9jnvps,"Affordance Norms_UCONN",1,25,2022-10-26T17:26:34+00:00,5.1410930156708,30,"updated stim.csv",Version80.csv,"Version 80","List 80",morphine,,2382,5.32,1684,2383,BOI,-,-,"Please name all of the ways you could use this object. Keep in mind that one object can have many uses. Separate your responses with a comma.",,y,4960,,,3358,4800,,,,idk,1
ryan.najemy@uconn.edu,9slw9jnvps,"Affordance Norms_UCONN",1,26,2022-10-26T17:26:40+00:00,6.2446949481964,30,"updated stim.csv",Version80.csv,"Version 80","List 80",uncle,,2393,5.392857143,2817,2394,BOI,-,-,"Please name all of the ways you could use this object. Keep in mind that one object can have many uses. Separate your responses with a comma.",,y,5978,,,1752,5836,,,,"relative, cool",1
ryan.najemy@uconn.edu,9slw9jnvps,"Affordance Norms_UCONN",1,27,2022-10-26T17:26:42+00:00,2.4930500984192,30,"updated stim.csv",Version80.csv,"Version 80","List 80",herring,,2395,4.409090909,1283,2396,BOI,-,-,"Please name all of the ways you could use this object. Keep in mind that one object can have many uses. Separate your responses with a comma.",,y,2291,,,1944,2154,,,,idk,1
ryan.najemy@uconn.edu,9slw9jnvps,"Affordance Norms_UCONN",1,28,2022-10-26T17:26:49+00:00,6.469290971756,30,"updated stim.csv",Version80.csv,"Version 80","List 80",beefsteak,,2396,5.227272727,191,2397,BOI,-,-,"Please name all of the ways you could use this object. Keep in mind that one object can have many uses. Separate your responses with a comma.",,y,6323,,,2530,6137,,,,"meat, protein",1
ryan.najemy@uconn.edu,9slw9jnvps,"Affordance Norms_UCONN",1,29,2022-10-26T17:26:54+00:00,5.4016489982605,30,"updated stim.csv",Version80.csv,"Version 80","List 80",jaguar,,2377,4.826086957,1371,2378,BOI,-,-,"Please name all of the ways you could use this object. Keep in mind that one object can have many uses. Separate your responses with a comma.",,y,5239,,,1214,4995,,,,"animal, cheetah",1
ryan.najemy@uconn.edu,9slw9jnvps,"Affordance Norms_UCONN",1,30,2022-10-26T17:26:58+00:00,4.1370320320129,30,"updated stim.csv",Version80.csv,"Version 80","List 80",mommy,,2375,5.434782609,1676,2376,BOI,-,-,"Please name all of the ways you could use this object. Keep in mind that one object can have many uses. Separate your responses with a comma.",,y,3959,,,3099,3813,,,,parent,1
ryan.najemy@uconn.edu,9slw9jnvps,"Affordance Norms_UCONN",1,31,2022-10-26T17:27:01+00:00,2.2387270927429,30,"updated stim.csv",Version80.csv,"Version 80","List 80",gramophone,,2380,5.25,1144,2381,BOI,-,-,"Please name all of the ways you could use this object. Keep in mind that one object can have many uses. Separate your responses with a comma.",,y,2091,,,1747,1942,,,,idk,1
ryan.najemy@uconn.edu,9slw9jnvps,"Affordance Norms_UCONN",1,32,2022-10-26T17:27:08+00:00,7.8555748462677,30,"updated stim.csv",Version80.csv,"Version 80","List 80",coconut,,2388,5.64,590,2389,BOI,-,-,"Please name all of the ways you could use this object. Keep in mind that one object can have many uses. Separate your responses with a comma.",,y,7582,,,6241,7434,,,,tropical,1
ryan.najemy@uconn.edu,9slw9jnvps,"Affordance Norms_UCONN",1,33,2022-10-26T17:27:13+00:00,4.5149660110474,30,"updated stim.csv",Version80.csv,"Version 80","List 80",crossbow,,2373,5.541666667,705,2374,BOI,-,-,"Please name all of the ways you could use this object. Keep in mind that one object can have many uses. Separate your responses with a comma.",,y,4299,,,1626,4159,,,,"shoot, aim",1
ryan.najemy@uconn.edu,9slw9jnvps,"Affordance Norms_UCONN",1,34,2022-10-26T17:27:17+00:00,4.1751041412354,30,"updated stim.csv",Version80.csv,"Version 80","List 80",sausage,,2372,6.48,2252,2373,BOI,-,-,"Please name all of the ways you could use this object. Keep in mind that one object can have many uses. Separate your responses with a comma.",,y,3978,,,1788,3759,,,,"food, meat",1
ryan.najemy@uconn.edu,9slw9jnvps,"Affordance Norms_UCONN",1,35,2022-10-26T17:27:21+00:00,3.614560842514,30,"updated stim.csv",Version80.csv,"Version 80","List 80",ballplayer,,2392,4.56,133,2393,BOI,-,-,"Please name all of the ways you could use this object. Keep in mind that one object can have many uses. Separate your responses with a comma.",,y,3310,,,2529,3198,,,,sports,1
ryan.najemy@uconn.edu,9slw9jnvps,"Affordance Norms_UCONN",1,36,2022-10-26T17:27:27+00:00,6.2925581932068,30,"updated stim.csv",Version80.csv,"Version 80","List 80",tradesman,,2390,4.84,2754,2391,BOI,-,-,"Please name all of the ways you could use this object. Keep in mind that one object can have many uses. Separate your responses with a comma.",,y,6004,,,5675,5884,,,,idk,1
ryan.najemy@uconn.edu,9slw9jnvps,"Affordance Norms_UCONN",1,37,2022-10-26T17:27:33+00:00,5.8846528530121,30,"updated stim.csv",Version80.csv,"Version 80","List 80",packet,,2383,4.52173913,1839,2384,BOI,-,-,"Please name all of the ways you could use this object. Keep in mind that one object can have many uses. Separate your responses with a comma.",,y,5735,,,3992,5575,,,,homework,1
ryan.najemy@uconn.edu,9slw9jnvps,"Affordance Norms_UCONN",1,38,2022-10-26T17:27:39+00:00,6.158035993576,30,"updated stim.csv",Version80.csv,"Version 80","List 80",hitchhiker,,2381,4.375,1293,2382,BOI,-,-,"Please name all of the ways you could use this object. Keep in mind that one object can have many uses. Separate your responses with a comma.",,y,5977,,,1321,5886,,,,"walk, hike, car",1
ryan.najemy@uconn.edu,9slw9jnvps,"Affordance Norms_UCONN",1,39,2022-10-26T17:27:41+00:00,1.9874811172485,30,"updated stim.csv",Version80.csv,"Version 80","List 80",ore,,2399,4.375,1818,2400,BOI,-,-,"Please name all of the ways you could use this object. Keep in mind that one object can have many uses. Separate your responses with a comma.",,y,1752,,,1402,1604,,,,idk,1
ryan.najemy@uconn.edu,9slw9jnvps,"Affordance Norms_UCONN",1,40,2022-10-26T17:27:47+00:00,5.8989999294281,30,"updated stim.csv",Version80.csv,"Version 80","List 80",coat,,2394,6.565217391,581,2395,BOI,-,-,"Please name all of the ways you could use this object. Keep in mind that one object can have many uses. Separate your responses with a comma.",,y,5614,,,1880,5455,,,,"jacket, warmth",1
ryan.najemy@uconn.edu,9slw9jnvps,"Affordance Norms_UCONN",1,41,2022-10-26T17:27:49+00:00,1.6788470745087,30,"updated stim.csv",Version80.csv,"Version 80","List 80",,,,,,0,Instruct,,,"You will now be asked a few questions about your experience today.",,"Instruct 4",1532,,,-1,-1,,,,,1
