Username,ID,ExperimentName,Session,Trial,Date,TimeDif,"Condition Number","Stimuli File","Order File","Condition Description","Condition Notes",Stimuli*Cue,Stimuli*Answer,Stimuli*Shuffle,"Stimuli*Stimuli Notes",Stimuli*Value,Procedure*Item,"Procedure*Trial Type","Procedure*Max Time","Procedure*Min Time",Procedure*Text,"Procedure*Procedure Notes",Procedure*Shuffle,Response*RT,Response*Response,Response*Accuracy,Response*RTfirst,Response*RTlast,Response*strictAcc,Response*lenientAcc,Response*focus,Response*JOL,Response*Focus
terence.falvey@uconn.edu,57udfp2azu,"Affordance Norms_UCONN",1,1,2022-11-15T20:51:51+00:00,13.75542807579,3,"updated stim.csv",Version53.csv,"Version 53","List 53",,,,,,0,Instruct,-,10,"In this section, you will be presented with a series of objects. Please name as many possible uses for this object as you can think of by typing them in the box below each object.",,Instruct1,11678,,,-1,-1,,,,,1
terence.falvey@uconn.edu,57udfp2azu,"Affordance Norms_UCONN",1,2,2022-11-15T20:52:02+00:00,10.668132066727,3,"updated stim.csv",Version53.csv,"Version 53","List 53",,,,,,0,Instruct,-,10,"Please keep in mind that a single object will have more than one use. For example, a ball can be thrown or can be bounced or even stepped on. When listing multiple uses for one object, please separate each use with a comma (i.e., thrown, bounced, stepped on)",,Instruct2,10520,,,-1,-1,,,,,1
terence.falvey@uconn.edu,57udfp2azu,"Affordance Norms_UCONN",1,3,2022-11-15T20:52:06+00:00,3.9360718727112,3,"updated stim.csv",Version53.csv,"Version 53","List 53",,,,,,0,Instruct,-,-,"Before starting the experiment, you will complete a short practice sesstion. Press ENTER when you are ready to begin.",,Instruct3,3790,,,-1,-1,,,,,1
terence.falvey@uconn.edu,57udfp2azu,"Affordance Norms_UCONN",1,4,2022-11-15T20:52:33+00:00,26.918198108673,3,"updated stim.csv",Version53.csv,"Version 53","List 53",grain,,3004,5.217391304,1143,3005,BOI,-,-,"Please name all of the ways you could use this object. Keep in mind that one object can have many uses. Separate your responses with a comma.",,n,26683,,,3914,25599,,,,"eat, cook, bake, harvest, grow, farm, buy, sell, trade, barter",1
terence.falvey@uconn.edu,57udfp2azu,"Affordance Norms_UCONN",1,5,2022-11-15T20:53:08+00:00,35.240167856216,3,"updated stim.csv",Version53.csv,"Version 53","List 53",paperwork,,3001,5.625,1866,3002,BOI,-,-,"Please name all of the ways you could use this object. Keep in mind that one object can have many uses. Separate your responses with a comma.",,n,34920,,,1810,32607,,,,"do, give, complete, fill out, hate, love, burn, disregard, ",1
terence.falvey@uconn.edu,57udfp2azu,"Affordance Norms_UCONN",1,6,2022-11-15T20:53:25+00:00,16.995234012604,3,"updated stim.csv",Version53.csv,"Version 53","List 53",spaghetti,,3003,6,2461,3004,BOI,-,-,"Please name all of the ways you could use this object. Keep in mind that one object can have many uses. Separate your responses with a comma.",,n,16845,,,1748,13785,,,,"eat, cook, make, sell, buy, barter, trade, feed",1
terence.falvey@uconn.edu,57udfp2azu,"Affordance Norms_UCONN",1,7,2022-11-15T20:53:54+00:00,28.849900960922,3,"updated stim.csv",Version53.csv,"Version 53","List 53",shortening,,3002,4.92,2358,3003,BOI,-,-,"Please name all of the ways you could use this object. Keep in mind that one object can have many uses. Separate your responses with a comma.",,n,28611,,,12069,27554,,,,"time, length, temper",1
terence.falvey@uconn.edu,57udfp2azu,"Affordance Norms_UCONN",1,8,2022-11-15T20:54:05+00:00,10.847099065781,3,"updated stim.csv",Version53.csv,"Version 53","List 53",saucer,,3005,5.777777778,2249,3006,BOI,-,-,"Please name all of the ways you could use this object. Keep in mind that one object can have many uses. Separate your responses with a comma.",,n,10704,,,2008,9950,,,,"make, use, buy, sell, trade, barter",1
terence.falvey@uconn.edu,57udfp2azu,"Affordance Norms_UCONN",1,9,2022-11-15T20:54:06+00:00,1.3050479888916,3,"updated stim.csv",Version53.csv,"Version 53","List 53",,,,,,0,Instruct,-,-,"You have completed this section. Press ENTER to continue",,"Instruct 5",1158,,,-1,-1,,,,,1
terence.falvey@uconn.edu,57udfp2azu,"Affordance Norms_UCONN",1,10,2022-11-15T20:54:08+00:00,2.4018459320068,3,"updated stim.csv",Version53.csv,"Version 53","List 53",,,,,,0,Instruct,-,-,"You will now start the full experiment. Press ENTER when you are ready to begin.",,,2241,,,-1,-1,,,,,1
terence.falvey@uconn.edu,57udfp2azu,"Affordance Norms_UCONN",1,11,2022-11-15T20:54:35+00:00,26.040997982025,3,"updated stim.csv",Version53.csv,"Version 53","List 53",therapist,,1576,5.148148148,2675,1577,BOI,-,-,"Please name all of the ways you could use this object. Keep in mind that one object can have many uses. Separate your responses with a comma.",,y,25799,,,1768,23618,,,,"use, hire, thank, talk to, gain insight from, love, hate, ",1
terence.falvey@uconn.edu,57udfp2azu,"Affordance Norms_UCONN",1,12,2022-11-15T20:54:56+00:00,21.303215026855,3,"updated stim.csv",Version53.csv,"Version 53","List 53",slipper,,1564,6.166666667,2417,1565,BOI,-,-,"Please name all of the ways you could use this object. Keep in mind that one object can have many uses. Separate your responses with a comma.",,y,21051,,,1760,20222,,,,"wear, use, buy, sell, look at, talk to, walk on",1
terence.falvey@uconn.edu,57udfp2azu,"Affordance Norms_UCONN",1,13,2022-11-15T20:55:08+00:00,12.08301615715,3,"updated stim.csv",Version53.csv,"Version 53","List 53",bodyguard,,1570,4.72,262,1571,BOI,-,-,"Please name all of the ways you could use this object. Keep in mind that one object can have many uses. Separate your responses with a comma.",,y,11936,,,5299,10672,,,,"use, hire, buy, sell",1
terence.falvey@uconn.edu,57udfp2azu,"Affordance Norms_UCONN",1,14,2022-11-15T20:55:27+00:00,19.056067943573,3,"updated stim.csv",Version53.csv,"Version 53","List 53",napkin,,1579,6.333333333,1735,1580,BOI,-,-,"Please name all of the ways you could use this object. Keep in mind that one object can have many uses. Separate your responses with a comma.",,y,18893,,,2318,14873,,,,"clean, wipe, absorb, draw on",1
terence.falvey@uconn.edu,57udfp2azu,"Affordance Norms_UCONN",1,15,2022-11-15T20:55:38+00:00,10.728353023529,3,"updated stim.csv",Version53.csv,"Version 53","List 53",publication,,1578,4.48,2085,1579,BOI,-,-,"Please name all of the ways you could use this object. Keep in mind that one object can have many uses. Separate your responses with a comma.",,y,10585,,,2406,10260,,,,"use, buy, sell",1
terence.falvey@uconn.edu,57udfp2azu,"Affordance Norms_UCONN",1,16,2022-11-15T20:55:47+00:00,9.2483220100403,3,"updated stim.csv",Version53.csv,"Version 53","List 53",speakers,,1565,4.92,2464,1566,BOI,-,-,"Please name all of the ways you could use this object. Keep in mind that one object can have many uses. Separate your responses with a comma.",,y,9107,,,1546,9000,,,,"use, buy, sell, play music",1
terence.falvey@uconn.edu,57udfp2azu,"Affordance Norms_UCONN",1,17,2022-11-15T20:55:52+00:00,5.2598509788513,3,"updated stim.csv",Version53.csv,"Version 53","List 53",gourd,,1566,5.208333333,1141,1567,BOI,-,-,"Please name all of the ways you could use this object. Keep in mind that one object can have many uses. Separate your responses with a comma.",,y,5120,,,1669,4719,,,,"dont know what this is",1
terence.falvey@uconn.edu,57udfp2azu,"Affordance Norms_UCONN",1,18,2022-11-15T20:56:04+00:00,11.836770057678,3,"updated stim.csv",Version53.csv,"Version 53","List 53",ammunition,,1567,4.592592593,35,1568,BOI,-,-,"Please name all of the ways you could use this object. Keep in mind that one object can have many uses. Separate your responses with a comma.",,y,11701,,,2373,11574,,,,"shoot, buy, sell, trade, kill, scare",1
terence.falvey@uconn.edu,57udfp2azu,"Affordance Norms_UCONN",1,19,2022-11-15T20:56:14+00:00,9.6201329231262,3,"updated stim.csv",Version53.csv,"Version 53","List 53",table,,1589,6.4,2616,1590,BOI,-,-,"Please name all of the ways you could use this object. Keep in mind that one object can have many uses. Separate your responses with a comma.",,y,9477,,,2240,7201,,,,"sit, stand, place things, ",1
terence.falvey@uconn.edu,57udfp2azu,"Affordance Norms_UCONN",1,20,2022-11-15T20:56:23+00:00,9.4090640544891,3,"updated stim.csv",Version53.csv,"Version 53","List 53",ham,,1581,5.541666667,1221,1582,BOI,-,-,"Please name all of the ways you could use this object. Keep in mind that one object can have many uses. Separate your responses with a comma.",,y,9236,,,1563,9134,,,,"eat, buy, sell, trade",1
terence.falvey@uconn.edu,57udfp2azu,"Affordance Norms_UCONN",1,21,2022-11-15T20:56:31+00:00,7.5764420032501,3,"updated stim.csv",Version53.csv,"Version 53","List 53",custard,,1574,4.956521739,734,1575,BOI,-,-,"Please name all of the ways you could use this object. Keep in mind that one object can have many uses. Separate your responses with a comma.",,y,7437,,,1712,7350,,,,"eat, buy, sell, trade",1
terence.falvey@uconn.edu,57udfp2azu,"Affordance Norms_UCONN",1,22,2022-11-15T20:56:40+00:00,8.9462058544159,3,"updated stim.csv",Version53.csv,"Version 53","List 53",carrot,,1583,6.043478261,441,1584,BOI,-,-,"Please name all of the ways you could use this object. Keep in mind that one object can have many uses. Separate your responses with a comma.",,y,8776,,,1348,8299,,,,"eat, grow, buy, sell, trade, ",1
terence.falvey@uconn.edu,57udfp2azu,"Affordance Norms_UCONN",1,23,2022-11-15T20:56:50+00:00,10.212284088135,3,"updated stim.csv",Version53.csv,"Version 53","List 53",bifocal,,1584,4.9,211,1585,BOI,-,-,"Please name all of the ways you could use this object. Keep in mind that one object can have many uses. Separate your responses with a comma.",,y,9087,,,2246,8853,,,,"look, see, use, buy, sell",1
terence.falvey@uconn.edu,57udfp2azu,"Affordance Norms_UCONN",1,24,2022-11-15T20:56:57+00:00,7.1855690479279,3,"updated stim.csv",Version53.csv,"Version 53","List 53",earwax,,1575,5.041666667,884,1576,BOI,-,-,"Please name all of the ways you could use this object. Keep in mind that one object can have many uses. Separate your responses with a comma.",,y,7002,,,3878,5568,,,,"eat ",1
terence.falvey@uconn.edu,57udfp2azu,"Affordance Norms_UCONN",1,25,2022-11-15T20:57:05+00:00,7.9864230155945,3,"updated stim.csv",Version53.csv,"Version 53","List 53",bridesmaid,,1568,5.08,321,1569,BOI,-,-,"Please name all of the ways you could use this object. Keep in mind that one object can have many uses. Separate your responses with a comma.",,y,7848,,,2700,5023,,,,help,1
terence.falvey@uconn.edu,57udfp2azu,"Affordance Norms_UCONN",1,26,2022-11-15T20:57:10+00:00,5.1434378623962,3,"updated stim.csv",Version53.csv,"Version 53","List 53",cashmere,,1586,4.875,450,1587,BOI,-,-,"Please name all of the ways you could use this object. Keep in mind that one object can have many uses. Separate your responses with a comma.",,y,5008,,,1798,4811,,,,"wear, buy, sell",1
terence.falvey@uconn.edu,57udfp2azu,"Affordance Norms_UCONN",1,27,2022-11-15T20:57:16+00:00,6.2363560199738,3,"updated stim.csv",Version53.csv,"Version 53","List 53",you,,1590,5.52,2996,1591,BOI,-,-,"Please name all of the ways you could use this object. Keep in mind that one object can have many uses. Separate your responses with a comma.",,y,6037,,,4082,5853,,,,improvement,1
terence.falvey@uconn.edu,57udfp2azu,"Affordance Norms_UCONN",1,28,2022-11-15T20:57:22+00:00,5.9041030406952,3,"updated stim.csv",Version53.csv,"Version 53","List 53",bankbook,,1587,5.363636364,143,1588,BOI,-,-,"Please name all of the ways you could use this object. Keep in mind that one object can have many uses. Separate your responses with a comma.",,y,5755,,,2287,5643,,,,"dont know what this is",1
terence.falvey@uconn.edu,57udfp2azu,"Affordance Norms_UCONN",1,29,2022-11-15T20:57:27+00:00,4.6094059944153,3,"updated stim.csv",Version53.csv,"Version 53","List 53",cuttlefish,,1588,4.454545455,740,1589,BOI,-,-,"Please name all of the ways you could use this object. Keep in mind that one object can have many uses. Separate your responses with a comma.",,y,4466,,,1568,4411,,,,"dont know what this is",1
terence.falvey@uconn.edu,57udfp2azu,"Affordance Norms_UCONN",1,30,2022-11-15T20:57:33+00:00,6.2757279872894,3,"updated stim.csv",Version53.csv,"Version 53","List 53",planner,,1563,4.916666667,1988,1564,BOI,-,-,"Please name all of the ways you could use this object. Keep in mind that one object can have many uses. Separate your responses with a comma.",,y,6129,,,1613,5891,,,,"plan ,buy , sell",1
terence.falvey@uconn.edu,57udfp2azu,"Affordance Norms_UCONN",1,31,2022-11-15T20:57:38+00:00,4.982127904892,3,"updated stim.csv",Version53.csv,"Version 53","List 53",waistcoat,,1573,6.44,2882,1574,BOI,-,-,"Please name all of the ways you could use this object. Keep in mind that one object can have many uses. Separate your responses with a comma.",,y,4848,,,1530,4704,,,,"dont know what thisis",1
terence.falvey@uconn.edu,57udfp2azu,"Affordance Norms_UCONN",1,32,2022-11-15T20:57:44+00:00,5.553955078125,3,"updated stim.csv",Version53.csv,"Version 53","List 53",penknife,,1572,5.833333333,1915,1573,BOI,-,-,"Please name all of the ways you could use this object. Keep in mind that one object can have many uses. Separate your responses with a comma.",,y,5413,,,1867,5258,,,,"dont know what this is",1
terence.falvey@uconn.edu,57udfp2azu,"Affordance Norms_UCONN",1,33,2022-11-15T20:57:47+00:00,3.3233320713043,3,"updated stim.csv",Version53.csv,"Version 53","List 53",graphite,,1580,4.590909091,1159,1581,BOI,-,-,"Please name all of the ways you could use this object. Keep in mind that one object can have many uses. Separate your responses with a comma.",,y,3156,,,2137,3072,,,,draw,1
terence.falvey@uconn.edu,57udfp2azu,"Affordance Norms_UCONN",1,34,2022-11-15T20:57:57+00:00,9.8902070522308,3,"updated stim.csv",Version53.csv,"Version 53","List 53",kids,,1571,6.44,1416,1572,BOI,-,-,"Please name all of the ways you could use this object. Keep in mind that one object can have many uses. Separate your responses with a comma.",,y,9739,,,3410,9372,,,,"speak to, help, buy, sel",1
terence.falvey@uconn.edu,57udfp2azu,"Affordance Norms_UCONN",1,35,2022-11-15T20:58:02+00:00,5.4049608707428,3,"updated stim.csv",Version53.csv,"Version 53","List 53",mucus,,1585,4.88,1709,1586,BOI,-,-,"Please name all of the ways you could use this object. Keep in mind that one object can have many uses. Separate your responses with a comma.",,y,5268,,,1675,4146,,,,"spit, swallow",1
terence.falvey@uconn.edu,57udfp2azu,"Affordance Norms_UCONN",1,36,2022-11-15T20:58:12+00:00,9.3215560913086,3,"updated stim.csv",Version53.csv,"Version 53","List 53",rosemary,,1569,5.379310345,2196,1570,BOI,-,-,"Please name all of the ways you could use this object. Keep in mind that one object can have many uses. Separate your responses with a comma.",,y,9182,,,2034,8967,,,,"cook, grow, buy, sell",1
terence.falvey@uconn.edu,57udfp2azu,"Affordance Norms_UCONN",1,37,2022-11-15T20:58:22+00:00,10.699481964111,3,"updated stim.csv",Version53.csv,"Version 53","List 53",excrement,,1577,4.56,926,1578,BOI,-,-,"Please name all of the ways you could use this object. Keep in mind that one object can have many uses. Separate your responses with a comma.",,y,10548,,,4063,10474,,,,"buy, sell, excrete",1
terence.falvey@uconn.edu,57udfp2azu,"Affordance Norms_UCONN",1,38,2022-11-15T20:58:25+00:00,2.9678730964661,3,"updated stim.csv",Version53.csv,"Version 53","List 53",maiden,,1582,4.44,1575,1583,BOI,-,-,"Please name all of the ways you could use this object. Keep in mind that one object can have many uses. Separate your responses with a comma.",,y,2821,,,1746,2148,,,,help,1
terence.falvey@uconn.edu,57udfp2azu,"Affordance Norms_UCONN",1,39,2022-11-15T20:58:29+00:00,3.3874309062958,3,"updated stim.csv",Version53.csv,"Version 53","List 53",trashcan,,1561,5.76,2765,1562,BOI,-,-,"Please name all of the ways you could use this object. Keep in mind that one object can have many uses. Separate your responses with a comma.",,y,3245,,,2945,3107,,,,use,1
terence.falvey@uconn.edu,57udfp2azu,"Affordance Norms_UCONN",1,40,2022-11-15T20:58:31+00:00,2.1507070064545,3,"updated stim.csv",Version53.csv,"Version 53","List 53",defendant,,1562,4.291666667,767,1563,BOI,-,-,"Please name all of the ways you could use this object. Keep in mind that one object can have many uses. Separate your responses with a comma.",,y,2008,,,1401,1783,,,,help,1
terence.falvey@uconn.edu,57udfp2azu,"Affordance Norms_UCONN",1,41,2022-11-15T20:58:33+00:00,2.0619869232178,3,"updated stim.csv",Version53.csv,"Version 53","List 53",,,,,,0,Instruct,,,"You will now be asked a few questions about your experience today.",,"Instruct 4",1914,,,-1,-1,,,,,1
