Username,ID,ExperimentName,Session,Trial,Date,TimeDif,"Condition Number","Stimuli File","Order File","Condition Description","Condition Notes",Stimuli*Cue,Stimuli*Answer,Stimuli*Shuffle,"Stimuli*Stimuli Notes",Stimuli*Value,Procedure*Item,"Procedure*Trial Type","Procedure*Max Time","Procedure*Min Time",Procedure*Text,"Procedure*Procedure Notes",Procedure*Shuffle,Response*RT,Response*Response,Response*Accuracy,Response*RTfirst,Response*RTlast,Response*strictAcc,Response*lenientAcc,Response*focus,Response*JOL,Response*Focus
EB2483,9a6a96k1lq,"Affordance Norms_ILSTU",1,1,2022-09-22T02:30:33+00:00,11.552526950836,7,"updated stim.csv",Version7.csv,"Version 7","List 7",,,,,,0,Instruct,-,10,"In this section, you will be presented with a series of objects. Please name as many possible uses for this object as you can think of by typing them in the box below each object.",,Instruct1,11489,,,-1,-1,,,,,1
EB2483,9a6a96k1lq,"Affordance Norms_ILSTU",1,2,2022-09-22T02:30:44+00:00,10.936935186386,7,"updated stim.csv",Version7.csv,"Version 7","List 7",,,,,,0,Instruct,-,10,"Please keep in mind that a single object will have more than one use. For example, a ball can be thrown or can be bounced or even stepped on. When listing multiple uses for one object, please separate each use with a comma (i.e., thrown, bounced, stepped on)",,Instruct2,10832,,,-1,-1,,,,,1
EB2483,9a6a96k1lq,"Affordance Norms_ILSTU",1,3,2022-09-22T02:30:50+00:00,6.3745348453522,7,"updated stim.csv",Version7.csv,"Version 7","List 7",,,,,,0,Instruct,-,-,"Before starting the experiment, you will complete a short practice sesstion. Press ENTER when you are ready to begin.",,Instruct3,6196,,,-1,-1,,,,,1
EB2483,9a6a96k1lq,"Affordance Norms_ILSTU",1,4,2022-09-22T02:31:55+00:00,65.239575147629,7,"updated stim.csv",Version7.csv,"Version 7","List 7",grain,,3004,5.217391304,1143,3005,BOI,-,-,"Please name all of the ways you could use this object. Keep in mind that one object can have many uses. Separate your responses with a comma.",,n,65015,,,4850,60101,,,,"sandpaper (texture), food",1
EB2483,9a6a96k1lq,"Affordance Norms_ILSTU",1,5,2022-09-22T02:32:16+00:00,20.933017969131,7,"updated stim.csv",Version7.csv,"Version 7","List 7",saucer,,3005,5.777777778,2249,3006,BOI,-,-,"Please name all of the ways you could use this object. Keep in mind that one object can have many uses. Separate your responses with a comma.",,n,20744,,,2459,19799,,,,"spaceship, teacup, food, dish",1
EB2483,9a6a96k1lq,"Affordance Norms_ILSTU",1,6,2022-09-22T02:33:13+00:00,56.912030935287,7,"updated stim.csv",Version7.csv,"Version 7","List 7",spaghetti,,3003,6,2461,3004,BOI,-,-,"Please name all of the ways you could use this object. Keep in mind that one object can have many uses. Separate your responses with a comma.",,n,56722,,,3850,56176,,,,"cooking, consumption",1
EB2483,9a6a96k1lq,"Affordance Norms_ILSTU",1,7,2022-09-22T02:33:32+00:00,18.617145061493,7,"updated stim.csv",Version7.csv,"Version 7","List 7",paperwork,,3001,5.625,1866,3002,BOI,-,-,"Please name all of the ways you could use this object. Keep in mind that one object can have many uses. Separate your responses with a comma.",,n,18446,,,3201,17169,,,,"work, school, business ",1
EB2483,9a6a96k1lq,"Affordance Norms_ILSTU",1,8,2022-09-22T02:33:38+00:00,5.9777569770813,7,"updated stim.csv",Version7.csv,"Version 7","List 7",shortening,,3002,4.92,2358,3003,BOI,-,-,"Please name all of the ways you could use this object. Keep in mind that one object can have many uses. Separate your responses with a comma.",,n,5848,,,2584,4918,,,,cooking,1
EB2483,9a6a96k1lq,"Affordance Norms_ILSTU",1,9,2022-09-22T02:33:39+00:00,1.3249230384827,7,"updated stim.csv",Version7.csv,"Version 7","List 7",,,,,,0,Instruct,-,-,"You have completed this section. Press ENTER to continue",,"Instruct 5",1187,,,-1,-1,,,,,1
EB2483,9a6a96k1lq,"Affordance Norms_ILSTU",1,10,2022-09-22T02:33:40+00:00,1.2871658802032,7,"updated stim.csv",Version7.csv,"Version 7","List 7",,,,,,0,Instruct,-,-,"You will now start the full experiment. Press ENTER when you are ready to begin.",,,1177,,,-1,-1,,,,,1
EB2483,9a6a96k1lq,"Affordance Norms_ILSTU",1,11,2022-09-22T02:34:16+00:00,35.373997926712,7,"updated stim.csv",Version7.csv,"Version 7","List 7",people,,205,6.076923077,1920,206,BOI,-,-,"Please name all of the ways you could use this object. Keep in mind that one object can have many uses. Separate your responses with a comma.",,y,35161,,,23605,34588,,,,"experiments, friends, family, experience",1
EB2483,9a6a96k1lq,"Affordance Norms_ILSTU",1,12,2022-09-22T02:34:43+00:00,26.963640213013,7,"updated stim.csv",Version7.csv,"Version 7","List 7",conductor,,203,4.75,624,204,BOI,-,-,"Please name all of the ways you could use this object. Keep in mind that one object can have many uses. Separate your responses with a comma.",,y,26714,,,1642,26023,,,,"train, music, electricity?",1
EB2483,9a6a96k1lq,"Affordance Norms_ILSTU",1,13,2022-09-22T02:35:12+00:00,29.400970935822,7,"updated stim.csv",Version7.csv,"Version 7","List 7",storeroom,,191,4.655172414,2553,192,BOI,-,-,"Please name all of the ways you could use this object. Keep in mind that one object can have many uses. Separate your responses with a comma.",,y,29144,,,15358,28615,,,,storage,1
EB2483,9a6a96k1lq,"Affordance Norms_ILSTU",1,14,2022-09-22T02:35:26+00:00,14.293427944183,7,"updated stim.csv",Version7.csv,"Version 7","List 7",silk,,181,4.8,2381,182,BOI,-,-,"Please name all of the ways you could use this object. Keep in mind that one object can have many uses. Separate your responses with a comma.",,y,14152,,,2434,13376,,,,"trade, sheets, shirts, robes, dresses",1
EB2483,9a6a96k1lq,"Affordance Norms_ILSTU",1,15,2022-09-22T02:35:51+00:00,24.343652963638,7,"updated stim.csv",Version7.csv,"Version 7","List 7",motorboat,,182,5.304347826,1695,183,BOI,-,-,"Please name all of the ways you could use this object. Keep in mind that one object can have many uses. Separate your responses with a comma.",,y,24128,,,20332,22818,,,,"summer activity",1
EB2483,9a6a96k1lq,"Affordance Norms_ILSTU",1,16,2022-09-22T02:36:30+00:00,39.704350948334,7,"updated stim.csv",Version7.csv,"Version 7","List 7",radish,,188,5.846153846,2124,189,BOI,-,-,"Please name all of the ways you could use this object. Keep in mind that one object can have many uses. Separate your responses with a comma.",,y,39498,,,4812,38126,,,,"food, medicine",1
EB2483,9a6a96k1lq,"Affordance Norms_ILSTU",1,17,2022-09-22T02:37:02+00:00,31.865327119827,7,"updated stim.csv",Version7.csv,"Version 7","List 7",grapevine,,186,4.869565217,1158,187,BOI,-,-,"Please name all of the ways you could use this object. Keep in mind that one object can have many uses. Separate your responses with a comma.",,y,31651,,,22250,30533,,,,"gossip,plant",1
EB2483,9a6a96k1lq,"Affordance Norms_ILSTU",1,18,2022-09-22T02:37:14+00:00,11.374269962311,7,"updated stim.csv",Version7.csv,"Version 7","List 7",controller,,202,5.458333333,630,203,BOI,-,-,"Please name all of the ways you could use this object. Keep in mind that one object can have many uses. Separate your responses with a comma.",,y,11242,,,2408,9739,,,,"gaming, tv",1
EB2483,9a6a96k1lq,"Affordance Norms_ILSTU",1,19,2022-09-22T02:37:27+00:00,13.192821025848,7,"updated stim.csv",Version7.csv,"Version 7","List 7",banquet,,201,4.538461538,145,202,BOI,-,-,"Please name all of the ways you could use this object. Keep in mind that one object can have many uses. Separate your responses with a comma.",,y,13080,,,3777,12692,,,,"dances, birthdays, events",1
EB2483,9a6a96k1lq,"Affordance Norms_ILSTU",1,20,2022-09-22T02:37:33+00:00,6.4121699333191,7,"updated stim.csv",Version7.csv,"Version 7","List 7",eyelid,,196,5.52173913,936,197,BOI,-,-,"Please name all of the ways you could use this object. Keep in mind that one object can have many uses. Separate your responses with a comma.",,y,6299,,,2419,5778,,,,"closing, opening",1
EB2483,9a6a96k1lq,"Affordance Norms_ILSTU",1,21,2022-09-22T02:38:17+00:00,44.197251081467,7,"updated stim.csv",Version7.csv,"Version 7","List 7",peanut,,185,6.192307692,1893,186,BOI,-,-,"Please name all of the ways you could use this object. Keep in mind that one object can have many uses. Separate your responses with a comma.",,y,43996,,,5122,42507,,,,"peanut butter, birdseed, food",1
EB2483,9a6a96k1lq,"Affordance Norms_ILSTU",1,22,2022-09-22T02:38:25+00:00,7.4909811019897,7,"updated stim.csv",Version7.csv,"Version 7","List 7",salesman,,206,4.84,2222,207,BOI,-,-,"Please name all of the ways you could use this object. Keep in mind that one object can have many uses. Separate your responses with a comma.",,y,7348,,,1482,4695,,,,"selling things",1
EB2483,9a6a96k1lq,"Affordance Norms_ILSTU",1,23,2022-09-22T02:38:43+00:00,18.082333803177,7,"updated stim.csv",Version7.csv,"Version 7","List 7",medic,,207,5.217391304,1636,208,BOI,-,-,"Please name all of the ways you could use this object. Keep in mind that one object can have many uses. Separate your responses with a comma.",,y,17955,,,12229,17077,,,,"when you or someone needs help",1
EB2483,9a6a96k1lq,"Affordance Norms_ILSTU",1,24,2022-09-22T02:39:08+00:00,24.761528015137,7,"updated stim.csv",Version7.csv,"Version 7","List 7",daddy,,183,5.24,745,184,BOI,-,-,"Please name all of the ways you could use this object. Keep in mind that one object can have many uses. Separate your responses with a comma.",,y,24583,,,16881,23793,,,,"not sure",1
EB2483,9a6a96k1lq,"Affordance Norms_ILSTU",1,25,2022-09-22T02:39:40+00:00,32.122596979141,7,"updated stim.csv",Version7.csv,"Version 7","List 7",mulch,,208,4.625,1715,209,BOI,-,-,"Please name all of the ways you could use this object. Keep in mind that one object can have many uses. Separate your responses with a comma.",,y,31911,,,23083,30375,,,,"gardening, landscaping",1
EB2483,9a6a96k1lq,"Affordance Norms_ILSTU",1,26,2022-09-22T02:39:55+00:00,14.77646112442,7,"updated stim.csv",Version7.csv,"Version 7","List 7",cushion,,190,5.75,733,191,BOI,-,-,"Please name all of the ways you could use this object. Keep in mind that one object can have many uses. Separate your responses with a comma.",,y,14666,,,1669,14303,,,,"couch, bed, chair, outside furniture",1
EB2483,9a6a96k1lq,"Affordance Norms_ILSTU",1,27,2022-09-22T02:40:10+00:00,15.543370962143,7,"updated stim.csv",Version7.csv,"Version 7","List 7",Guitar,,193,6.293243243,1193,194,BOI,-,-,"Please name all of the ways you could use this object. Keep in mind that one object can have many uses. Separate your responses with a comma.",,y,15413,,,2821,14939,,,,"instrument, decoration, playing, singing",1
EB2483,9a6a96k1lq,"Affordance Norms_ILSTU",1,28,2022-09-22T02:40:26+00:00,16.11496090889,7,"updated stim.csv",Version7.csv,"Version 7","List 7",kilt,,195,5.04,1418,196,BOI,-,-,"Please name all of the ways you could use this object. Keep in mind that one object can have many uses. Separate your responses with a comma.",,y,15983,,,4777,11246,,,,"fashion, Irish dancing",0.975
EB2483,9a6a96k1lq,"Affordance Norms_ILSTU",1,29,2022-09-22T02:40:56+00:00,29.47995018959,7,"updated stim.csv",Version7.csv,"Version 7","List 7",eyebath,,199,4.368421053,931,200,BOI,-,-,"Please name all of the ways you could use this object. Keep in mind that one object can have many uses. Separate your responses with a comma.",,y,29304,,,21840,27084,,,,"medication, cleaning",0.993
EB2483,9a6a96k1lq,"Affordance Norms_ILSTU",1,30,2022-09-22T02:41:05+00:00,9.2383389472961,7,"updated stim.csv",Version7.csv,"Version 7","List 7",pine,,200,4.347826087,1970,201,BOI,-,-,"Please name all of the ways you could use this object. Keep in mind that one object can have many uses. Separate your responses with a comma.",,y,9104,,,7990,8440,,,,tree,1
EB2483,9a6a96k1lq,"Affordance Norms_ILSTU",1,31,2022-09-22T02:41:18+00:00,13.271769046783,7,"updated stim.csv",Version7.csv,"Version 7","List 7",tent,,189,5.5,2664,190,BOI,-,-,"Please name all of the ways you could use this object. Keep in mind that one object can have many uses. Separate your responses with a comma.",,y,13112,,,1815,11200,,,,"camping, black friday, concerts",1
EB2483,9a6a96k1lq,"Affordance Norms_ILSTU",1,32,2022-09-22T02:41:36+00:00,17.373459815979,7,"updated stim.csv",Version7.csv,"Version 7","List 7",person,,198,6.12,1930,199,BOI,-,-,"Please name all of the ways you could use this object. Keep in mind that one object can have many uses. Separate your responses with a comma.",,y,17245,,,10758,16262,,,,"friends, family",1
EB2483,9a6a96k1lq,"Affordance Norms_ILSTU",1,33,2022-09-22T02:41:45+00:00,9.6006350517273,7,"updated stim.csv",Version7.csv,"Version 7","List 7",goldfish,,197,4.739130435,1133,198,BOI,-,-,"Please name all of the ways you could use this object. Keep in mind that one object can have many uses. Separate your responses with a comma.",,y,9475,,,2717,8870,,,,"snack, actual fish, pet",1
EB2483,9a6a96k1lq,"Affordance Norms_ILSTU",1,34,2022-09-22T02:42:23+00:00,38.05366396904,7,"updated stim.csv",Version7.csv,"Version 7","List 7",mucous,,184,5.04,1708,185,BOI,-,-,"Please name all of the ways you could use this object. Keep in mind that one object can have many uses. Separate your responses with a comma.",,y,37847,,,35841,37326,,,,adjective,1
EB2483,9a6a96k1lq,"Affordance Norms_ILSTU",1,35,2022-09-22T02:42:29+00:00,6.0317220687866,7,"updated stim.csv",Version7.csv,"Version 7","List 7",funnel,,209,4.833333333,1065,210,BOI,-,-,"Please name all of the ways you could use this object. Keep in mind that one object can have many uses. Separate your responses with a comma.",,y,5922,,,1255,5225,,,,"cake, tornado",1
EB2483,9a6a96k1lq,"Affordance Norms_ILSTU",1,36,2022-09-22T02:42:36+00:00,7.0315539836884,7,"updated stim.csv",Version7.csv,"Version 7","List 7",suspender,,194,5.76,2598,195,BOI,-,-,"Please name all of the ways you could use this object. Keep in mind that one object can have many uses. Separate your responses with a comma.",,y,6922,,,2145,6381,,,,"fashion, suits",1
EB2483,9a6a96k1lq,"Affordance Norms_ILSTU",1,37,2022-09-22T02:42:39+00:00,2.9373230934143,7,"updated stim.csv",Version7.csv,"Version 7","List 7",pad,,210,5.217391304,1840,211,BOI,-,-,"Please name all of the ways you could use this object. Keep in mind that one object can have many uses. Separate your responses with a comma.",,y,2833,,,1980,2375,,,,ipad,1
EB2483,9a6a96k1lq,"Affordance Norms_ILSTU",1,38,2022-09-22T02:43:00+00:00,20.482594966888,7,"updated stim.csv",Version7.csv,"Version 7","List 7",cheese,,187,6.391304348,506,188,BOI,-,-,"Please name all of the ways you could use this object. Keep in mind that one object can have many uses. Separate your responses with a comma.",,y,20293,,,2769,19738,,,,"pizza, queso, tacos, pasta",1
EB2483,9a6a96k1lq,"Affordance Norms_ILSTU",1,39,2022-09-22T02:43:15+00:00,15.666666984558,7,"updated stim.csv",Version7.csv,"Version 7","List 7",grandniece,,192,4.708333333,1150,193,BOI,-,-,"Please name all of the ways you could use this object. Keep in mind that one object can have many uses. Separate your responses with a comma.",,y,15525,,,14926,14926,,,,?,1
EB2483,9a6a96k1lq,"Affordance Norms_ILSTU",1,40,2022-09-22T02:43:19+00:00,3.9767570495605,7,"updated stim.csv",Version7.csv,"Version 7","List 7",store,,204,5.739130435,2550,205,BOI,-,-,"Please name all of the ways you could use this object. Keep in mind that one object can have many uses. Separate your responses with a comma.",,y,3838,,,1602,2961,,,,shopping,1
EB2483,9a6a96k1lq,"Affordance Norms_ILSTU",1,41,2022-09-22T02:43:20+00:00,1.1373889446259,7,"updated stim.csv",Version7.csv,"Version 7","List 7",,,,,,0,Instruct,,,"You will now be asked a few questions about your experience today.",,"Instruct 4",1013,,,-1,-1,,,,,1
