Username,ID,ExperimentName,Session,Trial,Date,TimeDif,"Condition Number","Stimuli File","Order File","Condition Description","Condition Notes",Stimuli*Cue,Stimuli*Answer,Stimuli*Shuffle,"Stimuli*Stimuli Notes",Stimuli*Value,Procedure*Item,"Procedure*Trial Type","Procedure*Max Time","Procedure*Min Time",Procedure*Text,"Procedure*Procedure Notes",Procedure*Shuffle,Response*RT,Response*Response,Response*Accuracy,Response*RTfirst,Response*RTlast,Response*strictAcc,Response*lenientAcc,Response*focus,Response*JOL,Response*Focus
sophia.boover@usm.edu,109rpkclti,"BOI Norms",1,1,2022-05-03T19:58:29+00:00,14.828415870667,2,"updated stim.csv",Version2.csv,"Version 2","List 2",,,,,,0,Instruct,-,10,"In this section, you will be presented with a series of objects. Please name as many possible uses for this object as you can think of by typing them in the box below each object.",,Instruct1,14665,,,-1,-1,,,,,1
sophia.boover@usm.edu,109rpkclti,"BOI Norms",1,2,2022-05-03T19:58:41+00:00,12.673341989517,2,"updated stim.csv",Version2.csv,"Version 2","List 2",,,,,,0,Instruct,-,10,"Please keep in mind that a single object will have more than one use. For example, a ball can be thrown or can be bounced or even stepped on. When listing multiple uses for one object, please separate each use with a comma (i.e., thrown, bounced, stepped on)",,Instruct2,12305,,,-1,-1,,,,,1
sophia.boover@usm.edu,109rpkclti,"BOI Norms",1,3,2022-05-03T19:58:45+00:00,3.3838331699371,2,"updated stim.csv",Version2.csv,"Version 2","List 2",,,,,,0,Instruct,-,-,"Before starting the experiment, you will complete a short practice sesstion. Press ENTER when you are ready to begin.",,Instruct3,3251,,,-1,-1,,,,,1
sophia.boover@usm.edu,109rpkclti,"BOI Norms",1,4,2022-05-03T19:59:03+00:00,18.556333780289,2,"updated stim.csv",Version2.csv,"Version 2","List 2",paperwork,,3001,5.625,1866,3002,BOI,-,-,"Please name all of the ways you could use this object. Keep in mind that one object can have many uses. Separate your responses with a comma.",,n,18219,,,4475,16749,,,,"write on, office use, legal use, job application",1
sophia.boover@usm.edu,109rpkclti,"BOI Norms",1,5,2022-05-03T19:59:15+00:00,11.803861141205,2,"updated stim.csv",Version2.csv,"Version 2","List 2",grain,,3004,5.217391304,1143,3005,BOI,-,-,"Please name all of the ways you could use this object. Keep in mind that one object can have many uses. Separate your responses with a comma.",,n,11618,,,1539,10520,,,,"wheat, cereal, food,",1
sophia.boover@usm.edu,109rpkclti,"BOI Norms",1,6,2022-05-03T19:59:28+00:00,12.86030292511,2,"updated stim.csv",Version2.csv,"Version 2","List 2",spaghetti,,3003,6,2461,3004,BOI,-,-,"Please name all of the ways you could use this object. Keep in mind that one object can have many uses. Separate your responses with a comma.",,n,12500,,,2156,11463,,,,"food, meals, get messy,",1
sophia.boover@usm.edu,109rpkclti,"BOI Norms",1,7,2022-05-03T19:59:39+00:00,10.769082069397,2,"updated stim.csv",Version2.csv,"Version 2","List 2",saucer,,3005,5.777777778,2249,3006,BOI,-,-,"Please name all of the ways you could use this object. Keep in mind that one object can have many uses. Separate your responses with a comma.",,n,10595,,,2001,9340,,,,"UFO, gravy, dish",1
sophia.boover@usm.edu,109rpkclti,"BOI Norms",1,8,2022-05-03T19:59:46+00:00,7.6630539894104,2,"updated stim.csv",Version2.csv,"Version 2","List 2",shortening,,3002,4.92,2358,3003,BOI,-,-,"Please name all of the ways you could use this object. Keep in mind that one object can have many uses. Separate your responses with a comma.",,n,7488,,,4894,6408,,,,"baking use",1
sophia.boover@usm.edu,109rpkclti,"BOI Norms",1,9,2022-05-03T19:59:48+00:00,1.4522349834442,2,"updated stim.csv",Version2.csv,"Version 2","List 2",,,,,,0,Instruct,-,-,"You have completed this section. Press ENTER to continue",,"Instruct 5",1280,,,-1,-1,,,,,1
sophia.boover@usm.edu,109rpkclti,"BOI Norms",1,10,2022-05-03T19:59:49+00:00,1.6736431121826,2,"updated stim.csv",Version2.csv,"Version 2","List 2",,,,,,0,Instruct,-,-,"You will now start the full experiment. Press ENTER when you are ready to begin.",,,1565,,,-1,-1,,,,,1
sophia.boover@usm.edu,109rpkclti,"BOI Norms",1,11,2022-05-03T20:00:03+00:00,13.584437847137,2,"updated stim.csv",Version2.csv,"Version 2","List 2",hotplate,,45,5.230769231,1323,46,BOI,-,-,"Please name all of the ways you could use this object. Keep in mind that one object can have many uses. Separate your responses with a comma.",,y,13341,,,2993,12454,,,,"used to heat things up, camping, science experiment",1
sophia.boover@usm.edu,109rpkclti,"BOI Norms",1,12,2022-05-03T20:00:24+00:00,21.341475009918,2,"updated stim.csv",Version2.csv,"Version 2","List 2",yogurt,,49,6.347826087,2994,50,BOI,-,-,"Please name all of the ways you could use this object. Keep in mind that one object can have many uses. Separate your responses with a comma.",,y,21155,,,1667,20618,,,,"eat for breakfast, mix in, parfait",1
sophia.boover@usm.edu,109rpkclti,"BOI Norms",1,13,2022-05-03T20:00:44+00:00,19.528574943542,2,"updated stim.csv",Version2.csv,"Version 2","List 2",trap,,57,4.695652174,2762,58,BOI,-,-,"Please name all of the ways you could use this object. Keep in mind that one object can have many uses. Separate your responses with a comma.",,y,19312,,,2958,19160,,,,"used on people, mentally, physically, emotionally, used on animals",1
sophia.boover@usm.edu,109rpkclti,"BOI Norms",1,14,2022-05-03T20:00:59+00:00,15.398262023926,2,"updated stim.csv",Version2.csv,"Version 2","List 2",toy,,43,6.08,2750,44,BOI,-,-,"Please name all of the ways you could use this object. Keep in mind that one object can have many uses. Separate your responses with a comma.",,y,15242,,,2665,14710,,,,"play with, give away, recieve",1
sophia.boover@usm.edu,109rpkclti,"BOI Norms",1,15,2022-05-03T20:01:16+00:00,16.775652170181,2,"updated stim.csv",Version2.csv,"Version 2","List 2",yourself,,34,5.583333333,2998,35,BOI,-,-,"Please name all of the ways you could use this object. Keep in mind that one object can have many uses. Separate your responses with a comma.",,y,16603,,,9250,15422,,,,"to do things, to live, to eat,",1
sophia.boover@usm.edu,109rpkclti,"BOI Norms",1,16,2022-05-03T20:01:29+00:00,13.290409803391,2,"updated stim.csv",Version2.csv,"Version 2","List 2",turban,,40,5.148148148,2799,41,BOI,-,-,"Please name all of the ways you could use this object. Keep in mind that one object can have many uses. Separate your responses with a comma.",,y,13002,,,2403,12483,,,,"dry hair, religious uses, hairstyle",1
sophia.boover@usm.edu,109rpkclti,"BOI Norms",1,17,2022-05-03T20:01:38+00:00,9.1621050834656,2,"updated stim.csv",Version2.csv,"Version 2","List 2",dolphin,,48,4.52,817,49,BOI,-,-,"Please name all of the ways you could use this object. Keep in mind that one object can have many uses. Separate your responses with a comma.",,y,8986,,,1516,8581,,,,"animal in ocean, aquarium ",1
sophia.boover@usm.edu,109rpkclti,"BOI Norms",1,18,2022-05-03T20:01:51+00:00,12.190779924393,2,"updated stim.csv",Version2.csv,"Version 2","List 2",antibiotics,,55,4.956521739,48,56,BOI,-,-,"Please name all of the ways you could use this object. Keep in mind that one object can have many uses. Separate your responses with a comma.",,y,12015,,,1723,11746,,,,"make you feel better, avoid infection",1
sophia.boover@usm.edu,109rpkclti,"BOI Norms",1,19,2022-05-03T20:02:00+00:00,8.8892810344696,2,"updated stim.csv",Version2.csv,"Version 2","List 2",teabag,,42,6.32,2642,43,BOI,-,-,"Please name all of the ways you could use this object. Keep in mind that one object can have many uses. Separate your responses with a comma.",,y,8616,,,1939,7619,,,,"used in tea, used for facial care",1
sophia.boover@usm.edu,109rpkclti,"BOI Norms",1,20,2022-05-03T20:02:08+00:00,8.0482659339905,2,"updated stim.csv",Version2.csv,"Version 2","List 2",satchel,,36,5.583333333,2245,37,BOI,-,-,"Please name all of the ways you could use this object. Keep in mind that one object can have many uses. Separate your responses with a comma.",,y,7787,,,1316,7346,,,,"used to hold things, accessory ",1
sophia.boover@usm.edu,109rpkclti,"BOI Norms",1,21,2022-05-03T20:02:21+00:00,13.265585184097,2,"updated stim.csv",Version2.csv,"Version 2","List 2",choreographer,,44,4.826086957,535,45,BOI,-,-,"Please name all of the ways you could use this object. Keep in mind that one object can have many uses. Separate your responses with a comma.",,y,12975,,,1797,9387,,,,"create dances, ",1
sophia.boover@usm.edu,109rpkclti,"BOI Norms",1,22,2022-05-03T20:02:33+00:00,11.714790821075,2,"updated stim.csv",Version2.csv,"Version 2","List 2",skittles,,38,5.24,2402,39,BOI,-,-,"Please name all of the ways you could use this object. Keep in mind that one object can have many uses. Separate your responses with a comma.",,y,11526,,,1218,11355,,,,"eat, count with, make fun deserts",1
sophia.boover@usm.edu,109rpkclti,"BOI Norms",1,23,2022-05-03T20:02:39+00:00,6.0301442146301,2,"updated stim.csv",Version2.csv,"Version 2","List 2",goalpost,,37,4.84,1121,38,BOI,-,-,"Please name all of the ways you could use this object. Keep in mind that one object can have many uses. Separate your responses with a comma.",,y,5865,,,4196,5693,,,,"used in sports",1
sophia.boover@usm.edu,109rpkclti,"BOI Norms",1,24,2022-05-03T20:02:48+00:00,9.8893709182739,2,"updated stim.csv",Version2.csv,"Version 2","List 2",prankster,,51,4.642857143,2058,52,BOI,-,-,"Please name all of the ways you could use this object. Keep in mind that one object can have many uses. Separate your responses with a comma.",,y,9725,,,4141,9547,,,,"do pranks on people",1
sophia.boover@usm.edu,109rpkclti,"BOI Norms",1,25,2022-05-03T20:02:56+00:00,7.1027829647064,2,"updated stim.csv",Version2.csv,"Version 2","List 2",assemblyman,,59,4.72,89,60,BOI,-,-,"Please name all of the ways you could use this object. Keep in mind that one object can have many uses. Separate your responses with a comma.",,y,6943,,,4080,6705,,,,"get things in order",1
sophia.boover@usm.edu,109rpkclti,"BOI Norms",1,26,2022-05-03T20:03:33+00:00,36.930521965027,2,"updated stim.csv",Version2.csv,"Version 2","List 2",rainwater,,60,5.407407407,2133,61,BOI,-,-,"Please name all of the ways you could use this object. Keep in mind that one object can have many uses. Separate your responses with a comma.",,y,36753,,,2686,36507,,,,"used to water flowers, water crops, water for ponds, water for animals, dance in",1
sophia.boover@usm.edu,109rpkclti,"BOI Norms",1,27,2022-05-03T20:03:46+00:00,13.759160995483,2,"updated stim.csv",Version2.csv,"Version 2","List 2",blower,,53,4.48,245,54,BOI,-,-,"Please name all of the ways you could use this object. Keep in mind that one object can have many uses. Separate your responses with a comma.",,y,13524,,,3094,12389,,,,"blow leaves",1
sophia.boover@usm.edu,109rpkclti,"BOI Norms",1,28,2022-05-03T20:04:01+00:00,14.739812135696,2,"updated stim.csv",Version2.csv,"Version 2","List 2",courtyard,,31,4.392857143,668,32,BOI,-,-,"Please name all of the ways you could use this object. Keep in mind that one object can have many uses. Separate your responses with a comma.",,y,14546,,,2222,14262,,,,"gather, play games, have a party",1
sophia.boover@usm.edu,109rpkclti,"BOI Norms",1,29,2022-05-03T20:04:22+00:00,21.486956834793,2,"updated stim.csv",Version2.csv,"Version 2","List 2",godmother,,46,5.19047619,1128,47,BOI,-,-,"Please name all of the ways you could use this object. Keep in mind that one object can have many uses. Separate your responses with a comma.",,y,21221,,,6858,21030,,,,"fairytale, religious, in place of mother",1
sophia.boover@usm.edu,109rpkclti,"BOI Norms",1,30,2022-05-03T20:04:35+00:00,12.672581195831,2,"updated stim.csv",Version2.csv,"Version 2","List 2",undergarment,,58,6.074074074,2822,59,BOI,-,-,"Please name all of the ways you could use this object. Keep in mind that one object can have many uses. Separate your responses with a comma.",,y,12472,,,2920,11947,,,,"to hold things in place",1
sophia.boover@usm.edu,109rpkclti,"BOI Norms",1,31,2022-05-03T20:04:48+00:00,13.048136949539,2,"updated stim.csv",Version2.csv,"Version 2","List 2",newscaster,,32,4.347826087,1757,33,BOI,-,-,"Please name all of the ways you could use this object. Keep in mind that one object can have many uses. Separate your responses with a comma.",,y,12681,,,8887,12376,,,,"report news",1
sophia.boover@usm.edu,109rpkclti,"BOI Norms",1,32,2022-05-03T20:04:55+00:00,6.7918019294739,2,"updated stim.csv",Version2.csv,"Version 2","List 2",gunpowder,,54,4.96,1201,55,BOI,-,-,"Please name all of the ways you could use this object. Keep in mind that one object can have many uses. Separate your responses with a comma.",,y,6642,,,2281,6354,,,,"make things go boom",1
sophia.boover@usm.edu,109rpkclti,"BOI Norms",1,33,2022-05-03T20:05:08+00:00,13.074965953827,2,"updated stim.csv",Version2.csv,"Version 2","List 2",coverall,,50,4.739130435,670,51,BOI,-,-,"Please name all of the ways you could use this object. Keep in mind that one object can have many uses. Separate your responses with a comma.",,y,12841,,,3246,12601,,,,"used in workplace, used for fashion",1
sophia.boover@usm.edu,109rpkclti,"BOI Norms",1,34,2022-05-03T20:05:17+00:00,8.9473960399628,2,"updated stim.csv",Version2.csv,"Version 2","List 2",gondola,,52,4.916666667,1137,53,BOI,-,-,"Please name all of the ways you could use this object. Keep in mind that one object can have many uses. Separate your responses with a comma.",,y,8767,,,3217,8534,,,,"transportation, fun amusement park",1
sophia.boover@usm.edu,109rpkclti,"BOI Norms",1,35,2022-05-03T20:05:32+00:00,14.776628017426,2,"updated stim.csv",Version2.csv,"Version 2","List 2",barman,,39,4.818181818,150,40,BOI,-,-,"Please name all of the ways you could use this object. Keep in mind that one object can have many uses. Separate your responses with a comma.",,y,14416,,,4361,14252,,,,"not sure",1
sophia.boover@usm.edu,109rpkclti,"BOI Norms",1,36,2022-05-03T20:05:42+00:00,10.089962005615,2,"updated stim.csv",Version2.csv,"Version 2","List 2",mice,,47,5,1653,48,BOI,-,-,"Please name all of the ways you could use this object. Keep in mind that one object can have many uses. Separate your responses with a comma.",,y,9878,,,2503,9756,,,,"rodents, pets, experimental objects",1
sophia.boover@usm.edu,109rpkclti,"BOI Norms",1,37,2022-05-03T20:06:04+00:00,22.124897003174,2,"updated stim.csv",Version2.csv,"Version 2","List 2",bottle,,35,5.464285714,287,36,BOI,-,-,"Please name all of the ways you could use this object. Keep in mind that one object can have many uses. Separate your responses with a comma.",,y,20666,,,2685,20423,,,,"accessory, drink out of, store liquids in",1
sophia.boover@usm.edu,109rpkclti,"BOI Norms",1,38,2022-05-03T20:06:09+00:00,4.6256279945374,2,"updated stim.csv",Version2.csv,"Version 2","List 2",tripe,,56,4.7,2778,57,BOI,-,-,"Please name all of the ways you could use this object. Keep in mind that one object can have many uses. Separate your responses with a comma.",,y,4257,,,3899,3899,,,,?,1
sophia.boover@usm.edu,109rpkclti,"BOI Norms",1,39,2022-05-03T20:06:26+00:00,17.718050003052,2,"updated stim.csv",Version2.csv,"Version 2","List 2",boot,,41,6.555555556,281,42,BOI,-,-,"Please name all of the ways you could use this object. Keep in mind that one object can have many uses. Separate your responses with a comma.",,y,17531,,,1378,15974,,,,"wear, kick someone with, fashion accessory, ",1
sophia.boover@usm.edu,109rpkclti,"BOI Norms",1,40,2022-05-03T20:06:52+00:00,25.142697095871,2,"updated stim.csv",Version2.csv,"Version 2","List 2",lettuce,,33,6.083333333,1497,34,BOI,-,-,"Please name all of the ways you could use this object. Keep in mind that one object can have many uses. Separate your responses with a comma.",,y,24939,,,7049,24560,,,,"put on burger, grow in garden, salad, food, feed bunnies",1
sophia.boover@usm.edu,109rpkclti,"BOI Norms",1,41,2022-05-03T20:06:54+00:00,2.606871843338,2,"updated stim.csv",Version2.csv,"Version 2","List 2",,,,,,0,Instruct,,,"You will now be asked a few questions about your experience today.",,"Instruct 4",2329,,,-1,-1,,,,,1
