Username,ID,ExperimentName,Session,Trial,Date,TimeDif,"Condition Number","Stimuli File","Order File","Condition Description","Condition Notes",Stimuli*Cue,Stimuli*Answer,Stimuli*Shuffle,"Stimuli*Stimuli Notes",Stimuli*Value,Procedure*Item,"Procedure*Trial Type","Procedure*Max Time","Procedure*Min Time",Procedure*Text,"Procedure*Procedure Notes",Procedure*Shuffle,Response*RT,Response*Response,Response*Accuracy,Response*RTfirst,Response*RTlast,Response*strictAcc,Response*lenientAcc,Response*focus,Response*JOL,Response*Focus
w10102219JN,swcvmpwm5e,"BOI Norms",1,1,2022-05-03T03:36:05+00:00,12.569249153137,24,"updated stim.csv",Version24.csv,"Version 24","List 24",,,,,,0,Instruct,-,10,"In this section, you will be presented with a series of objects. Please name as many possible uses for this object as you can think of by typing them in the box below each object.",,Instruct1,11475,,,-1,-1,,,,,1
w10102219JN,swcvmpwm5e,"BOI Norms",1,2,2022-05-03T03:36:19+00:00,13.757697820663,24,"updated stim.csv",Version24.csv,"Version 24","List 24",,,,,,0,Instruct,-,10,"Please keep in mind that a single object will have more than one use. For example, a ball can be thrown or can be bounced or even stepped on. When listing multiple uses for one object, please separate each use with a comma (i.e., thrown, bounced, stepped on)",,Instruct2,13238,,,-1,-1,,,,,1
w10102219JN,swcvmpwm5e,"BOI Norms",1,3,2022-05-03T03:36:24+00:00,4.9552760124207,24,"updated stim.csv",Version24.csv,"Version 24","List 24",,,,,,0,Instruct,-,-,"Before starting the experiment, you will complete a short practice sesstion. Press ENTER when you are ready to begin.",,Instruct3,4507,,,-1,-1,,,,,1
w10102219JN,swcvmpwm5e,"BOI Norms",1,4,2022-05-03T03:36:42+00:00,18.45215010643,24,"updated stim.csv",Version24.csv,"Version 24","List 24",paperwork,,3001,5.625,1866,3002,BOI,-,-,"Please name all of the ways you could use this object. Keep in mind that one object can have many uses. Separate your responses with a comma.",,n,17926,,,3507,16996,,,,"filed, filled out, printed, copied",1
w10102219JN,swcvmpwm5e,"BOI Norms",1,5,2022-05-03T03:36:55+00:00,13.362531900406,24,"updated stim.csv",Version24.csv,"Version 24","List 24",shortening,,3002,4.92,2358,3003,BOI,-,-,"Please name all of the ways you could use this object. Keep in mind that one object can have many uses. Separate your responses with a comma.",,n,12950,,,3174,11775,,,,"baking, greasing, cutting",1
w10102219JN,swcvmpwm5e,"BOI Norms",1,6,2022-05-03T03:37:06+00:00,10.118967056274,24,"updated stim.csv",Version24.csv,"Version 24","List 24",spaghetti,,3003,6,2461,3004,BOI,-,-,"Please name all of the ways you could use this object. Keep in mind that one object can have many uses. Separate your responses with a comma.",,n,9548,,,2550,8488,,,,"cooked, ate, wasted ",1
w10102219JN,swcvmpwm5e,"BOI Norms",1,7,2022-05-03T03:37:32+00:00,26.609334945679,24,"updated stim.csv",Version24.csv,"Version 24","List 24",saucer,,3005,5.777777778,2249,3006,BOI,-,-,"Please name all of the ways you could use this object. Keep in mind that one object can have many uses. Separate your responses with a comma.",,n,25884,,,3470,24845,,,,"bought, eat off of, put food on, break",1
w10102219JN,swcvmpwm5e,"BOI Norms",1,8,2022-05-03T03:37:50+00:00,18.05385017395,24,"updated stim.csv",Version24.csv,"Version 24","List 24",grain,,3004,5.217391304,1143,3005,BOI,-,-,"Please name all of the ways you could use this object. Keep in mind that one object can have many uses. Separate your responses with a comma.",,n,17523,,,2438,15936,,,,"rice, hair, salt, mustard seed, ",1
w10102219JN,swcvmpwm5e,"BOI Norms",1,9,2022-05-03T03:37:52+00:00,2.1628539562225,24,"updated stim.csv",Version24.csv,"Version 24","List 24",,,,,,0,Instruct,-,-,"You have completed this section. Press ENTER to continue",,"Instruct 5",1667,,,-1,-1,,,,,1
w10102219JN,swcvmpwm5e,"BOI Norms",1,10,2022-05-03T03:37:56+00:00,3.3096060752869,24,"updated stim.csv",Version24.csv,"Version 24","List 24",,,,,,0,Instruct,-,-,"You will now start the full experiment. Press ENTER when you are ready to begin.",,,2796,,,-1,-1,,,,,1
w10102219JN,swcvmpwm5e,"BOI Norms",1,11,2022-05-03T03:38:10+00:00,14.635466814041,24,"updated stim.csv",Version24.csv,"Version 24","List 24",parcel,,692,5.583333333,1873,693,BOI,-,-,"Please name all of the ways you could use this object. Keep in mind that one object can have many uses. Separate your responses with a comma.",,y,14233,,,3555,13505,,,,"pack, ship, open, lose",1
w10102219JN,swcvmpwm5e,"BOI Norms",1,12,2022-05-03T03:38:29+00:00,18.582581043243,24,"updated stim.csv",Version24.csv,"Version 24","List 24",cricket,,699,4.653846154,695,700,BOI,-,-,"Please name all of the ways you could use this object. Keep in mind that one object can have many uses. Separate your responses with a comma.",,y,18252,,,4432,17243,,,,"step on, chase, catch, bait",1
w10102219JN,swcvmpwm5e,"BOI Norms",1,13,2022-05-03T03:38:53+00:00,24.091901063919,24,"updated stim.csv",Version24.csv,"Version 24","List 24",floor,,696,5.666666667,1008,697,BOI,-,-,"Please name all of the ways you could use this object. Keep in mind that one object can have many uses. Separate your responses with a comma.",,y,23652,,,1475,21957,,,,"walk on, step on, mop, sweep, fall on, clean, lay down",1
w10102219JN,swcvmpwm5e,"BOI Norms",1,14,2022-05-03T03:39:08+00:00,14.993295907974,24,"updated stim.csv",Version24.csv,"Version 24","List 24",quarters,,716,5.909090909,2112,717,BOI,-,-,"Please name all of the ways you could use this object. Keep in mind that one object can have many uses. Separate your responses with a comma.",,y,14341,,,3127,4955,,,,"change, ",1
w10102219JN,swcvmpwm5e,"BOI Norms",1,15,2022-05-03T03:39:33+00:00,25.470781087875,24,"updated stim.csv",Version24.csv,"Version 24","List 24",blueberry,,710,6,249,711,BOI,-,-,"Please name all of the ways you could use this object. Keep in mind that one object can have many uses. Separate your responses with a comma.",,y,24889,,,3131,23715,,,,"eat, jelly, preserves, pick, store, can, ",1
w10102219JN,swcvmpwm5e,"BOI Norms",1,16,2022-05-03T03:39:44+00:00,10.80620098114,24,"updated stim.csv",Version24.csv,"Version 24","List 24",hibiscus,,712,4.952380952,1285,713,BOI,-,-,"Please name all of the ways you could use this object. Keep in mind that one object can have many uses. Separate your responses with a comma.",,y,10388,,,2594,9384,,,,"tea, boil, dry",1
w10102219JN,swcvmpwm5e,"BOI Norms",1,17,2022-05-03T03:39:57+00:00,12.434567928314,24,"updated stim.csv",Version24.csv,"Version 24","List 24",puck,,705,4.608695652,2087,706,BOI,-,-,"Please name all of the ways you could use this object. Keep in mind that one object can have many uses. Separate your responses with a comma.",,y,11920,,,2761,11193,,,,"hockey, hit, lose, buy",1
w10102219JN,swcvmpwm5e,"BOI Norms",1,18,2022-05-03T03:40:17+00:00,19.917382001877,24,"updated stim.csv",Version24.csv,"Version 24","List 24",rock,,703,5.48,2183,704,BOI,-,-,"Please name all of the ways you could use this object. Keep in mind that one object can have many uses. Separate your responses with a comma.",,y,19253,,,1704,18307,,,,"throw, step on, skip, break, pile, smooth",1
w10102219JN,swcvmpwm5e,"BOI Norms",1,19,2022-05-03T03:40:28+00:00,11.838153123856,24,"updated stim.csv",Version24.csv,"Version 24","List 24",enemy,,694,4.375,907,695,BOI,-,-,"Please name all of the ways you could use this object. Keep in mind that one object can have many uses. Separate your responses with a comma.",,y,11143,,,1983,9912,,,,"fight, ignore, dislike",1
w10102219JN,swcvmpwm5e,"BOI Norms",1,20,2022-05-03T03:40:47+00:00,18.261560916901,24,"updated stim.csv",Version24.csv,"Version 24","List 24",nightlight,,706,4.821428571,1772,707,BOI,-,-,"Please name all of the ways you could use this object. Keep in mind that one object can have many uses. Separate your responses with a comma.",,y,17547,,,3760,16606,,,,"bright, turn on, turn off, burn out",1
w10102219JN,swcvmpwm5e,"BOI Norms",1,21,2022-05-03T03:41:03+00:00,16.518069982529,24,"updated stim.csv",Version24.csv,"Version 24","List 24",woodpecker,,714,4.833333333,2961,715,BOI,-,-,"Please name all of the ways you could use this object. Keep in mind that one object can have many uses. Separate your responses with a comma.",,y,15748,,,1980,15385,,,,"annoying, peck wood, make noise",1
w10102219JN,swcvmpwm5e,"BOI Norms",1,22,2022-05-03T03:41:17+00:00,13.730703115463,24,"updated stim.csv",Version24.csv,"Version 24","List 24",leotard,,720,5.363636364,1493,721,BOI,-,-,"Please name all of the ways you could use this object. Keep in mind that one object can have many uses. Separate your responses with a comma.",,y,13109,,,1846,11116,,,,"wear, ballet, dance, curtsey",1
w10102219JN,swcvmpwm5e,"BOI Norms",1,23,2022-05-03T03:41:42+00:00,25.236722946167,24,"updated stim.csv",Version24.csv,"Version 24","List 24",wildlife,,700,4.44,2939,701,BOI,-,-,"Please name all of the ways you could use this object. Keep in mind that one object can have many uses. Separate your responses with a comma.",,y,24617,,,2151,24276,,,,"run, tigers, lions, graze, attack, aggressive",1
w10102219JN,swcvmpwm5e,"BOI Norms",1,24,2022-05-03T03:42:07+00:00,24.468522071838,24,"updated stim.csv",Version24.csv,"Version 24","List 24",breast,,708,5.4,312,709,BOI,-,-,"Please name all of the ways you could use this object. Keep in mind that one object can have many uses. Separate your responses with a comma.",,y,23856,,,2161,22665,,,,"chicken, cancer, eat, cut, lose, bleed, milk, baby, feed ",1
w10102219JN,swcvmpwm5e,"BOI Norms",1,25,2022-05-03T03:42:17+00:00,10.169444799423,24,"updated stim.csv",Version24.csv,"Version 24","List 24",artichoke,,717,5.708333333,78,718,BOI,-,-,"Please name all of the ways you could use this object. Keep in mind that one object can have many uses. Separate your responses with a comma.",,y,9630,,,2056,9124,,,,"dip, cook, eat, spinach",1
w10102219JN,swcvmpwm5e,"BOI Norms",1,26,2022-05-03T03:42:23+00:00,5.8472020626068,24,"updated stim.csv",Version24.csv,"Version 24","List 24",harp,,697,5.8,1253,698,BOI,-,-,"Please name all of the ways you could use this object. Keep in mind that one object can have many uses. Separate your responses with a comma.",,y,4554,,,2785,3645,,,,fish,1
w10102219JN,swcvmpwm5e,"BOI Norms",1,27,2022-05-03T03:42:39+00:00,16.39926815033,24,"updated stim.csv",Version24.csv,"Version 24","List 24",lampshade,,701,5.296296296,1458,702,BOI,-,-,"Please name all of the ways you could use this object. Keep in mind that one object can have many uses. Separate your responses with a comma.",,y,16094,,,4848,15689,,,,"fall, break, throw, bright, ",1
w10102219JN,swcvmpwm5e,"BOI Norms",1,28,2022-05-03T03:43:01+00:00,21.903562784195,24,"updated stim.csv",Version24.csv,"Version 24","List 24",bosom,,718,5.52,286,719,BOI,-,-,"Please name all of the ways you could use this object. Keep in mind that one object can have many uses. Separate your responses with a comma.",,y,21520,,,4118,20998,,,,"breast, boobs, lay on, breastfeed, breast cancer",1
w10102219JN,swcvmpwm5e,"BOI Norms",1,29,2022-05-03T03:43:18+00:00,16.801236152649,24,"updated stim.csv",Version24.csv,"Version 24","List 24",fir,,691,4.272727273,982,692,BOI,-,-,"Please name all of the ways you could use this object. Keep in mind that one object can have many uses. Separate your responses with a comma.",,y,16272,,,2862,16102,,,,"cut, rug, pet, blanket",1
w10102219JN,swcvmpwm5e,"BOI Norms",1,30,2022-05-03T03:43:34+00:00,16.574223041534,24,"updated stim.csv",Version24.csv,"Version 24","List 24",shin,,704,5.592592593,2339,705,BOI,-,-,"Please name all of the ways you could use this object. Keep in mind that one object can have many uses. Separate your responses with a comma.",,y,16113,,,4813,15505,,,,"hit, kick, cramp, splints",1
w10102219JN,swcvmpwm5e,"BOI Norms",1,31,2022-05-03T03:43:46+00:00,11.843619823456,24,"updated stim.csv",Version24.csv,"Version 24","List 24",giblets,,719,4.714285714,1101,720,BOI,-,-,"Please name all of the ways you could use this object. Keep in mind that one object can have many uses. Separate your responses with a comma.",,y,11519,,,4981,10876,,,,"chicken, eat, season",1
w10102219JN,swcvmpwm5e,"BOI Norms",1,32,2022-05-03T03:44:01+00:00,14.560049057007,24,"updated stim.csv",Version24.csv,"Version 24","List 24",herb,,709,5.826086957,1280,710,BOI,-,-,"Please name all of the ways you could use this object. Keep in mind that one object can have many uses. Separate your responses with a comma.",,y,13977,,,6875,13612,,,,"dry, pick, season, eat",1
w10102219JN,swcvmpwm5e,"BOI Norms",1,33,2022-05-03T03:44:14+00:00,13.185920000076,24,"updated stim.csv",Version24.csv,"Version 24","List 24",placard,,693,4.458333333,1983,694,BOI,-,-,"Please name all of the ways you could use this object. Keep in mind that one object can have many uses. Separate your responses with a comma.",,y,12639,,,5676,11174,,,,"playing cards",1
w10102219JN,swcvmpwm5e,"BOI Norms",1,34,2022-05-03T03:44:35+00:00,21.51940703392,24,"updated stim.csv",Version24.csv,"Version 24","List 24",gymnasium,,698,4.464285714,1204,699,BOI,-,-,"Please name all of the ways you could use this object. Keep in mind that one object can have many uses. Separate your responses with a comma.",,y,21117,,,2334,15548,,,,"basketball, programs, run, walk, PE, ",1
w10102219JN,swcvmpwm5e,"BOI Norms",1,35,2022-05-03T03:44:47+00:00,11.455209970474,24,"updated stim.csv",Version24.csv,"Version 24","List 24",bong,,715,5.6,268,716,BOI,-,-,"Please name all of the ways you could use this object. Keep in mind that one object can have many uses. Separate your responses with a comma.",,y,10958,,,1672,10566,,,,"smoke, weed, choke, pass out",1
w10102219JN,swcvmpwm5e,"BOI Norms",1,36,2022-05-03T03:45:01+00:00,13.915475130081,24,"updated stim.csv",Version24.csv,"Version 24","List 24",cactus,,707,4.5,392,708,BOI,-,-,"Please name all of the ways you could use this object. Keep in mind that one object can have many uses. Separate your responses with a comma.",,y,13388,,,2038,12956,,,,"stick, sharp, water, small, big",1
w10102219JN,swcvmpwm5e,"BOI Norms",1,37,2022-05-03T03:45:14+00:00,13.392921924591,24,"updated stim.csv",Version24.csv,"Version 24","List 24",sugar,,713,6.173913043,2580,714,BOI,-,-,"Please name all of the ways you could use this object. Keep in mind that one object can have many uses. Separate your responses with a comma.",,y,12844,,,1409,12657,,,,"sweet, cook, bake, eat, sticky",1
w10102219JN,swcvmpwm5e,"BOI Norms",1,38,2022-05-03T03:45:26+00:00,12.189842939377,24,"updated stim.csv",Version24.csv,"Version 24","List 24",smuggler,,695,4.481481481,2424,696,BOI,-,-,"Please name all of the ways you could use this object. Keep in mind that one object can have many uses. Separate your responses with a comma.",,y,11634,,,2169,11079,,,,"thief, steal, run, arrest,",1
w10102219JN,swcvmpwm5e,"BOI Norms",1,39,2022-05-03T03:45:36+00:00,9.3411769866943,24,"updated stim.csv",Version24.csv,"Version 24","List 24",charcoal,,702,4.740740741,496,703,BOI,-,-,"Please name all of the ways you could use this object. Keep in mind that one object can have many uses. Separate your responses with a comma.",,y,8913,,,2505,8392,,,,"black, burn, smell, fire",1
w10102219JN,swcvmpwm5e,"BOI Norms",1,40,2022-05-03T03:46:11+00:00,34.831331014633,24,"updated stim.csv",Version24.csv,"Version 24","List 24",countrywoman,,711,4.44,666,712,BOI,-,-,"Please name all of the ways you could use this object. Keep in mind that one object can have many uses. Separate your responses with a comma.",,y,33964,,,3248,32386,,,,"horse, truck, trailride, cow, fourwheelers, chickens, dance, alcohol",1
w10102219JN,swcvmpwm5e,"BOI Norms",1,41,2022-05-03T03:46:14+00:00,3.6811211109161,24,"updated stim.csv",Version24.csv,"Version 24","List 24",,,,,,0,Instruct,,,"You will now be asked a few questions about your experience today.",,"Instruct 4",3218,,,-1,-1,,,,,1
