Username,ID,ExperimentName,Session,Trial,Date,TimeDif,"Condition Number","Stimuli File","Order File","Condition Description","Condition Notes",Stimuli*Cue,Stimuli*Answer,Stimuli*Shuffle,"Stimuli*Stimuli Notes",Stimuli*Value,Procedure*Item,"Procedure*Trial Type","Procedure*Max Time","Procedure*Min Time",Procedure*Text,"Procedure*Procedure Notes",Procedure*Shuffle,Response*RT,Response*Response,Response*Accuracy,Response*RTfirst,Response*RTlast,Response*strictAcc,Response*lenientAcc,Response*focus,Response*JOL,Response*Focus
w995785,fmqy1z7jkp,"BOI Norms",1,1,2022-04-19T20:16:32+00:00,17.142826080322,9,"updated stim.csv",Version9.csv,"Version 9","List 9",,,,,,0,Instruct,-,10,"In this section, you will be presented with a series of objects. Please name as many possible uses for this object as you can think of by typing them in the box below each object.",,Instruct1,17045,,,-1,-1,,,,,1
w995785,fmqy1z7jkp,"BOI Norms",1,2,2022-04-19T20:16:43+00:00,10.972908973694,9,"updated stim.csv",Version9.csv,"Version 9","List 9",,,,,,0,Instruct,-,10,"Please keep in mind that a single object will have more than one use. For example, a ball can be thrown or can be bounced or even stepped on. When listing multiple uses for one object, please separate each use with a comma (i.e., thrown, bounced, stepped on)",,Instruct2,10849,,,-1,-1,,,,,1
w995785,fmqy1z7jkp,"BOI Norms",1,3,2022-04-19T20:16:46+00:00,3.0513918399811,9,"updated stim.csv",Version9.csv,"Version 9","List 9",,,,,,0,Instruct,-,-,"Before starting the experiment, you will complete a short practice sesstion. Press ENTER when you are ready to begin.",,Instruct3,2948,,,-1,-1,,,,,1
w995785,fmqy1z7jkp,"BOI Norms",1,4,2022-04-19T20:17:00+00:00,13.792518138885,9,"updated stim.csv",Version9.csv,"Version 9","List 9",paperwork,,3001,5.625,1866,3002,BOI,-,-,"Please name all of the ways you could use this object. Keep in mind that one object can have many uses. Separate your responses with a comma.",,n,12548,,,-1,-1,,,,File,1
w995785,fmqy1z7jkp,"BOI Norms",1,5,2022-04-19T20:17:09+00:00,8.9888849258423,9,"updated stim.csv",Version9.csv,"Version 9","List 9",saucer,,3005,5.777777778,2249,3006,BOI,-,-,"Please name all of the ways you could use this object. Keep in mind that one object can have many uses. Separate your responses with a comma.",,n,8868,,,-1,-1,,,,"Serve, eat",1
w995785,fmqy1z7jkp,"BOI Norms",1,6,2022-04-19T20:17:27+00:00,18.014171123505,9,"updated stim.csv",Version9.csv,"Version 9","List 9",shortening,,3002,4.92,2358,3003,BOI,-,-,"Please name all of the ways you could use this object. Keep in mind that one object can have many uses. Separate your responses with a comma.",,n,17874,,,-1,-1,,,,Writing,1
w995785,fmqy1z7jkp,"BOI Norms",1,7,2022-04-19T20:18:03+00:00,36.468378782272,9,"updated stim.csv",Version9.csv,"Version 9","List 9",spaghetti,,3003,6,2461,3004,BOI,-,-,"Please name all of the ways you could use this object. Keep in mind that one object can have many uses. Separate your responses with a comma.",,n,36344,,,28913,35100,,,,"Cook eat serve",1
w995785,fmqy1z7jkp,"BOI Norms",1,8,2022-04-19T20:18:46+00:00,42.754102230072,9,"updated stim.csv",Version9.csv,"Version 9","List 9",grain,,3004,5.217391304,1143,3005,BOI,-,-,"Please name all of the ways you could use this object. Keep in mind that one object can have many uses. Separate your responses with a comma.",,n,42627,,,22778,28942,,,,"Bread rice harvest",1
w995785,fmqy1z7jkp,"BOI Norms",1,9,2022-04-19T20:18:47+00:00,1.2502927780151,9,"updated stim.csv",Version9.csv,"Version 9","List 9",,,,,,0,Instruct,-,-,"You have completed this section. Press ENTER to continue",,"Instruct 5",1112,,,-1,-1,,,,,1
w995785,fmqy1z7jkp,"BOI Norms",1,10,2022-04-19T20:18:49+00:00,1.723699092865,9,"updated stim.csv",Version9.csv,"Version 9","List 9",,,,,,0,Instruct,-,-,"You will now start the full experiment. Press ENTER when you are ready to begin.",,,1635,,,-1,-1,,,,,1
w995785,fmqy1z7jkp,"BOI Norms",1,11,2022-04-19T20:18:56+00:00,6.7122011184692,9,"updated stim.csv",Version9.csv,"Version 9","List 9",bench,,242,6.166666667,203,243,BOI,-,-,"Please name all of the ways you could use this object. Keep in mind that one object can have many uses. Separate your responses with a comma.",,y,6592,,,-1,-1,,,,Sit,1
w995785,fmqy1z7jkp,"BOI Norms",1,12,2022-04-19T20:19:16+00:00,20.56852889061,9,"updated stim.csv",Version9.csv,"Version 9","List 9",shell,,261,5.291666667,2333,262,BOI,-,-,"Please name all of the ways you could use this object. Keep in mind that one object can have many uses. Separate your responses with a comma.",,y,20286,,,4385,19406,,,,Collect,1
w995785,fmqy1z7jkp,"BOI Norms",1,13,2022-04-19T20:19:30+00:00,13.894515037537,9,"updated stim.csv",Version9.csv,"Version 9","List 9",goblet,,262,5.826086957,1125,263,BOI,-,-,"Please name all of the ways you could use this object. Keep in mind that one object can have many uses. Separate your responses with a comma.",,y,13683,,,3367,10775,,,,"Drink, decorate",1
w995785,fmqy1z7jkp,"BOI Norms",1,14,2022-04-19T20:19:38+00:00,7.662978887558,9,"updated stim.csv",Version9.csv,"Version 9","List 9",belly,,250,5.846153846,200,251,BOI,-,-,"Please name all of the ways you could use this object. Keep in mind that one object can have many uses. Separate your responses with a comma.",,y,7439,,,4988,5639,,,,Eat,1
w995785,fmqy1z7jkp,"BOI Norms",1,15,2022-04-19T20:20:03+00:00,25.544355154037,9,"updated stim.csv",Version9.csv,"Version 9","List 9",tube,,247,4.916666667,2791,248,BOI,-,-,"Please name all of the ways you could use this object. Keep in mind that one object can have many uses. Separate your responses with a comma.",,y,25394,,,3181,21323,,,,"Feed, transfer, breathe",1
w995785,fmqy1z7jkp,"BOI Norms",1,16,2022-04-19T20:20:17+00:00,13.521736860275,9,"updated stim.csv",Version9.csv,"Version 9","List 9",platter,,268,5.75,1998,269,BOI,-,-,"Please name all of the ways you could use this object. Keep in mind that one object can have many uses. Separate your responses with a comma.",,y,13371,,,2972,9984,,,,"Serve, hold",1
w995785,fmqy1z7jkp,"BOI Norms",1,17,2022-04-19T20:20:29+00:00,12.660487174988,9,"updated stim.csv",Version9.csv,"Version 9","List 9",purse,,265,6.291666667,2105,266,BOI,-,-,"Please name all of the ways you could use this object. Keep in mind that one object can have many uses. Separate your responses with a comma.",,y,12524,,,4502,10604,,,,"Hold, carry",1
w995785,fmqy1z7jkp,"BOI Norms",1,18,2022-04-19T20:20:52+00:00,22.829596996307,9,"updated stim.csv",Version9.csv,"Version 9","List 9",suit,,249,6.52173913,2582,250,BOI,-,-,"Please name all of the ways you could use this object. Keep in mind that one object can have many uses. Separate your responses with a comma.",,y,22696,,,4121,21894,,,,"Wear, visit, shelter, clothes",1
w995785,fmqy1z7jkp,"BOI Norms",1,19,2022-04-19T20:21:35+00:00,42.437547922134,9,"updated stim.csv",Version9.csv,"Version 9","List 9",chemicals,,259,5.04,510,260,BOI,-,-,"Please name all of the ways you could use this object. Keep in mind that one object can have many uses. Separate your responses with a comma.",,y,42316,,,13514,24129,,,,"Clean, kill, pollute",1
w995785,fmqy1z7jkp,"BOI Norms",1,20,2022-04-19T20:22:26+00:00,51.829312086105,9,"updated stim.csv",Version9.csv,"Version 9","List 9",block,,244,5.413793103,239,245,BOI,-,-,"Please name all of the ways you could use this object. Keep in mind that one object can have many uses. Separate your responses with a comma.",,y,51700,,,8109,47092,,,,"Prevent, build, neighborhoods",1
w995785,fmqy1z7jkp,"BOI Norms",1,21,2022-04-19T20:22:52+00:00,25.727159976959,9,"updated stim.csv",Version9.csv,"Version 9","List 9",wound,,256,4.583333333,2976,257,BOI,-,-,"Please name all of the ways you could use this object. Keep in mind that one object can have many uses. Separate your responses with a comma.",,y,25454,,,5235,24303,,,,"Hurt, restart clock",1
w995785,fmqy1z7jkp,"BOI Norms",1,22,2022-04-19T20:23:00+00:00,7.7270638942719,9,"updated stim.csv",Version9.csv,"Version 9","List 9",altarpiece,,269,4.80952381,31,270,BOI,-,-,"Please name all of the ways you could use this object. Keep in mind that one object can have many uses. Separate your responses with a comma.",,y,7541,,,4768,5581,,,,"Decorate ",1
w995785,fmqy1z7jkp,"BOI Norms",1,23,2022-04-19T20:23:38+00:00,38.20189499855,9,"updated stim.csv",Version9.csv,"Version 9","List 9",vessel,,248,4.925925926,2852,249,BOI,-,-,"Please name all of the ways you could use this object. Keep in mind that one object can have many uses. Separate your responses with a comma.",,y,37876,,,6625,37254,,,,"House, artifact, body system",1
w995785,fmqy1z7jkp,"BOI Norms",1,24,2022-04-19T20:24:04+00:00,25.771822929382,9,"updated stim.csv",Version9.csv,"Version 9","List 9",rancher,,243,4.68,2137,244,BOI,-,-,"Please name all of the ways you could use this object. Keep in mind that one object can have many uses. Separate your responses with a comma.",,y,25337,,,11784,20934,,,,"Take care of farm animals ",1
w995785,fmqy1z7jkp,"BOI Norms",1,25,2022-04-19T20:24:09+00:00,4.8425719738007,9,"updated stim.csv",Version9.csv,"Version 9","List 9",asparagus,,251,5.56,85,252,BOI,-,-,"Please name all of the ways you could use this object. Keep in mind that one object can have many uses. Separate your responses with a comma.",,y,4707,,,3340,3853,,,,Eat,1
w995785,fmqy1z7jkp,"BOI Norms",1,26,2022-04-19T20:24:48+00:00,39.614536046982,9,"updated stim.csv",Version9.csv,"Version 9","List 9",cane,,257,6.068965517,413,258,BOI,-,-,"Please name all of the ways you could use this object. Keep in mind that one object can have many uses. Separate your responses with a comma.",,y,39485,,,4570,38845,,,,"Eat, crutch to lean on, aid in the blind",1
w995785,fmqy1z7jkp,"BOI Norms",1,27,2022-04-19T20:25:09+00:00,20.726647138596,9,"updated stim.csv",Version9.csv,"Version 9","List 9",token,,255,5.2,2721,256,BOI,-,-,"Please name all of the ways you could use this object. Keep in mind that one object can have many uses. Separate your responses with a comma.",,y,20558,,,8697,20056,,,,"Money, gift",1
w995785,fmqy1z7jkp,"BOI Norms",1,28,2022-04-19T20:26:06+00:00,56.675510883331,9,"updated stim.csv",Version9.csv,"Version 9","List 9",strainer,,253,4.875,2557,254,BOI,-,-,"Please name all of the ways you could use this object. Keep in mind that one object can have many uses. Separate your responses with a comma.",,y,56502,,,-1,-1,,,,Drain,1
w995785,fmqy1z7jkp,"BOI Norms",1,29,2022-04-19T20:26:37+00:00,30.797837018967,9,"updated stim.csv",Version9.csv,"Version 9","List 9",veal,,260,4.5,2840,261,BOI,-,-,"Please name all of the ways you could use this object. Keep in mind that one object can have many uses. Separate your responses with a comma.",,y,30647,,,29620,30154,,,,Eat,1
w995785,fmqy1z7jkp,"BOI Norms",1,30,2022-04-19T20:26:45+00:00,8.4690420627594,9,"updated stim.csv",Version9.csv,"Version 9","List 9",clay,,263,5.52,551,264,BOI,-,-,"Please name all of the ways you could use this object. Keep in mind that one object can have many uses. Separate your responses with a comma.",,y,8339,,,-1,-1,,,,Scalp,1
w995785,fmqy1z7jkp,"BOI Norms",1,31,2022-04-19T20:26:53+00:00,7.5089929103851,9,"updated stim.csv",Version9.csv,"Version 9","List 9",tyke,,245,5.05,2813,246,BOI,-,-,"Please name all of the ways you could use this object. Keep in mind that one object can have many uses. Separate your responses with a comma.",,y,7389,,,-1,-1,,,,Child,1
w995785,fmqy1z7jkp,"BOI Norms",1,32,2022-04-19T20:27:01+00:00,8.295755147934,9,"updated stim.csv",Version9.csv,"Version 9","List 9",wrapper,,266,5.791666667,2978,267,BOI,-,-,"Please name all of the ways you could use this object. Keep in mind that one object can have many uses. Separate your responses with a comma.",,y,8167,,,4152,6106,,,,Preserve,1
w995785,fmqy1z7jkp,"BOI Norms",1,33,2022-04-19T20:27:31+00:00,30.52382183075,9,"updated stim.csv",Version9.csv,"Version 9","List 9",hardware,,267,5.52,1249,268,BOI,-,-,"Please name all of the ways you could use this object. Keep in mind that one object can have many uses. Separate your responses with a comma.",,y,30392,,,16092,29551,,,,"Decorate, protect, store",1
w995785,fmqy1z7jkp,"BOI Norms",1,34,2022-04-19T20:27:41+00:00,9.5505561828613,9,"updated stim.csv",Version9.csv,"Version 9","List 9",orchard,,270,4.333333333,1816,271,BOI,-,-,"Please name all of the ways you could use this object. Keep in mind that one object can have many uses. Separate your responses with a comma.",,y,9420,,,7574,8685,,,,Grow,1
w995785,fmqy1z7jkp,"BOI Norms",1,35,2022-04-19T20:27:48+00:00,7.5799667835236,9,"updated stim.csv",Version9.csv,"Version 9","List 9",mayor,,241,4.28,1629,242,BOI,-,-,"Please name all of the ways you could use this object. Keep in mind that one object can have many uses. Separate your responses with a comma.",,y,7446,,,3586,6140,,,,"Serve ",1
w995785,fmqy1z7jkp,"BOI Norms",1,36,2022-04-19T20:27:55+00:00,6.1305181980133,9,"updated stim.csv",Version9.csv,"Version 9","List 9",coleslaw,,254,4.72,599,255,BOI,-,-,"Please name all of the ways you could use this object. Keep in mind that one object can have many uses. Separate your responses with a comma.",,y,6001,,,3856,5524,,,,Eat,1
w995785,fmqy1z7jkp,"BOI Norms",1,37,2022-04-19T20:28:07+00:00,12.591897010803,9,"updated stim.csv",Version9.csv,"Version 9","List 9",saleslady,,264,4.28,2221,265,BOI,-,-,"Please name all of the ways you could use this object. Keep in mind that one object can have many uses. Separate your responses with a comma.",,y,12453,,,3460,10585,,,,"Sell, promote ",1
w995785,fmqy1z7jkp,"BOI Norms",1,38,2022-04-19T20:28:12+00:00,5.1023349761963,9,"updated stim.csv",Version9.csv,"Version 9","List 9",elbow,,258,6.458333333,896,259,BOI,-,-,"Please name all of the ways you could use this object. Keep in mind that one object can have many uses. Separate your responses with a comma.",,y,4972,,,3224,4015,,,,Bend,1
w995785,fmqy1z7jkp,"BOI Norms",1,39,2022-04-19T20:28:22+00:00,9.3305449485779,9,"updated stim.csv",Version9.csv,"Version 9","List 9",landscape,,252,4.384615385,1462,253,BOI,-,-,"Please name all of the ways you could use this object. Keep in mind that one object can have many uses. Separate your responses with a comma.",,y,9218,,,-1,-1,,,,Grow,1
w995785,fmqy1z7jkp,"BOI Norms",1,40,2022-04-19T20:28:33+00:00,10.86314702034,9,"updated stim.csv",Version9.csv,"Version 9","List 9",duck,,246,5.041666667,859,247,BOI,-,-,"Please name all of the ways you could use this object. Keep in mind that one object can have many uses. Separate your responses with a comma.",,y,10736,,,8785,9444,,,,Eay,1
w995785,fmqy1z7jkp,"BOI Norms",1,41,2022-04-19T20:28:34+00:00,1.2087960243225,9,"updated stim.csv",Version9.csv,"Version 9","List 9",,,,,,0,Instruct,,,"You will now be asked a few questions about your experience today.",,"Instruct 4",1121,,,-1,-1,,,,,1
