"Username","ID","ExperimentName","Session","Trial","Date","TimeDif","Condition.Number","Stimuli.File","Order.File","Condition.Description","Condition.Notes","Stimuli.Cue","Stimuli.Answer","Stimuli.Shuffle","Stimuli.Stimuli.Notes","Stimuli.Value","Procedure.Item","Procedure.Trial.Type","Procedure.Max.Time","Procedure.Min.Time","Procedure.Text","Procedure.Procedure.Notes","Procedure.Shuffle","Response.RT","Response.Response","Response.Accuracy","Response.RTfirst","Response.RTlast","Response.strictAcc","Response.lenientAcc","Response.focus","Response.JOL","Response.Focus"
"10029821lp","fobeuwyo1u","BOI Norms",1,11,"2022-03-10T20:22:34+00:00",20.065715074539,6,"updated stim.csv","Version81.csv","Version 81","List 81","kerchief",NA,"ON",5.666666667,1406,2402,"BOI","-","-","Please name all of the ways you could use this object. Keep in mind that one object can have many uses. Separate your responses with a comma.",NA,"y",19753,NA,NA,4093,17408,NA,NA,NA,"wipe, sway, crumble, throw, ",1
"10029821lp","fobeuwyo1u","BOI Norms",1,12,"2022-03-10T20:22:53+00:00",19.330243825912,6,"updated stim.csv","Version81.csv","Version 81","List 81","lodge",NA,"ON",4.833333333,1539,2418,"BOI","-","-","Please name all of the ways you could use this object. Keep in mind that one object can have many uses. Separate your responses with a comma.",NA,"y",18938,NA,NA,2486,16701,NA,NA,NA,"live, sleep, eat, fight, play, sing, cook, bathe,",1
"10029821lp","fobeuwyo1u","BOI Norms",1,13,"2022-03-10T20:23:08+00:00",15.07661318779,6,"updated stim.csv","Version81.csv","Version 81","List 81","backgammon",NA,"ON",4.869565217,115,2420,"BOI","-","-","Please name all of the ways you could use this object. Keep in mind that one object can have many uses. Separate your responses with a comma.",NA,"y",14679,NA,NA,3929,12944,NA,NA,NA,"toss, kick, throw, roll",1
"10029821lp","fobeuwyo1u","BOI Norms",1,14,"2022-03-10T20:23:32+00:00",23.81650185585,6,"updated stim.csv","Version81.csv","Version 81","List 81","hammer",NA,"ON",6.173913043,1223,2406,"BOI","-","-","Please name all of the ways you could use this object. Keep in mind that one object can have many uses. Separate your responses with a comma.",NA,"y",23402,NA,NA,2429,21837,NA,NA,NA,"throw, kick, smash, hit",1
"10029821lp","fobeuwyo1u","BOI Norms",1,15,"2022-03-10T20:23:56+00:00",24.129729986191,6,"updated stim.csv","Version81.csv","Version 81","List 81","jeweler",NA,"ON",4.695652174,1385,2408,"BOI","-","-","Please name all of the ways you could use this object. Keep in mind that one object can have many uses. Separate your responses with a comma.",NA,"y",23702,NA,NA,6618,13007,NA,NA,NA,"shine, repair, ",1
"10029821lp","fobeuwyo1u","BOI Norms",1,16,"2022-03-10T20:24:18+00:00",22.53657913208,6,"updated stim.csv","Version81.csv","Version 81","List 81","lampshade",NA,"ON",5.296296296,1458,2421,"BOI","-","-","Please name all of the ways you could use this object. Keep in mind that one object can have many uses. Separate your responses with a comma.",NA,"y",21954,NA,NA,2104,20247,NA,NA,NA,"throw, roll, crush, toss, smash",1
"10029821lp","fobeuwyo1u","BOI Norms",1,17,"2022-03-10T20:24:43+00:00",24.568075895309,6,"updated stim.csv","Version81.csv","Version 81","List 81","medic",NA,"ON",5.217391304,1636,2425,"BOI","-","-","Please name all of the ways you could use this object. Keep in mind that one object can have many uses. Separate your responses with a comma.",NA,"y",24167,NA,NA,6405,23119,NA,NA,NA,"talk, walk, save, help",1
"10029821lp","fobeuwyo1u","BOI Norms",1,18,"2022-03-10T20:24:54+00:00",11.309925079346,6,"updated stim.csv","Version81.csv","Version 81","List 81","amulet",NA,"ON",5.291666667,38,2423,"BOI","-","-","Please name all of the ways you could use this object. Keep in mind that one object can have many uses. Separate your responses with a comma.",NA,"y",10921,NA,NA,2533,10023,NA,NA,NA,"throw, crush, roll, toss",1
"10029821lp","fobeuwyo1u","BOI Norms",1,19,"2022-03-10T20:25:52+00:00",57.630748987198,6,"updated stim.csv","Version81.csv","Version 81","List 81","comb",NA,"ON",5.923076923,606,2416,"BOI","-","-","Please name all of the ways you could use this object. Keep in mind that one object can have many uses. Separate your responses with a comma.",NA,"y",57246,NA,NA,3408,31682,NA,NA,NA,"hair, tool.",1
"10029821lp","fobeuwyo1u","BOI Norms",1,20,"2022-03-10T20:26:04+00:00",12.022207975388,6,"updated stim.csv","Version81.csv","Version 81","List 81","silkworm",NA,"ON",5.208333333,2382,2409,"BOI","-","-","Please name all of the ways you could use this object. Keep in mind that one object can have many uses. Separate your responses with a comma.",NA,"y",11641,NA,NA,3202,11104,NA,NA,NA,"crush, eat, smash, throw",1
"10029821lp","fobeuwyo1u","BOI Norms",1,21,"2022-03-10T20:26:22+00:00",17.792043924332,6,"updated stim.csv","Version81.csv","Version 81","List 81","penny",NA,"ON",6.448275862,1917,2424,"BOI","-","-","Please name all of the ways you could use this object. Keep in mind that one object can have many uses. Separate your responses with a comma.",NA,"y",17407,NA,NA,6733,16881,NA,NA,NA,"buy things, roll, throw, tool",1
"10029821lp","fobeuwyo1u","BOI Norms",1,22,"2022-03-10T20:26:31+00:00",9.7659351825714,6,"updated stim.csv","Version81.csv","Version 81","List 81","veil",NA,"ON",5.727272727,2844,2422,"BOI","-","-","Please name all of the ways you could use this object. Keep in mind that one object can have many uses. Separate your responses with a comma.",NA,"y",9380,NA,NA,3252,5263,NA,NA,NA,"rip, ",1
"10029821lp","fobeuwyo1u","BOI Norms",1,23,"2022-03-10T20:26:46+00:00",14.685731887817,6,"updated stim.csv","Version81.csv","Version 81","List 81","poinsettia",NA,"ON",5.347826087,2018,2419,"BOI","-","-","Please name all of the ways you could use this object. Keep in mind that one object can have many uses. Separate your responses with a comma.",NA,"y",14034,NA,NA,4285,13634,NA,NA,NA,"plant, eat, smash, throw",1
"10029821lp","fobeuwyo1u","BOI Norms",1,24,"2022-03-10T20:27:03+00:00",17.123243093491,6,"updated stim.csv","Version81.csv","Version 81","List 81","cushion",NA,"ON",5.75,733,2427,"BOI","-","-","Please name all of the ways you could use this object. Keep in mind that one object can have many uses. Separate your responses with a comma.",NA,"y",16712,NA,NA,2996,16186,NA,NA,NA,"bed, sleep, hair, feed, fart",1
"10029821lp","fobeuwyo1u","BOI Norms",1,25,"2022-03-10T20:27:10+00:00",6.6608159542084,6,"updated stim.csv","Version81.csv","Version 81","List 81","masseuse",NA,"ON",5.086956522,1616,2404,"BOI","-","-","Please name all of the ways you could use this object. Keep in mind that one object can have many uses. Separate your responses with a comma.",NA,"y",6269,NA,NA,3365,6081,NA,NA,NA,"massage",1
"10029821lp","fobeuwyo1u","BOI Norms",1,26,"2022-03-10T20:27:35+00:00",24.576647996902,6,"updated stim.csv","Version81.csv","Version 81","List 81","outhouse",NA,"ON",4.64,1829,2430,"BOI","-","-","Please name all of the ways you could use this object. Keep in mind that one object can have many uses. Separate your responses with a comma.",NA,"y",24204,NA,NA,7157,23608,NA,NA,NA,"bathroom, hair, brush, ",1
"10029821lp","fobeuwyo1u","BOI Norms",1,27,"2022-03-10T20:27:50+00:00",15.085218906403,6,"updated stim.csv","Version81.csv","Version 81","List 81","nettle",NA,"ON",4.529411765,1752,2412,"BOI","-","-","Please name all of the ways you could use this object. Keep in mind that one object can have many uses. Separate your responses with a comma.",NA,"y",14636,NA,NA,2196,13856,NA,NA,NA,"throw, scrape,roll, push",1
"10029821lp","fobeuwyo1u","BOI Norms",1,28,"2022-03-10T20:28:02+00:00",12.588829040527,6,"updated stim.csv","Version81.csv","Version 81","List 81","tavern",NA,"ON",4.36,2638,2407,"BOI","-","-","Please name all of the ways you could use this object. Keep in mind that one object can have many uses. Separate your responses with a comma.",NA,"y",12183,NA,NA,3959,11433,NA,NA,NA,"walk, throw, drink, eat, dance",1
"10029821lp","fobeuwyo1u","BOI Norms",1,29,"2022-03-10T20:28:17+00:00",15.078426122665,6,"updated stim.csv","Version81.csv","Version 81","List 81","tambourine",NA,"ON",5.916666667,2628,2417,"BOI","-","-","Please name all of the ways you could use this object. Keep in mind that one object can have many uses. Separate your responses with a comma.",NA,"y",14687,NA,NA,2580,12049,NA,NA,NA,"shake, roll, slap, clap",1
"10029821lp","fobeuwyo1u","BOI Norms",1,30,"2022-03-10T20:28:29+00:00",11.735400915146,6,"updated stim.csv","Version81.csv","Version 81","List 81","blower",NA,"ON",4.48,245,2414,"BOI","-","-","Please name all of the ways you could use this object. Keep in mind that one object can have many uses. Separate your responses with a comma.",NA,"y",11371,NA,NA,1991,10768,NA,NA,NA,"blow, clean, push",1
"10029821lp","fobeuwyo1u","BOI Norms",1,31,"2022-03-10T20:28:45+00:00",15.979863882065,6,"updated stim.csv","Version81.csv","Version 81","List 81","headmistress",NA,"ON",4.555555556,1268,2429,"BOI","-","-","Please name all of the ways you could use this object. Keep in mind that one object can have many uses. Separate your responses with a comma.",NA,"y",15599,NA,NA,8020,12368,NA,NA,NA,"parent, bully, ",1
"10029821lp","fobeuwyo1u","BOI Norms",1,32,"2022-03-10T20:29:02+00:00",16.883291006088,6,"updated stim.csv","Version81.csv","Version 81","List 81","thumbtack",NA,"ON",5.956521739,2690,2415,"BOI","-","-","Please name all of the ways you could use this object. Keep in mind that one object can have many uses. Separate your responses with a comma.",NA,"y",16369,NA,NA,3844,15835,NA,NA,NA,"roll, push, pierce",1
"10029821lp","fobeuwyo1u","BOI Norms",1,33,"2022-03-10T20:29:15+00:00",12.845126152039,6,"updated stim.csv","Version81.csv","Version 81","List 81","lilac",NA,"ON",5,1508,2411,"BOI","-","-","Please name all of the ways you could use this object. Keep in mind that one object can have many uses. Separate your responses with a comma.",NA,"y",12449,NA,NA,1715,11814,NA,NA,NA,"eat, smash, crush, flatten",1
"10029821lp","fobeuwyo1u","BOI Norms",1,34,"2022-03-10T20:29:16+00:00",1.6747310161591,6,"updated stim.csv","Version81.csv","Version 81","List 81","nut",NA,"ON",5.555555556,1789,2426,"BOI","-","-","Please name all of the ways you could use this object. Keep in mind that one object can have many uses. Separate your responses with a comma.",NA,"y",1294,NA,NA,-1,-1,NA,NA,NA,"",1
"10029821lp","fobeuwyo1u","BOI Norms",1,35,"2022-03-10T20:29:36+00:00",19.667852878571,6,"updated stim.csv","Version81.csv","Version 81","List 81","panhandler",NA,"ON",4.92,1857,2405,"BOI","-","-","Please name all of the ways you could use this object. Keep in mind that one object can have many uses. Separate your responses with a comma.",NA,"y",19132,NA,NA,5576,18522,NA,NA,NA,"money, dance, job",1
"10029821lp","fobeuwyo1u","BOI Norms",1,36,"2022-03-10T20:29:50+00:00",14.206413984299,6,"updated stim.csv","Version81.csv","Version 81","List 81","cymbal",NA,"ON",5.958333333,741,2431,"BOI","-","-","Please name all of the ways you could use this object. Keep in mind that one object can have many uses. Separate your responses with a comma.",NA,"y",13771,NA,NA,2316,11955,NA,NA,NA,"hit, crash, shake",1
"10029821lp","fobeuwyo1u","BOI Norms",1,37,"2022-03-10T20:30:03+00:00",12.675088167191,6,"updated stim.csv","Version81.csv","Version 81","List 81","enamel",NA,"ON",4.652173913,905,2410,"BOI","-","-","Please name all of the ways you could use this object. Keep in mind that one object can have many uses. Separate your responses with a comma.",NA,"y",12255,NA,NA,2264,9622,NA,NA,NA,"teeth, break, seal",1
"10029821lp","fobeuwyo1u","BOI Norms",1,38,"2022-03-10T20:30:26+00:00",22.972435951233,6,"updated stim.csv","Version81.csv","Version 81","List 81","lager",NA,"ON",4.695652174,1451,2413,"BOI","-","-","Please name all of the ways you could use this object. Keep in mind that one object can have many uses. Separate your responses with a comma.",NA,"y",22548,NA,NA,14208,21206,NA,NA,NA,"kick, push, drill",1
"10029821lp","fobeuwyo1u","BOI Norms",1,39,"2022-03-10T20:30:44+00:00",18.400478839874,6,"updated stim.csv","Version81.csv","Version 81","List 81","antenna",NA,"ON",4.695652174,46,2428,"BOI","-","-","Please name all of the ways you could use this object. Keep in mind that one object can have many uses. Separate your responses with a comma.",NA,"y",17991,NA,NA,4375,16316,NA,NA,NA,"push, break, connect, money",1
"10029821lp","fobeuwyo1u","BOI Norms",1,40,"2022-03-10T20:31:05+00:00",21.022930145264,6,"updated stim.csv","Version81.csv","Version 81","List 81","street",NA,"ON",4.708333333,2563,2403,"BOI","-","-","Please name all of the ways you could use this object. Keep in mind that one object can have many uses. Separate your responses with a comma.",NA,"y",20604,NA,NA,1509,19338,NA,NA,NA,"walk, cross, drive, eat, dance, sell, talk, meet, buy",1
"10081449MR","guyty21czj","BOI Norms",1,11,"2022-04-14T03:09:14+00:00",61.602293968201,3,"updated stim.csv","Version3.csv","Version 3","List 3","businesswoman",NA,"86",5.08,371,87,"BOI","-","-","Please name all of the ways you could use this object. Keep in mind that one object can have many uses. Separate your responses with a comma.",NA,"y",61336,NA,NA,9087,59988,NA,NA,NA,"work, dress as, taxes, lawyer, hire, fire, ",1
"10081449MR","guyty21czj","BOI Norms",1,12,"2022-04-14T03:09:50+00:00",35.878424882889,3,"updated stim.csv","Version3.csv","Version 3","List 3","rack",NA,"73",4.68,2119,74,"BOI","-","-","Please name all of the ways you could use this object. Keep in mind that one object can have many uses. Separate your responses with a comma.",NA,"y",35639,NA,NA,5702,34657,NA,NA,NA,"decoration, food holder, dish holder, item holder",1
"10081449MR","guyty21czj","BOI Norms",1,13,"2022-04-14T03:10:35+00:00",44.897449970245,3,"updated stim.csv","Version3.csv","Version 3","List 3","footplate",NA,"90",4.875,1038,91,"BOI","-","-","Please name all of the ways you could use this object. Keep in mind that one object can have many uses. Separate your responses with a comma.",NA,"y",44623,NA,NA,33425,43631,NA,NA,NA,"stand, support",1
"10081449MR","guyty21czj","BOI Norms",1,14,"2022-04-14T03:10:52+00:00",16.884976148605,3,"updated stim.csv","Version3.csv","Version 3","List 3","crumb",NA,"89",4.45,714,90,"BOI","-","-","Please name all of the ways you could use this object. Keep in mind that one object can have many uses. Separate your responses with a comma.",NA,"y",16646,NA,NA,1567,12004,NA,NA,NA,"eat, throw, kick, toss, blow",1
"10081449MR","guyty21czj","BOI Norms",1,15,"2022-04-14T03:11:40+00:00",48.120606899261,3,"updated stim.csv","Version3.csv","Version 3","List 3","litter",NA,"75",5.034482759,1526,76,"BOI","-","-","Please name all of the ways you could use this object. Keep in mind that one object can have many uses. Separate your responses with a comma.",NA,"y",47904,NA,NA,7970,46108,NA,NA,NA,"reduce, reuse, recycle, pick up, throw away, eat, cat box",1
"10081449MR","guyty21czj","BOI Norms",1,16,"2022-04-14T03:12:05+00:00",25.023466110229,3,"updated stim.csv","Version3.csv","Version 3","List 3","curtain",NA,"84",5.875,732,85,"BOI","-","-","Please name all of the ways you could use this object. Keep in mind that one object can have many uses. Separate your responses with a comma.",NA,"y",24806,NA,NA,4724,16204,NA,NA,NA,"block sun, decoration, climb, ",1
"10081449MR","guyty21czj","BOI Norms",1,17,"2022-04-14T03:12:20+00:00",15.140089035034,3,"updated stim.csv","Version3.csv","Version 3","List 3","sportswriter",NA,"69",4.32,2484,70,"BOI","-","-","Please name all of the ways you could use this object. Keep in mind that one object can have many uses. Separate your responses with a comma.",NA,"y",14927,NA,NA,2640,11183,NA,NA,NA,"news, ",1
"10081449MR","guyty21czj","BOI Norms",1,18,"2022-04-14T03:12:50+00:00",29.657068967819,3,"updated stim.csv","Version3.csv","Version 3","List 3","backbone",NA,"65",4.64,113,66,"BOI","-","-","Please name all of the ways you could use this object. Keep in mind that one object can have many uses. Separate your responses with a comma.",NA,"y",29409,NA,NA,1710,28378,NA,NA,NA,"support, bending, tumbling, walking, sitting, twisting",1
"10081449MR","guyty21czj","BOI Norms",1,19,"2022-04-14T03:13:14+00:00",24.290843963623,3,"updated stim.csv","Version3.csv","Version 3","List 3","rink",NA,"71",4.333333333,2171,72,"BOI","-","-","Please name all of the ways you could use this object. Keep in mind that one object can have many uses. Separate your responses with a comma.",NA,"y",24036,NA,NA,5057,21075,NA,NA,NA,"to skate on, to run on, to walk, ride horses in, ",1
"10081449MR","guyty21czj","BOI Norms",1,20,"2022-04-14T03:13:31+00:00",17.183480978012,3,"updated stim.csv","Version3.csv","Version 3","List 3","postage",NA,"83",4.32,2041,84,"BOI","-","-","Please name all of the ways you could use this object. Keep in mind that one object can have many uses. Separate your responses with a comma.",NA,"y",16953,NA,NA,3582,15257,NA,NA,NA,"send mail, recieve mail, buy stamps",1
"10081449MR","guyty21czj","BOI Norms",1,21,"2022-04-14T03:14:00+00:00",28.983062982559,3,"updated stim.csv","Version3.csv","Version 3","List 3","lumber",NA,"88",5.217391304,1557,89,"BOI","-","-","Please name all of the ways you could use this object. Keep in mind that one object can have many uses. Separate your responses with a comma.",NA,"y",28753,NA,NA,1994,27199,NA,NA,NA,"build, recycle, renew, create, houses, boardwalks",1
"10081449MR","guyty21czj","BOI Norms",1,22,"2022-04-14T03:14:39+00:00",38.451596021652,3,"updated stim.csv","Version3.csv","Version 3","List 3","police",NA,"72",4.739130435,2021,73,"BOI","-","-","Please name all of the ways you could use this object. Keep in mind that one object can have many uses. Separate your responses with a comma.",NA,"y",38222,NA,NA,10953,37289,NA,NA,NA,"crime stoppers, escort, funerals, gas, flat tires",1
"10081449MR","guyty21czj","BOI Norms",1,23,"2022-04-14T03:15:19+00:00",40.121887922287,3,"updated stim.csv","Version3.csv","Version 3","List 3","limestone",NA,"81",4.565217391,1515,82,"BOI","-","-","Please name all of the ways you could use this object. Keep in mind that one object can have many uses. Separate your responses with a comma.",NA,"y",39881,NA,NA,3087,37220,NA,NA,NA,"countertops, throw, sit on, draw, mine",1
"10081449MR","guyty21czj","BOI Norms",1,24,"2022-04-14T03:15:54+00:00",35.411199092865,3,"updated stim.csv","Version3.csv","Version 3","List 3","plow",NA,"68",5,2008,69,"BOI","-","-","Please name all of the ways you could use this object. Keep in mind that one object can have many uses. Separate your responses with a comma.",NA,"y",35196,NA,NA,5548,33415,NA,NA,NA,"farming, dig up dirt, helps with crop",1
"10081449MR","guyty21czj","BOI Norms",1,25,"2022-04-14T03:16:08+00:00",13.860658884048,3,"updated stim.csv","Version3.csv","Version 3","List 3","fastener",NA,"82",4.347826087,950,83,"BOI","-","-","Please name all of the ways you could use this object. Keep in mind that one object can have many uses. Separate your responses with a comma.",NA,"y",13609,NA,NA,-1,-1,NA,NA,NA,"",1
"10081449MR","guyty21czj","BOI Norms",1,26,"2022-04-14T03:16:33+00:00",24.643510103226,3,"updated stim.csv","Version3.csv","Version 3","List 3","stake",NA,"66",4.36,2503,67,"BOI","-","-","Please name all of the ways you could use this object. Keep in mind that one object can have many uses. Separate your responses with a comma.",NA,"y",24412,NA,NA,12995,23047,NA,NA,NA,"hold down tent",1
"10081449MR","guyty21czj","BOI Norms",1,27,"2022-04-14T03:16:55+00:00",22.470902919769,3,"updated stim.csv","Version3.csv","Version 3","List 3","pinecone",NA,"62",5.821428571,1972,63,"BOI","-","-","Please name all of the ways you could use this object. Keep in mind that one object can have many uses. Separate your responses with a comma.",NA,"y",22208,NA,NA,4649,19868,NA,NA,NA,"throw, kick, pick up, decoration, art, crafts, ",1
"10081449MR","guyty21czj","BOI Norms",1,28,"2022-04-14T03:17:25+00:00",29.452708005905,3,"updated stim.csv","Version3.csv","Version 3","List 3","sash",NA,"79",4.916666667,2244,80,"BOI","-","-","Please name all of the ways you could use this object. Keep in mind that one object can have many uses. Separate your responses with a comma.",NA,"y",29209,NA,NA,3352,27760,NA,NA,NA,"wear, present, give, take",1
"10081449MR","guyty21czj","BOI Norms",1,29,"2022-04-14T03:17:43+00:00",18.344418048859,3,"updated stim.csv","Version3.csv","Version 3","List 3","lilac",NA,"80",5,1508,81,"BOI","-","-","Please name all of the ways you could use this object. Keep in mind that one object can have many uses. Separate your responses with a comma.",NA,"y",17990,NA,NA,3767,15483,NA,NA,NA,"hold, decoration, throw, smell, pick",1
"10081449MR","guyty21czj","BOI Norms",1,30,"2022-04-14T03:18:13+00:00",30.22710609436,3,"updated stim.csv","Version3.csv","Version 3","List 3","perfume",NA,"78",4.96,1926,79,"BOI","-","-","Please name all of the ways you could use this object. Keep in mind that one object can have many uses. Separate your responses with a comma.",NA,"y",29996,NA,NA,7027,16810,NA,NA,NA,"smell, like, dislike, decoration, ",1
"10081449MR","guyty21czj","BOI Norms",1,31,"2022-04-14T03:18:21+00:00",7.1906180381775,3,"updated stim.csv","Version3.csv","Version 3","List 3","dogcatcher",NA,"74",4.72,812,75,"BOI","-","-","Please name all of the ways you could use this object. Keep in mind that one object can have many uses. Separate your responses with a comma.",NA,"y",6912,NA,NA,4005,5810,NA,NA,NA,"catch dogs",1
"10081449MR","guyty21czj","BOI Norms",1,32,"2022-04-14T03:18:39+00:00",18.172721862793,3,"updated stim.csv","Version3.csv","Version 3","List 3","stone",NA,"67",5.875,2545,68,"BOI","-","-","Please name all of the ways you could use this object. Keep in mind that one object can have many uses. Separate your responses with a comma.",NA,"y",17968,NA,NA,3404,9358,NA,NA,NA,"skip, throw, step on, ",1
"10081449MR","guyty21czj","BOI Norms",1,33,"2022-04-14T03:18:47+00:00",8.3168449401855,3,"updated stim.csv","Version3.csv","Version 3","List 3","spit",NA,"76",4.391304348,2476,77,"BOI","-","-","Please name all of the ways you could use this object. Keep in mind that one object can have many uses. Separate your responses with a comma.",NA,"y",7933,NA,NA,-1,-1,NA,NA,NA,"",1
"10081449MR","guyty21czj","BOI Norms",1,34,"2022-04-14T03:19:01+00:00",13.929253101349,3,"updated stim.csv","Version3.csv","Version 3","List 3","overcoat",NA,"85",6.52,1832,86,"BOI","-","-","Please name all of the ways you could use this object. Keep in mind that one object can have many uses. Separate your responses with a comma.",NA,"y",13480,NA,NA,2095,12570,NA,NA,NA,"wear, hang up, wash, dry",1
"10081449MR","guyty21czj","BOI Norms",1,35,"2022-04-14T03:19:09+00:00",7.7712481021881,3,"updated stim.csv","Version3.csv","Version 3","List 3","delicatessen",NA,"87",4.347826087,768,88,"BOI","-","-","Please name all of the ways you could use this object. Keep in mind that one object can have many uses. Separate your responses with a comma.",NA,"y",7497,NA,NA,2866,5720,NA,NA,NA,"eat, sit, ",1
"10081449MR","guyty21czj","BOI Norms",1,36,"2022-04-14T03:19:38+00:00",29.720346927643,3,"updated stim.csv","Version3.csv","Version 3","List 3","tights",NA,"63",5.956521739,2696,64,"BOI","-","-","Please name all of the ways you could use this object. Keep in mind that one object can have many uses. Separate your responses with a comma.",NA,"y",29476,NA,NA,14519,28539,NA,NA,NA,"wear, wash, dry, tear, sell, buy",1
"10081449MR","guyty21czj","BOI Norms",1,37,"2022-04-14T03:19:51+00:00",12.512237071991,3,"updated stim.csv","Version3.csv","Version 3","List 3","postmaster",NA,"64",5.2,2045,65,"BOI","-","-","Please name all of the ways you could use this object. Keep in mind that one object can have many uses. Separate your responses with a comma.",NA,"y",12184,NA,NA,5910,11315,NA,NA,NA,"mail, hire, fire",1
"10081449MR","guyty21czj","BOI Norms",1,38,"2022-04-14T03:20:16+00:00",25.493282794952,3,"updated stim.csv","Version3.csv","Version 3","List 3","plastics",NA,"61",5,1995,62,"BOI","-","-","Please name all of the ways you could use this object. Keep in mind that one object can have many uses. Separate your responses with a comma.",NA,"y",25214,NA,NA,5240,17733,NA,NA,NA,"reuse, art, crafts, throw away, recycle, ",1
"10081449MR","guyty21czj","BOI Norms",1,39,"2022-04-14T03:20:46+00:00",29.784207105637,3,"updated stim.csv","Version3.csv","Version 3","List 3","cart",NA,"70",5.4,442,71,"BOI","-","-","Please name all of the ways you could use this object. Keep in mind that one object can have many uses. Separate your responses with a comma.",NA,"y",29544,NA,NA,9256,28497,NA,NA,NA,"push, pull, carry, holder",1
"10081449MR","guyty21czj","BOI Norms",1,40,"2022-04-14T03:21:20+00:00",34.093832969666,3,"updated stim.csv","Version3.csv","Version 3","List 3","stuff",NA,"77",4.391304348,2574,78,"BOI","-","-","Please name all of the ways you could use this object. Keep in mind that one object can have many uses. Separate your responses with a comma.",NA,"y",33839,NA,NA,3159,30028,NA,NA,NA,"write, sell, buy, reuse, recycle, keep",1
"10125826mo","h7jhrimu2a","BOI Norms",1,11,"2022-04-07T21:22:19+00:00",16.732553958893,24,"updated stim.csv","Version24.csv","Version 24","List 24","countrywoman",NA,"711",4.44,666,712,"BOI","-","-","Please name all of the ways you could use this object. Keep in mind that one object can have many uses. Separate your responses with a comma.",NA,"y",16600,NA,NA,6510,15683,NA,NA,NA,"dress, cook, work, dance, sing",1
"10125826mo","h7jhrimu2a","BOI Norms",1,12,"2022-04-07T21:22:21+00:00",1.42027592659,24,"updated stim.csv","Version24.csv","Version 24","List 24","giblets",NA,"719",4.714285714,1101,720,"BOI","-","-","Please name all of the ways you could use this object. Keep in mind that one object can have many uses. Separate your responses with a comma.",NA,"y",1299,NA,NA,-1,-1,NA,NA,NA,"",1
"10125826mo","h7jhrimu2a","BOI Norms",1,13,"2022-04-07T21:22:37+00:00",16.016624927521,24,"updated stim.csv","Version24.csv","Version 24","List 24","quarters",NA,"716",5.909090909,2112,717,"BOI","-","-","Please name all of the ways you could use this object. Keep in mind that one object can have many uses. Separate your responses with a comma.",NA,"y",15902,NA,NA,1530,15489,NA,NA,NA,"pay, count, collect, throw, toss",1
"10125826mo","h7jhrimu2a","BOI Norms",1,14,"2022-04-07T21:22:40+00:00",3.4989449977875,24,"updated stim.csv","Version24.csv","Version 24","List 24","lampshade",NA,"701",5.296296296,1458,702,"BOI","-","-","Please name all of the ways you could use this object. Keep in mind that one object can have many uses. Separate your responses with a comma.",NA,"y",3381,NA,NA,-1,-1,NA,NA,NA,"",1
"10125826mo","h7jhrimu2a","BOI Norms",1,15,"2022-04-07T21:22:47+00:00",7.2488989830017,24,"updated stim.csv","Version24.csv","Version 24","List 24","cactus",NA,"707",4.5,392,708,"BOI","-","-","Please name all of the ways you could use this object. Keep in mind that one object can have many uses. Separate your responses with a comma.",NA,"y",7134,NA,NA,2632,6691,NA,NA,NA,"grow, throw",1
"10125826mo","h7jhrimu2a","BOI Norms",1,16,"2022-04-07T21:22:49+00:00",1.333752155304,24,"updated stim.csv","Version24.csv","Version 24","List 24","smuggler",NA,"695",4.481481481,2424,696,"BOI","-","-","Please name all of the ways you could use this object. Keep in mind that one object can have many uses. Separate your responses with a comma.",NA,"y",1223,NA,NA,-1,-1,NA,NA,NA,"",1
"10125826mo","h7jhrimu2a","BOI Norms",1,17,"2022-04-07T21:22:50+00:00",1.3669619560242,24,"updated stim.csv","Version24.csv","Version 24","List 24","fir",NA,"691",4.272727273,982,692,"BOI","-","-","Please name all of the ways you could use this object. Keep in mind that one object can have many uses. Separate your responses with a comma.",NA,"y",1264,NA,NA,-1,-1,NA,NA,NA,"",1
"10125826mo","h7jhrimu2a","BOI Norms",1,18,"2022-04-07T21:22:57+00:00",7.0354249477386,24,"updated stim.csv","Version24.csv","Version 24","List 24","cricket",NA,"699",4.653846154,695,700,"BOI","-","-","Please name all of the ways you could use this object. Keep in mind that one object can have many uses. Separate your responses with a comma.",NA,"y",6935,NA,NA,4745,6347,NA,NA,NA,"smash",1
"10125826mo","h7jhrimu2a","BOI Norms",1,19,"2022-04-07T21:22:58+00:00",1.2131640911102,24,"updated stim.csv","Version24.csv","Version 24","List 24","parcel",NA,"692",5.583333333,1873,693,"BOI","-","-","Please name all of the ways you could use this object. Keep in mind that one object can have many uses. Separate your responses with a comma.",NA,"y",1108,NA,NA,-1,-1,NA,NA,NA,"",1
"10125826mo","h7jhrimu2a","BOI Norms",1,20,"2022-04-07T21:22:59+00:00",1.1056079864502,24,"updated stim.csv","Version24.csv","Version 24","List 24","placard",NA,"693",4.458333333,1983,694,"BOI","-","-","Please name all of the ways you could use this object. Keep in mind that one object can have many uses. Separate your responses with a comma.",NA,"y",1001,NA,NA,-1,-1,NA,NA,NA,"",1
"10125826mo","h7jhrimu2a","BOI Norms",1,21,"2022-04-07T21:23:07+00:00",8.0475459098816,24,"updated stim.csv","Version24.csv","Version 24","List 24","leotard",NA,"720",5.363636364,1493,721,"BOI","-","-","Please name all of the ways you could use this object. Keep in mind that one object can have many uses. Separate your responses with a comma.",NA,"y",7937,NA,NA,1582,6264,NA,NA,NA,"wear, make",1
"10125826mo","h7jhrimu2a","BOI Norms",1,22,"2022-04-07T21:23:20+00:00",12.353974103928,24,"updated stim.csv","Version24.csv","Version 24","List 24","nightlight",NA,"706",4.821428571,1772,707,"BOI","-","-","Please name all of the ways you could use this object. Keep in mind that one object can have many uses. Separate your responses with a comma.",NA,"y",12240,NA,NA,5815,11155,NA,NA,NA,"turn on, turn off,",1
"10125826mo","h7jhrimu2a","BOI Norms",1,23,"2022-04-07T21:23:22+00:00",2.4141139984131,24,"updated stim.csv","Version24.csv","Version 24","List 24","enemy",NA,"694",4.375,907,695,"BOI","-","-","Please name all of the ways you could use this object. Keep in mind that one object can have many uses. Separate your responses with a comma.",NA,"y",2297,NA,NA,-1,-1,NA,NA,NA,"",1
"10125826mo","h7jhrimu2a","BOI Norms",1,24,"2022-04-07T21:23:32+00:00",10.204920053482,24,"updated stim.csv","Version24.csv","Version 24","List 24","sugar",NA,"713",6.173913043,2580,714,"BOI","-","-","Please name all of the ways you could use this object. Keep in mind that one object can have many uses. Separate your responses with a comma.",NA,"y",10092,NA,NA,1730,9115,NA,NA,NA,"bake, cook, clean, eat, ",1
"10125826mo","h7jhrimu2a","BOI Norms",1,25,"2022-04-07T21:23:41+00:00",8.384064912796,24,"updated stim.csv","Version24.csv","Version 24","List 24","blueberry",NA,"710",6,249,711,"BOI","-","-","Please name all of the ways you could use this object. Keep in mind that one object can have many uses. Separate your responses with a comma.",NA,"y",8275,NA,NA,2036,6935,NA,NA,NA,"eat, bake, cook",1
"10125826mo","h7jhrimu2a","BOI Norms",1,26,"2022-04-07T21:23:50+00:00",9.513701915741,24,"updated stim.csv","Version24.csv","Version 24","List 24","woodpecker",NA,"714",4.833333333,2961,715,"BOI","-","-","Please name all of the ways you could use this object. Keep in mind that one object can have many uses. Separate your responses with a comma.",NA,"y",9386,NA,NA,2676,8316,NA,NA,NA,"watch, catch, throw",1
"10125826mo","h7jhrimu2a","BOI Norms",1,27,"2022-04-07T21:23:55+00:00",4.9615190029144,24,"updated stim.csv","Version24.csv","Version 24","List 24","shin",NA,"704",5.592592593,2339,705,"BOI","-","-","Please name all of the ways you could use this object. Keep in mind that one object can have many uses. Separate your responses with a comma.",NA,"y",4854,NA,NA,1925,3532,NA,NA,NA,"hit, ",1
"10125826mo","h7jhrimu2a","BOI Norms",1,28,"2022-04-07T21:24:05+00:00",9.9445111751556,24,"updated stim.csv","Version24.csv","Version 24","List 24","bong",NA,"715",5.6,268,716,"BOI","-","-","Please name all of the ways you could use this object. Keep in mind that one object can have many uses. Separate your responses with a comma.",NA,"y",9835,NA,NA,4243,7867,NA,NA,NA,"smoke",1
"10125826mo","h7jhrimu2a","BOI Norms",1,29,"2022-04-07T21:24:10+00:00",4.6406338214874,24,"updated stim.csv","Version24.csv","Version 24","List 24","artichoke",NA,"717",5.708333333,78,718,"BOI","-","-","Please name all of the ways you could use this object. Keep in mind that one object can have many uses. Separate your responses with a comma.",NA,"y",3705,NA,NA,1323,1772,NA,NA,NA,"eat",1
"10125826mo","h7jhrimu2a","BOI Norms",1,30,"2022-04-07T21:24:20+00:00",10.60391998291,24,"updated stim.csv","Version24.csv","Version 24","List 24","charcoal",NA,"702",4.740740741,496,703,"BOI","-","-","Please name all of the ways you could use this object. Keep in mind that one object can have many uses. Separate your responses with a comma.",NA,"y",10498,NA,NA,2480,8983,NA,NA,NA,"draw, burn, collect",1
"10125826mo","h7jhrimu2a","BOI Norms",1,31,"2022-04-07T21:24:22+00:00",1.8242449760437,24,"updated stim.csv","Version24.csv","Version 24","List 24","bosom",NA,"718",5.52,286,719,"BOI","-","-","Please name all of the ways you could use this object. Keep in mind that one object can have many uses. Separate your responses with a comma.",NA,"y",1714,NA,NA,-1,-1,NA,NA,NA,"",1
"10125826mo","h7jhrimu2a","BOI Norms",1,32,"2022-04-07T21:24:38+00:00",15.957960128784,24,"updated stim.csv","Version24.csv","Version 24","List 24","rock",NA,"703",5.48,2183,704,"BOI","-","-","Please name all of the ways you could use this object. Keep in mind that one object can have many uses. Separate your responses with a comma.",NA,"y",15840,NA,NA,3532,15046,NA,NA,NA,"throw, paint, collect, clean",1
"10125826mo","h7jhrimu2a","BOI Norms",1,33,"2022-04-07T21:24:52+00:00",13.729115962982,24,"updated stim.csv","Version24.csv","Version 24","List 24","hibiscus",NA,"712",4.952380952,1285,713,"BOI","-","-","Please name all of the ways you could use this object. Keep in mind that one object can have many uses. Separate your responses with a comma.",NA,"y",13605,NA,NA,4081,12543,NA,NA,NA,"pick, throw, pick, smell, cook",1
"10125826mo","h7jhrimu2a","BOI Norms",1,34,"2022-04-07T21:25:08+00:00",15.627061128616,24,"updated stim.csv","Version24.csv","Version 24","List 24","wildlife",NA,"700",4.44,2939,701,"BOI","-","-","Please name all of the ways you could use this object. Keep in mind that one object can have many uses. Separate your responses with a comma.",NA,"y",15403,NA,NA,3366,14868,NA,NA,NA,"watch, feed, pet, wash, help, clean",1
"10125826mo","h7jhrimu2a","BOI Norms",1,35,"2022-04-07T21:25:11+00:00",3.6825017929077,24,"updated stim.csv","Version24.csv","Version 24","List 24","harp",NA,"697",5.8,1253,698,"BOI","-","-","Please name all of the ways you could use this object. Keep in mind that one object can have many uses. Separate your responses with a comma.",NA,"y",3436,NA,NA,1698,2129,NA,NA,NA,"play",1
"10125826mo","h7jhrimu2a","BOI Norms",1,36,"2022-04-07T21:25:14+00:00",2.6027050018311,24,"updated stim.csv","Version24.csv","Version 24","List 24","floor",NA,"696",5.666666667,1008,697,"BOI","-","-","Please name all of the ways you could use this object. Keep in mind that one object can have many uses. Separate your responses with a comma.",NA,"y",2493,NA,NA,1250,2001,NA,NA,NA,"clean",1
"10125826mo","h7jhrimu2a","BOI Norms",1,37,"2022-04-07T21:25:20+00:00",6.6018931865692,24,"updated stim.csv","Version24.csv","Version 24","List 24","gymnasium",NA,"698",4.464285714,1204,699,"BOI","-","-","Please name all of the ways you could use this object. Keep in mind that one object can have many uses. Separate your responses with a comma.",NA,"y",6493,NA,NA,3391,5440,NA,NA,NA,"stretch",1
"10125826mo","h7jhrimu2a","BOI Norms",1,38,"2022-04-07T21:25:29+00:00",8.9459619522095,24,"updated stim.csv","Version24.csv","Version 24","List 24","herb",NA,"709",5.826086957,1280,710,"BOI","-","-","Please name all of the ways you could use this object. Keep in mind that one object can have many uses. Separate your responses with a comma.",NA,"y",8832,NA,NA,2642,8182,NA,NA,NA,"cook, clean, season",1
"10125826mo","h7jhrimu2a","BOI Norms",1,39,"2022-04-07T21:25:32+00:00",2.9042000770569,24,"updated stim.csv","Version24.csv","Version 24","List 24","breast",NA,"708",5.4,312,709,"BOI","-","-","Please name all of the ways you could use this object. Keep in mind that one object can have many uses. Separate your responses with a comma.",NA,"y",2729,NA,NA,-1,-1,NA,NA,NA,"",1
"10125826mo","h7jhrimu2a","BOI Norms",1,40,"2022-04-07T21:25:39+00:00",6.4317259788513,24,"updated stim.csv","Version24.csv","Version 24","List 24","puck",NA,"705",4.608695652,2087,706,"BOI","-","-","Please name all of the ways you could use this object. Keep in mind that one object can have many uses. Separate your responses with a comma.",NA,"y",6315,NA,NA,2241,4511,NA,NA,NA,"throw, hit",1
"10134006OW","c16w4c9tj6","BOI Norms",1,11,"2022-04-05T23:00:14+00:00",22.576000928879,17,"updated stim.csv","Version17.csv","Version 17","List 17","handbook",NA,"499",5.782608696,1231,500,"BOI","-","-","Please name all of the ways you could use this object. Keep in mind that one object can have many uses. Separate your responses with a comma.",NA,"y",22425,NA,NA,7397,21033,NA,NA,NA,"write,read,understand,see",0.958
"10134006OW","c16w4c9tj6","BOI Norms",1,12,"2022-04-05T23:00:37+00:00",22.800356149673,17,"updated stim.csv","Version17.csv","Version 17","List 17","bubble",NA,"495",4.64,339,496,"BOI","-","-","Please name all of the ways you could use this object. Keep in mind that one object can have many uses. Separate your responses with a comma.",NA,"y",22640,NA,NA,15936,21179,NA,NA,NA,"crack,hit,put",0.787
"10134006OW","c16w4c9tj6","BOI Norms",1,13,"2022-04-05T23:01:01+00:00",23.763187885284,17,"updated stim.csv","Version17.csv","Version 17","List 17","aftershave",NA,"505",5.375,18,506,"BOI","-","-","Please name all of the ways you could use this object. Keep in mind that one object can have many uses. Separate your responses with a comma.",NA,"y",23515,NA,NA,10820,22277,NA,NA,NA,"clean,wash,use,put",0.926
"10134006OW","c16w4c9tj6","BOI Norms",1,14,"2022-04-05T23:01:23+00:00",21.974645137787,17,"updated stim.csv","Version17.csv","Version 17","List 17","kitten",NA,"492",6.4,1428,493,"BOI","-","-","Please name all of the ways you could use this object. Keep in mind that one object can have many uses. Separate your responses with a comma.",NA,"y",21723,NA,NA,10215,20461,NA,NA,NA,"fead,touch,hug,love,walk",0.932
"10134006OW","c16w4c9tj6","BOI Norms",1,15,"2022-04-05T23:01:41+00:00",18.125818967819,17,"updated stim.csv","Version17.csv","Version 17","List 17","fingerboard",NA,"506",5.15,978,507,"BOI","-","-","Please name all of the ways you could use this object. Keep in mind that one object can have many uses. Separate your responses with a comma.",NA,"y",17935,NA,NA,8143,15133,NA,NA,NA,"write,tap,use,",0.913
"10134006OW","c16w4c9tj6","BOI Norms",1,16,"2022-04-05T23:02:08+00:00",27.287041902542,17,"updated stim.csv","Version17.csv","Version 17","List 17","wart",NA,"503",4.56,2894,504,"BOI","-","-","Please name all of the ways you could use this object. Keep in mind that one object can have many uses. Separate your responses with a comma.",NA,"y",27118,NA,NA,19884,25874,NA,NA,NA,"squeeze,touch,clean",0.778
"10134006OW","c16w4c9tj6","BOI Norms",1,17,"2022-04-05T23:02:37+00:00",29.132825136185,17,"updated stim.csv","Version17.csv","Version 17","List 17","colander",NA,"501",6,598,502,"BOI","-","-","Please name all of the ways you could use this object. Keep in mind that one object can have many uses. Separate your responses with a comma.",NA,"y",28909,NA,NA,16956,27541,NA,NA,NA,"trickle,use,strain",0.662
"10134006OW","c16w4c9tj6","BOI Norms",1,18,"2022-04-05T23:02:58+00:00",20.490818977356,17,"updated stim.csv","Version17.csv","Version 17","List 17","groom",NA,"482",5,1181,483,"BOI","-","-","Please name all of the ways you could use this object. Keep in mind that one object can have many uses. Separate your responses with a comma.",NA,"y",20259,NA,NA,7832,12971,NA,NA,NA,"love,visit,give,",0.923
"10134006OW","c16w4c9tj6","BOI Norms",1,19,"2022-04-05T23:03:13+00:00",15.580218076706,17,"updated stim.csv","Version17.csv","Version 17","List 17","memorabilia",NA,"490",4.434782609,1643,491,"BOI","-","-","Please name all of the ways you could use this object. Keep in mind that one object can have many uses. Separate your responses with a comma.",NA,"y",15306,NA,NA,9884,13973,NA,NA,NA,"buy,give,collect",0.933
"10134006OW","c16w4c9tj6","BOI Norms",1,20,"2022-04-05T23:03:35+00:00",21.535308837891,17,"updated stim.csv","Version17.csv","Version 17","List 17","bookseller",NA,"483",5,278,484,"BOI","-","-","Please name all of the ways you could use this object. Keep in mind that one object can have many uses. Separate your responses with a comma.",NA,"y",21256,NA,NA,5523,19926,NA,NA,NA,"read,sell,buy,write",1
"10134006OW","c16w4c9tj6","BOI Norms",1,21,"2022-04-05T23:03:52+00:00",17.468863010406,17,"updated stim.csv","Version17.csv","Version 17","List 17","spice",NA,"509",5.125,2470,510,"BOI","-","-","Please name all of the ways you could use this object. Keep in mind that one object can have many uses. Separate your responses with a comma.",NA,"y",17246,NA,NA,7552,15977,NA,NA,NA,"eat,bite,use,cook",0.845
"10134006OW","c16w4c9tj6","BOI Norms",1,22,"2022-04-05T23:04:07+00:00",15.189157962799,17,"updated stim.csv","Version17.csv","Version 17","List 17","chapel",NA,"497",4.52,494,498,"BOI","-","-","Please name all of the ways you could use this object. Keep in mind that one object can have many uses. Separate your responses with a comma.",NA,"y",14975,NA,NA,6272,10616,NA,NA,NA,"pray,go,visit,",0.914
"10134006OW","c16w4c9tj6","BOI Norms",1,23,"2022-04-05T23:04:34+00:00",26.51687502861,17,"updated stim.csv","Version17.csv","Version 17","List 17","sleigh",NA,"507",4.84,2410,508,"BOI","-","-","Please name all of the ways you could use this object. Keep in mind that one object can have many uses. Separate your responses with a comma.",NA,"y",26332,NA,NA,11958,25260,NA,NA,NA,"sleigh,go,sit,fun",0.882
"10134006OW","c16w4c9tj6","BOI Norms",1,24,"2022-04-05T23:04:52+00:00",17.812441110611,17,"updated stim.csv","Version17.csv","Version 17","List 17","washerwoman",NA,"510",4.55,2900,511,"BOI","-","-","Please name all of the ways you could use this object. Keep in mind that one object can have many uses. Separate your responses with a comma.",NA,"y",17613,NA,NA,9126,16512,NA,NA,NA,"wash,clean,invite,visit",0.931
"10134006OW","c16w4c9tj6","BOI Norms",1,25,"2022-04-05T23:05:17+00:00",25.375231981277,17,"updated stim.csv","Version17.csv","Version 17","List 17","caddy",NA,"489",4.913043478,393,490,"BOI","-","-","Please name all of the ways you could use this object. Keep in mind that one object can have many uses. Separate your responses with a comma.",NA,"y",25220,NA,NA,14869,24272,NA,NA,NA,"help,do,go,visit,sport",0.831
"10134006OW","c16w4c9tj6","BOI Norms",1,26,"2022-04-05T23:05:32+00:00",14.668052911758,17,"updated stim.csv","Version17.csv","Version 17","List 17","rum",NA,"491",5.64,2206,492,"BOI","-","-","Please name all of the ways you could use this object. Keep in mind that one object can have many uses. Separate your responses with a comma.",NA,"y",14408,NA,NA,7485,13171,NA,NA,NA,"drink,eat,use,make",0.882
"10134006OW","c16w4c9tj6","BOI Norms",1,27,"2022-04-05T23:06:06+00:00",33.953470945358,17,"updated stim.csv","Version17.csv","Version 17","List 17","nutshell",NA,"500",4.375,1793,501,"BOI","-","-","Please name all of the ways you could use this object. Keep in mind that one object can have many uses. Separate your responses with a comma.",NA,"y",33743,NA,NA,15005,32649,NA,NA,NA,"throw out,use,eat,shell",0.747
"10134006OW","c16w4c9tj6","BOI Norms",1,28,"2022-04-05T23:06:24+00:00",18.437932014465,17,"updated stim.csv","Version17.csv","Version 17","List 17","feline",NA,"494",5.458333333,959,495,"BOI","-","-","Please name all of the ways you could use this object. Keep in mind that one object can have many uses. Separate your responses with a comma.",NA,"y",18179,NA,NA,9170,17088,NA,NA,NA,"love,touch,hug,care",0.871
"10134006OW","c16w4c9tj6","BOI Norms",1,29,"2022-04-05T23:06:51+00:00",27.043231964111,17,"updated stim.csv","Version17.csv","Version 17","List 17","leech",NA,"498",4.291666667,1484,499,"BOI","-","-","Please name all of the ways you could use this object. Keep in mind that one object can have many uses. Separate your responses with a comma.",NA,"y",26848,NA,NA,17859,25441,NA,NA,NA,"suck,bite,eat,live",0.761
"10134006OW","c16w4c9tj6","BOI Norms",1,30,"2022-04-05T23:07:15+00:00",23.374776124954,17,"updated stim.csv","Version17.csv","Version 17","List 17","drill",NA,"485",5.739130435,848,486,"BOI","-","-","Please name all of the ways you could use this object. Keep in mind that one object can have many uses. Separate your responses with a comma.",NA,"y",23118,NA,NA,13927,21674,NA,NA,NA,"bore,use,do,work",0.812
"10134006OW","c16w4c9tj6","BOI Norms",1,31,"2022-04-05T23:07:34+00:00",19.060715913773,17,"updated stim.csv","Version17.csv","Version 17","List 17","kid",NA,"496",5.68,1414,497,"BOI","-","-","Please name all of the ways you could use this object. Keep in mind that one object can have many uses. Separate your responses with a comma.",NA,"y",18780,NA,NA,5028,15325,NA,NA,NA,"care,love,walk,eat,sleep",0.951
"10134006OW","c16w4c9tj6","BOI Norms",1,32,"2022-04-05T23:07:46+00:00",11.939301967621,17,"updated stim.csv","Version17.csv","Version 17","List 17","parka",NA,"481",5.875,1876,482,"BOI","-","-","Please name all of the ways you could use this object. Keep in mind that one object can have many uses. Separate your responses with a comma.",NA,"y",11729,NA,NA,7029,10159,NA,NA,NA,"wear,buy,sell",0.842
"10134006OW","c16w4c9tj6","BOI Norms",1,33,"2022-04-05T23:08:14+00:00",28.504306077957,17,"updated stim.csv","Version17.csv","Version 17","List 17","frame",NA,"502",4.956521739,1053,503,"BOI","-","-","Please name all of the ways you could use this object. Keep in mind that one object can have many uses. Separate your responses with a comma.",NA,"y",28312,NA,NA,11636,20532,NA,NA,NA,"built,use,hang,",0.892
"10134006OW","c16w4c9tj6","BOI Norms",1,34,"2022-04-05T23:08:30+00:00",15.65584897995,17,"updated stim.csv","Version17.csv","Version 17","List 17","headphones",NA,"486",6.083333333,1269,487,"BOI","-","-","Please name all of the ways you could use this object. Keep in mind that one object can have many uses. Separate your responses with a comma.",NA,"y",15395,NA,NA,2089,10600,NA,NA,NA,"listen,use,buy,sell",1
"10134006OW","c16w4c9tj6","BOI Norms",1,35,"2022-04-05T23:08:43+00:00",12.972761154175,17,"updated stim.csv","Version17.csv","Version 17","List 17","jacket",NA,"493",6.333333333,1370,494,"BOI","-","-","Please name all of the ways you could use this object. Keep in mind that one object can have many uses. Separate your responses with a comma.",NA,"y",12711,NA,NA,5822,10843,NA,NA,NA,"wear,use,buy,sell",0.917
"10134006OW","c16w4c9tj6","BOI Norms",1,36,"2022-04-05T23:09:02+00:00",19.142791986465,17,"updated stim.csv","Version17.csv","Version 17","List 17","doorknob",NA,"508",6.518518519,824,509,"BOI","-","-","Please name all of the ways you could use this object. Keep in mind that one object can have many uses. Separate your responses with a comma.",NA,"y",18962,NA,NA,10132,17115,NA,NA,NA,"pull,buy,built",0.899
"10134006OW","c16w4c9tj6","BOI Norms",1,37,"2022-04-05T23:09:23+00:00",20.816612005234,17,"updated stim.csv","Version17.csv","Version 17","List 17","gearbox",NA,"487",5.041666667,1092,488,"BOI","-","-","Please name all of the ways you could use this object. Keep in mind that one object can have many uses. Separate your responses with a comma.",NA,"y",20581,NA,NA,9326,19005,NA,NA,NA,"built,use,drive,change",0.892
"10134006OW","c16w4c9tj6","BOI Norms",1,38,"2022-04-05T23:09:46+00:00",23.240104913712,17,"updated stim.csv","Version17.csv","Version 17","List 17","wastebasket",NA,"484",6.217391304,2904,485,"BOI","-","-","Please name all of the ways you could use this object. Keep in mind that one object can have many uses. Separate your responses with a comma.",NA,"y",22983,NA,NA,9958,21499,NA,NA,NA,"throw,buy,use,clean",0.907
"10134006OW","c16w4c9tj6","BOI Norms",1,39,"2022-04-05T23:10:03+00:00",16.689002037048,17,"updated stim.csv","Version17.csv","Version 17","List 17","mincemeat",NA,"504",5.083333333,1662,505,"BOI","-","-","Please name all of the ways you could use this object. Keep in mind that one object can have many uses. Separate your responses with a comma.",NA,"y",16446,NA,NA,8323,14846,NA,NA,NA,"buy,use,eat,make,kill",0.885
"10134006OW","c16w4c9tj6","BOI Norms",1,40,"2022-04-05T23:10:19+00:00",15.944211959839,17,"updated stim.csv","Version17.csv","Version 17","List 17","gingersnap",NA,"488",4.703703704,1106,489,"BOI","-","-","Please name all of the ways you could use this object. Keep in mind that one object can have many uses. Separate your responses with a comma.",NA,"y",15664,NA,NA,8166,14601,NA,NA,NA,"eat,make,buy,taste",0.891
"10137584JC","6gheg3wklu","BOI Norms",1,11,"2022-05-05T02:38:25+00:00",23.906049013138,10,"updated stim.csv","Version10.csv","Version 10","List 10","handsaw",NA,"280",6.076923077,1242,281,"BOI","-","-","Please name all of the ways you could use this object. Keep in mind that one object can have many uses. Separate your responses with a comma.",NA,"y",23040,NA,NA,1848,21044,NA,NA,NA,"cut, chop, hold, work, break, drop, saw",1
"10137584JC","6gheg3wklu","BOI Norms",1,12,"2022-05-05T02:39:00+00:00",35.381809949875,10,"updated stim.csv","Version10.csv","Version 10","List 10","nostril",NA,"297",5.208333333,1780,298,"BOI","-","-","Please name all of the ways you could use this object. Keep in mind that one object can have many uses. Separate your responses with a comma.",NA,"y",34286,NA,NA,1848,30286,NA,NA,NA,"sniff, blow, pick, message, bleed, ",1
"10137584JC","6gheg3wklu","BOI Norms",1,13,"2022-05-05T02:39:24+00:00",24.253889083862,10,"updated stim.csv","Version10.csv","Version 10","List 10","roach",NA,"273",4.708333333,2175,274,"BOI","-","-","Please name all of the ways you could use this object. Keep in mind that one object can have many uses. Separate your responses with a comma.",NA,"y",23241,NA,NA,4282,21681,NA,NA,NA,"crawl, infest, run, fly, lay eggs, ",1
"10137584JC","6gheg3wklu","BOI Norms",1,14,"2022-05-05T02:39:42+00:00",17.335887908936,10,"updated stim.csv","Version10.csv","Version 10","List 10","rind",NA,"272",5.130434783,2169,273,"BOI","-","-","Please name all of the ways you could use this object. Keep in mind that one object can have many uses. Separate your responses with a comma.",NA,"y",16394,NA,NA,3351,11217,NA,NA,NA,"pig, watermelon,",1
"10137584JC","6gheg3wklu","BOI Norms",1,15,"2022-05-05T02:40:19+00:00",37.672794103622,10,"updated stim.csv","Version10.csv","Version 10","List 10","plywood",NA,"285",4.807692308,2012,286,"BOI","-","-","Please name all of the ways you could use this object. Keep in mind that one object can have many uses. Separate your responses with a comma.",NA,"y",36627,NA,NA,2396,34556,NA,NA,NA,"break, stack, nail, cut, split",1
"10137584JC","6gheg3wklu","BOI Norms",1,16,"2022-05-05T02:40:34+00:00",14.299595832825,10,"updated stim.csv","Version10.csv","Version 10","List 10","snowdrift",NA,"299",4.304347826,2432,300,"BOI","-","-","Please name all of the ways you could use this object. Keep in mind that one object can have many uses. Separate your responses with a comma.",NA,"y",13061,NA,NA,4471,8601,NA,NA,NA,"cold",1
"10137584JC","6gheg3wklu","BOI Norms",1,17,"2022-05-05T02:41:10+00:00",36.770421981812,10,"updated stim.csv","Version10.csv","Version 10","List 10","armband",NA,"276",5.347826087,72,277,"BOI","-","-","Please name all of the ways you could use this object. Keep in mind that one object can have many uses. Separate your responses with a comma.",NA,"y",35668,NA,NA,4686,24467,NA,NA,NA,"wrap, tight, stretch, tape",1
"10137584JC","6gheg3wklu","BOI Norms",1,18,"2022-05-05T02:41:30+00:00",19.707811117172,10,"updated stim.csv","Version10.csv","Version 10","List 10","wine",NA,"291",5.791666667,2947,292,"BOI","-","-","Please name all of the ways you could use this object. Keep in mind that one object can have many uses. Separate your responses with a comma.",NA,"y",14968,NA,NA,1725,13155,NA,NA,NA,"drink, spill, watsed, taste",1
"10137584JC","6gheg3wklu","BOI Norms",1,19,"2022-05-05T02:41:48+00:00",17.710093021393,10,"updated stim.csv","Version10.csv","Version 10","List 10","newsagent",NA,"289",4.333333333,1755,290,"BOI","-","-","Please name all of the ways you could use this object. Keep in mind that one object can have many uses. Separate your responses with a comma.",NA,"y",16475,NA,NA,2296,6858,NA,NA,NA,"talk, tv, ",1
"10137584JC","6gheg3wklu","BOI Norms",1,20,"2022-05-05T02:42:05+00:00",16.844050884247,10,"updated stim.csv","Version10.csv","Version 10","List 10","accessory",NA,"300",4.72,4,301,"BOI","-","-","Please name all of the ways you could use this object. Keep in mind that one object can have many uses. Separate your responses with a comma.",NA,"y",15886,NA,NA,1715,14520,NA,NA,NA,"wear, useful, bright, colorful",1
"10137584JC","6gheg3wklu","BOI Norms",1,21,"2022-05-05T02:42:23+00:00",18.558212995529,10,"updated stim.csv","Version10.csv","Version 10","List 10","bun",NA,"277",5.916666667,358,278,"BOI","-","-","Please name all of the ways you could use this object. Keep in mind that one object can have many uses. Separate your responses with a comma.",NA,"y",17827,NA,NA,2825,15521,NA,NA,NA,"hair, bread, eat,wear",1
"10137584JC","6gheg3wklu","BOI Norms",1,22,"2022-05-05T02:42:54+00:00",30.597985029221,10,"updated stim.csv","Version10.csv","Version 10","List 10","horsewhip",NA,"298",4.652173913,1317,299,"BOI","-","-","Please name all of the ways you could use this object. Keep in mind that one object can have many uses. Separate your responses with a comma.",NA,"y",29626,NA,NA,6280,24191,NA,NA,NA,"whip,throw",1
"10137584JC","6gheg3wklu","BOI Norms",1,23,"2022-05-05T02:43:03+00:00",9.2729849815369,10,"updated stim.csv","Version10.csv","Version 10","List 10","dagger",NA,"284",5.923076923,747,285,"BOI","-","-","Please name all of the ways you could use this object. Keep in mind that one object can have many uses. Separate your responses with a comma.",NA,"y",8310,NA,NA,2169,6606,NA,NA,NA,"sharp, throw",1
"10137584JC","6gheg3wklu","BOI Norms",1,24,"2022-05-05T02:43:35+00:00",31.682796955109,10,"updated stim.csv","Version10.csv","Version 10","List 10","herbivore",NA,"279",4.363636364,1281,280,"BOI","-","-","Please name all of the ways you could use this object. Keep in mind that one object can have many uses. Separate your responses with a comma.",NA,"y",30625,NA,NA,3660,29919,NA,NA,NA,"bugs,birds",1
"10137584JC","6gheg3wklu","BOI Norms",1,25,"2022-05-05T02:43:59+00:00",24.336462020874,10,"updated stim.csv","Version10.csv","Version 10","List 10","cheesecake",NA,"281",6.458333333,507,282,"BOI","-","-","Please name all of the ways you could use this object. Keep in mind that one object can have many uses. Separate your responses with a comma.",NA,"y",21131,NA,NA,1784,19039,NA,NA,NA,"eat, sweet, slice, cut",1
"10137584JC","6gheg3wklu","BOI Norms",1,26,"2022-05-05T02:44:12+00:00",13.372310161591,10,"updated stim.csv","Version10.csv","Version 10","List 10","book",NA,"286",6.47826087,270,287,"BOI","-","-","Please name all of the ways you could use this object. Keep in mind that one object can have many uses. Separate your responses with a comma.",NA,"y",12468,NA,NA,2987,7821,NA,NA,NA,"read, close, ",1
"10137584JC","6gheg3wklu","BOI Norms",1,27,"2022-05-05T02:44:28+00:00",15.948448896408,10,"updated stim.csv","Version10.csv","Version 10","List 10","pickle",NA,"294",5.730769231,1950,295,"BOI","-","-","Please name all of the ways you could use this object. Keep in mind that one object can have many uses. Separate your responses with a comma.",NA,"y",15104,NA,NA,6364,7827,NA,NA,NA,"eat,",1
"10137584JC","6gheg3wklu","BOI Norms",1,28,"2022-05-05T02:44:48+00:00",20.078845024109,10,"updated stim.csv","Version10.csv","Version 10","List 10","biscuit",NA,"296",5.964285714,224,297,"BOI","-","-","Please name all of the ways you could use this object. Keep in mind that one object can have many uses. Separate your responses with a comma.",NA,"y",18808,NA,NA,1444,16552,NA,NA,NA,"eat, bake, mix",1
"10137584JC","6gheg3wklu","BOI Norms",1,29,"2022-05-05T02:44:58+00:00",9.3848609924316,10,"updated stim.csv","Version10.csv","Version 10","List 10","scrubber",NA,"292",4.32,2291,293,"BOI","-","-","Please name all of the ways you could use this object. Keep in mind that one object can have many uses. Separate your responses with a comma.",NA,"y",8371,NA,NA,2628,7032,NA,NA,NA,"clean",1
"10137584JC","6gheg3wklu","BOI Norms",1,30,"2022-05-05T02:45:24+00:00",26.350014925003,10,"updated stim.csv","Version10.csv","Version 10","List 10","locker",NA,"283",5.538461538,1536,284,"BOI","-","-","Please name all of the ways you could use this object. Keep in mind that one object can have many uses. Separate your responses with a comma.",NA,"y",25346,NA,NA,2861,23423,NA,NA,NA,"books, lock,use,open,shut",1
"10137584JC","6gheg3wklu","BOI Norms",1,31,"2022-05-05T02:45:43+00:00",18.570579051971,10,"updated stim.csv","Version10.csv","Version 10","List 10","blood",NA,"271",5.32,241,272,"BOI","-","-","Please name all of the ways you could use this object. Keep in mind that one object can have many uses. Separate your responses with a comma.",NA,"y",17602,NA,NA,1726,16366,NA,NA,NA,"flows,dries",1
"10137584JC","6gheg3wklu","BOI Norms",1,32,"2022-05-05T02:46:05+00:00",21.882812023163,10,"updated stim.csv","Version10.csv","Version 10","List 10","teeth",NA,"293",6.275862069,2658,294,"BOI","-","-","Please name all of the ways you could use this object. Keep in mind that one object can have many uses. Separate your responses with a comma.",NA,"y",21053,NA,NA,4972,11841,NA,NA,NA,"eat, bite, ",1
"10137584JC","6gheg3wklu","BOI Norms",1,33,"2022-05-05T02:46:33+00:00",28.086915969849,10,"updated stim.csv","Version10.csv","Version 10","List 10","attorney",NA,"295",4.72,96,296,"BOI","-","-","Please name all of the ways you could use this object. Keep in mind that one object can have many uses. Separate your responses with a comma.",NA,"y",26934,NA,NA,2776,21536,NA,NA,NA,"talks, win cases, ",1
"10137584JC","6gheg3wklu","BOI Norms",1,34,"2022-05-05T02:46:40+00:00",7.1276969909668,10,"updated stim.csv","Version10.csv","Version 10","List 10","stewardess",NA,"290",5.12,2534,291,"BOI","-","-","Please name all of the ways you could use this object. Keep in mind that one object can have many uses. Separate your responses with a comma.",NA,"y",5481,NA,NA,-1,-1,NA,NA,NA,"",1
"10137584JC","6gheg3wklu","BOI Norms",1,35,"2022-05-05T02:47:14+00:00",33.80308508873,10,"updated stim.csv","Version10.csv","Version 10","List 10","skate",NA,"275",4.913043478,2389,276,"BOI","-","-","Please name all of the ways you could use this object. Keep in mind that one object can have many uses. Separate your responses with a comma.",NA,"y",32206,NA,NA,2537,16488,NA,NA,NA,"walk, ride, speed, ",1
"10137584JC","6gheg3wklu","BOI Norms",1,36,"2022-05-05T02:47:31+00:00",17.405493021011,10,"updated stim.csv","Version10.csv","Version 10","List 10","ferret",NA,"287",5,965,288,"BOI","-","-","Please name all of the ways you could use this object. Keep in mind that one object can have many uses. Separate your responses with a comma.",NA,"y",16612,NA,NA,3992,15047,NA,NA,NA,"pet, feed,hold",1
"10137584JC","6gheg3wklu","BOI Norms",1,37,"2022-05-05T02:47:48+00:00",17.097090959549,10,"updated stim.csv","Version10.csv","Version 10","List 10","brochure",NA,"274",6.2,328,275,"BOI","-","-","Please name all of the ways you could use this object. Keep in mind that one object can have many uses. Separate your responses with a comma.",NA,"y",16307,NA,NA,2023,15245,NA,NA,NA,"read, turn, open, flip pages",1
"10137584JC","6gheg3wklu","BOI Norms",1,38,"2022-05-05T02:48:13+00:00",24.989407062531,10,"updated stim.csv","Version10.csv","Version 10","List 10","battleship",NA,"278",4.36,173,279,"BOI","-","-","Please name all of the ways you could use this object. Keep in mind that one object can have many uses. Separate your responses with a comma.",NA,"y",24179,NA,NA,1670,21937,NA,NA,NA,"fight, protect, sail, sink",1
"10137584JC","6gheg3wklu","BOI Norms",1,39,"2022-05-05T02:48:30+00:00",17.16476392746,10,"updated stim.csv","Version10.csv","Version 10","List 10","propeller",NA,"282",4.36,2075,283,"BOI","-","-","Please name all of the ways you could use this object. Keep in mind that one object can have many uses. Separate your responses with a comma.",NA,"y",16338,NA,NA,-1,-1,NA,NA,NA,"",1
"10137584JC","6gheg3wklu","BOI Norms",1,40,"2022-05-05T02:48:42+00:00",11.726912975311,10,"updated stim.csv","Version10.csv","Version 10","List 10","rhubarb",NA,"288",5.260869565,2163,289,"BOI","-","-","Please name all of the ways you could use this object. Keep in mind that one object can have many uses. Separate your responses with a comma.",NA,"y",10424,NA,NA,-1,-1,NA,NA,NA,"",1
"autumn.burkhalter@usm.edu","xh6dqmllcc","BOI Norms",1,11,"2022-05-04T04:14:55+00:00",37.497067928314,7,"updated stim.csv","Version7.csv","Version 7","List 7","cheese",NA,"187",6.391304348,506,188,"BOI","-","-","Please name all of the ways you could use this object. Keep in mind that one object can have many uses. Separate your responses with a comma.",NA,"y",37359,NA,NA,3558,30242,NA,NA,NA,"eat, cook, store, feed, sandwich, salad",1
"autumn.burkhalter@usm.edu","xh6dqmllcc","BOI Norms",1,12,"2022-05-04T04:15:38+00:00",42.98398399353,7,"updated stim.csv","Version7.csv","Version 7","List 7","person",NA,"198",6.12,1930,199,"BOI","-","-","Please name all of the ways you could use this object. Keep in mind that one object can have many uses. Separate your responses with a comma.",NA,"y",42830,NA,NA,2327,39611,NA,NA,NA,"talk, interact, laugh, cry, hug, high-five, fist pump, smile, gossip",1
"autumn.burkhalter@usm.edu","xh6dqmllcc","BOI Norms",1,13,"2022-05-04T04:16:14+00:00",36.820981025696,7,"updated stim.csv","Version7.csv","Version 7","List 7","peanut",NA,"185",6.192307692,1893,186,"BOI","-","-","Please name all of the ways you could use this object. Keep in mind that one object can have many uses. Separate your responses with a comma.",NA,"y",36667,NA,NA,3919,24416,NA,NA,NA,"eat, peanut butter, mix with other foods",1
"autumn.burkhalter@usm.edu","xh6dqmllcc","BOI Norms",1,14,"2022-05-04T04:16:38+00:00",23.327573060989,7,"updated stim.csv","Version7.csv","Version 7","List 7","Guitar",NA,"193",6.293243243,1193,194,"BOI","-","-","Please name all of the ways you could use this object. Keep in mind that one object can have many uses. Separate your responses with a comma.",NA,"y",23169,NA,NA,1742,21960,NA,NA,NA,"play, concert, band, decoration, lessons, teaching",1
"autumn.burkhalter@usm.edu","xh6dqmllcc","BOI Norms",1,15,"2022-05-04T04:16:56+00:00",18.721451044083,7,"updated stim.csv","Version7.csv","Version 7","List 7","people",NA,"205",6.076923077,1920,206,"BOI","-","-","Please name all of the ways you could use this object. Keep in mind that one object can have many uses. Separate your responses with a comma.",NA,"y",18572,NA,NA,2699,17353,NA,NA,NA,"entertain, talk, gossip, interact, hug, laugh",1
"autumn.burkhalter@usm.edu","xh6dqmllcc","BOI Norms",1,16,"2022-05-04T04:17:33+00:00",36.370314836502,7,"updated stim.csv","Version7.csv","Version 7","List 7","kilt",NA,"195",5.04,1418,196,"BOI","-","-","Please name all of the ways you could use this object. Keep in mind that one object can have many uses. Separate your responses with a comma.",NA,"y",36227,NA,NA,26936,32485,NA,NA,NA,"wear, make, show",1
"autumn.burkhalter@usm.edu","xh6dqmllcc","BOI Norms",1,17,"2022-05-04T04:18:07+00:00",33.841309070587,7,"updated stim.csv","Version7.csv","Version 7","List 7","storeroom",NA,"191",4.655172414,2553,192,"BOI","-","-","Please name all of the ways you could use this object. Keep in mind that one object can have many uses. Separate your responses with a comma.",NA,"y",33692,NA,NA,1846,31718,NA,NA,NA,"storage, extra space, furniture, knick knacks",1
"autumn.burkhalter@usm.edu","xh6dqmllcc","BOI Norms",1,18,"2022-05-04T04:18:24+00:00",17.471724033356,7,"updated stim.csv","Version7.csv","Version 7","List 7","grandniece",NA,"192",4.708333333,1150,193,"BOI","-","-","Please name all of the ways you could use this object. Keep in mind that one object can have many uses. Separate your responses with a comma.",NA,"y",17327,NA,NA,4569,16702,NA,NA,NA,"hug, laugh, cry, talk, love",1
"autumn.burkhalter@usm.edu","xh6dqmllcc","BOI Norms",1,19,"2022-05-04T04:18:51+00:00",27.21780705452,7,"updated stim.csv","Version7.csv","Version 7","List 7","banquet",NA,"201",4.538461538,145,202,"BOI","-","-","Please name all of the ways you could use this object. Keep in mind that one object can have many uses. Separate your responses with a comma.",NA,"y",27079,NA,NA,2048,25373,NA,NA,NA,"award, eat, talk, speech",1
"autumn.burkhalter@usm.edu","xh6dqmllcc","BOI Norms",1,20,"2022-05-04T04:19:04+00:00",12.599416017532,7,"updated stim.csv","Version7.csv","Version 7","List 7","medic",NA,"207",5.217391304,1636,208,"BOI","-","-","Please name all of the ways you could use this object. Keep in mind that one object can have many uses. Separate your responses with a comma.",NA,"y",12459,NA,NA,4024,9289,NA,NA,NA,"help, heal, fix",1
"autumn.burkhalter@usm.edu","xh6dqmllcc","BOI Norms",1,21,"2022-05-04T04:19:14+00:00",10.469990968704,7,"updated stim.csv","Version7.csv","Version 7","List 7","controller",NA,"202",5.458333333,630,203,"BOI","-","-","Please name all of the ways you could use this object. Keep in mind that one object can have many uses. Separate your responses with a comma.",NA,"y",10309,NA,NA,2545,7234,NA,NA,NA,"drive, play",1
"autumn.burkhalter@usm.edu","xh6dqmllcc","BOI Norms",1,22,"2022-05-04T04:19:47+00:00",32.539407014847,7,"updated stim.csv","Version7.csv","Version 7","List 7","store",NA,"204",5.739130435,2550,205,"BOI","-","-","Please name all of the ways you could use this object. Keep in mind that one object can have many uses. Separate your responses with a comma.",NA,"y",32388,NA,NA,1617,31111,NA,NA,NA,"buy groceries, clothes, food, jewelry, shoes, sell, make money",1
"autumn.burkhalter@usm.edu","xh6dqmllcc","BOI Norms",1,23,"2022-05-04T04:20:05+00:00",17.638221979141,7,"updated stim.csv","Version7.csv","Version 7","List 7","cushion",NA,"190",5.75,733,191,"BOI","-","-","Please name all of the ways you could use this object. Keep in mind that one object can have many uses. Separate your responses with a comma.",NA,"y",17486,NA,NA,2117,16787,NA,NA,NA,"sit on, lay on, lay against, throw, sleep on",1
"autumn.burkhalter@usm.edu","xh6dqmllcc","BOI Norms",1,24,"2022-05-04T04:20:08+00:00",3.7368268966675,7,"updated stim.csv","Version7.csv","Version 7","List 7","suspender",NA,"194",5.76,2598,195,"BOI","-","-","Please name all of the ways you could use this object. Keep in mind that one object can have many uses. Separate your responses with a comma.",NA,"y",3598,NA,NA,2408,2851,NA,NA,NA,"wear",1
"autumn.burkhalter@usm.edu","xh6dqmllcc","BOI Norms",1,25,"2022-05-04T04:20:21+00:00",13.090774059296,7,"updated stim.csv","Version7.csv","Version 7","List 7","motorboat",NA,"182",5.304347826,1695,183,"BOI","-","-","Please name all of the ways you could use this object. Keep in mind that one object can have many uses. Separate your responses with a comma.",NA,"y",12951,NA,NA,2385,11822,NA,NA,NA,"drive, river, water, lake, ocean",1
"autumn.burkhalter@usm.edu","xh6dqmllcc","BOI Norms",1,26,"2022-05-04T04:20:37+00:00",15.633487939835,7,"updated stim.csv","Version7.csv","Version 7","List 7","goldfish",NA,"197",4.739130435,1133,198,"BOI","-","-","Please name all of the ways you could use this object. Keep in mind that one object can have many uses. Separate your responses with a comma.",NA,"y",15491,NA,NA,1588,14824,NA,NA,NA,"watch, feed, entertain, care for",1
"autumn.burkhalter@usm.edu","xh6dqmllcc","BOI Norms",1,27,"2022-05-04T04:20:41+00:00",3.9234700202942,7,"updated stim.csv","Version7.csv","Version 7","List 7","radish",NA,"188",5.846153846,2124,189,"BOI","-","-","Please name all of the ways you could use this object. Keep in mind that one object can have many uses. Separate your responses with a comma.",NA,"y",3812,NA,NA,1514,3029,NA,NA,NA,"eat, cook",1
"autumn.burkhalter@usm.edu","xh6dqmllcc","BOI Norms",1,28,"2022-05-04T04:20:51+00:00",9.6856200695038,7,"updated stim.csv","Version7.csv","Version 7","List 7","conductor",NA,"203",4.75,624,204,"BOI","-","-","Please name all of the ways you could use this object. Keep in mind that one object can have many uses. Separate your responses with a comma.",NA,"y",9559,NA,NA,5666,7786,NA,NA,NA,"watch",1
"autumn.burkhalter@usm.edu","xh6dqmllcc","BOI Norms",1,29,"2022-05-04T04:21:03+00:00",11.847580909729,7,"updated stim.csv","Version7.csv","Version 7","List 7","salesman",NA,"206",4.84,2222,207,"BOI","-","-","Please name all of the ways you could use this object. Keep in mind that one object can have many uses. Separate your responses with a comma.",NA,"y",11706,NA,NA,2782,10721,NA,NA,NA,"sell things, buy ",1
"autumn.burkhalter@usm.edu","xh6dqmllcc","BOI Norms",1,30,"2022-05-04T04:21:31+00:00",28.202996969223,7,"updated stim.csv","Version7.csv","Version 7","List 7","tent",NA,"189",5.5,2664,190,"BOI","-","-","Please name all of the ways you could use this object. Keep in mind that one object can have many uses. Separate your responses with a comma.",NA,"y",28045,NA,NA,1317,26851,NA,NA,NA,"sleep in, put up, assemble, entertain, sleepover, camping",1
"autumn.burkhalter@usm.edu","xh6dqmllcc","BOI Norms",1,31,"2022-05-04T04:21:36+00:00",5.4970970153809,7,"updated stim.csv","Version7.csv","Version 7","List 7","pine",NA,"200",4.347826087,1970,201,"BOI","-","-","Please name all of the ways you could use this object. Keep in mind that one object can have many uses. Separate your responses with a comma.",NA,"y",5366,NA,NA,-1,-1,NA,NA,NA,"",1
"autumn.burkhalter@usm.edu","xh6dqmllcc","BOI Norms",1,32,"2022-05-04T04:21:37+00:00",1.2145380973816,7,"updated stim.csv","Version7.csv","Version 7","List 7","mulch",NA,"208",4.625,1715,209,"BOI","-","-","Please name all of the ways you could use this object. Keep in mind that one object can have many uses. Separate your responses with a comma.",NA,"y",1106,NA,NA,-1,-1,NA,NA,NA,"",1
"autumn.burkhalter@usm.edu","xh6dqmllcc","BOI Norms",1,33,"2022-05-04T04:21:42+00:00",4.3005290031433,7,"updated stim.csv","Version7.csv","Version 7","List 7","eyebath",NA,"199",4.368421053,931,200,"BOI","-","-","Please name all of the ways you could use this object. Keep in mind that one object can have many uses. Separate your responses with a comma.",NA,"y",4156,NA,NA,2723,3239,NA,NA,NA,"clean",1
"autumn.burkhalter@usm.edu","xh6dqmllcc","BOI Norms",1,34,"2022-05-04T04:22:00+00:00",18.550831079483,7,"updated stim.csv","Version7.csv","Version 7","List 7","daddy",NA,"183",5.24,745,184,"BOI","-","-","Please name all of the ways you could use this object. Keep in mind that one object can have many uses. Separate your responses with a comma.",NA,"y",18410,NA,NA,4907,8503,NA,NA,NA,"talk, hug, love",1
"autumn.burkhalter@usm.edu","xh6dqmllcc","BOI Norms",1,35,"2022-05-04T04:22:10+00:00",9.5945799350739,7,"updated stim.csv","Version7.csv","Version 7","List 7","grapevine",NA,"186",4.869565217,1158,187,"BOI","-","-","Please name all of the ways you could use this object. Keep in mind that one object can have many uses. Separate your responses with a comma.",NA,"y",9455,NA,NA,8421,8771,NA,NA,NA,"eat",1
"autumn.burkhalter@usm.edu","xh6dqmllcc","BOI Norms",1,36,"2022-05-04T04:22:14+00:00",3.6369180679321,7,"updated stim.csv","Version7.csv","Version 7","List 7","mucous",NA,"184",5.04,1708,185,"BOI","-","-","Please name all of the ways you could use this object. Keep in mind that one object can have many uses. Separate your responses with a comma.",NA,"y",3530,NA,NA,-1,-1,NA,NA,NA,"",1
"autumn.burkhalter@usm.edu","xh6dqmllcc","BOI Norms",1,37,"2022-05-04T04:22:27+00:00",13.541522979736,7,"updated stim.csv","Version7.csv","Version 7","List 7","funnel",NA,"209",4.833333333,1065,210,"BOI","-","-","Please name all of the ways you could use this object. Keep in mind that one object can have many uses. Separate your responses with a comma.",NA,"y",13407,NA,NA,7278,12670,NA,NA,NA,"distribute liquid",1
"autumn.burkhalter@usm.edu","xh6dqmllcc","BOI Norms",1,38,"2022-05-04T04:22:35+00:00",7.6860959529877,7,"updated stim.csv","Version7.csv","Version 7","List 7","pad",NA,"210",5.217391304,1840,211,"BOI","-","-","Please name all of the ways you could use this object. Keep in mind that one object can have many uses. Separate your responses with a comma.",NA,"y",7554,NA,NA,2761,5897,NA,NA,NA,"lay on, kneel on",1
"autumn.burkhalter@usm.edu","xh6dqmllcc","BOI Norms",1,39,"2022-05-04T04:22:40+00:00",5.584282875061,7,"updated stim.csv","Version7.csv","Version 7","List 7","silk",NA,"181",4.8,2381,182,"BOI","-","-","Please name all of the ways you could use this object. Keep in mind that one object can have many uses. Separate your responses with a comma.",NA,"y",5456,NA,NA,2662,3576,NA,NA,NA,"clothing",1
"autumn.burkhalter@usm.edu","xh6dqmllcc","BOI Norms",1,40,"2022-05-04T04:22:56+00:00",16.022529125214,7,"updated stim.csv","Version7.csv","Version 7","List 7","eyelid",NA,"196",5.52173913,936,197,"BOI","-","-","Please name all of the ways you could use this object. Keep in mind that one object can have many uses. Separate your responses with a comma.",NA,"y",15889,NA,NA,1957,11515,NA,NA,NA,"close, open, eyeshadow",1
"sophia.boover@usm.edu","109rpkclti","BOI Norms",1,11,"2022-05-03T20:00:03+00:00",13.584437847137,2,"updated stim.csv","Version2.csv","Version 2","List 2","hotplate",NA,"45",5.230769231,1323,46,"BOI","-","-","Please name all of the ways you could use this object. Keep in mind that one object can have many uses. Separate your responses with a comma.",NA,"y",13341,NA,NA,2993,12454,NA,NA,NA,"used to heat things up, camping, science experiment",1
"sophia.boover@usm.edu","109rpkclti","BOI Norms",1,12,"2022-05-03T20:00:24+00:00",21.341475009918,2,"updated stim.csv","Version2.csv","Version 2","List 2","yogurt",NA,"49",6.347826087,2994,50,"BOI","-","-","Please name all of the ways you could use this object. Keep in mind that one object can have many uses. Separate your responses with a comma.",NA,"y",21155,NA,NA,1667,20618,NA,NA,NA,"eat for breakfast, mix in, parfait",1
"sophia.boover@usm.edu","109rpkclti","BOI Norms",1,13,"2022-05-03T20:00:44+00:00",19.528574943542,2,"updated stim.csv","Version2.csv","Version 2","List 2","trap",NA,"57",4.695652174,2762,58,"BOI","-","-","Please name all of the ways you could use this object. Keep in mind that one object can have many uses. Separate your responses with a comma.",NA,"y",19312,NA,NA,2958,19160,NA,NA,NA,"used on people, mentally, physically, emotionally, used on animals",1
"sophia.boover@usm.edu","109rpkclti","BOI Norms",1,14,"2022-05-03T20:00:59+00:00",15.398262023926,2,"updated stim.csv","Version2.csv","Version 2","List 2","toy",NA,"43",6.08,2750,44,"BOI","-","-","Please name all of the ways you could use this object. Keep in mind that one object can have many uses. Separate your responses with a comma.",NA,"y",15242,NA,NA,2665,14710,NA,NA,NA,"play with, give away, recieve",1
"sophia.boover@usm.edu","109rpkclti","BOI Norms",1,15,"2022-05-03T20:01:16+00:00",16.775652170181,2,"updated stim.csv","Version2.csv","Version 2","List 2","yourself",NA,"34",5.583333333,2998,35,"BOI","-","-","Please name all of the ways you could use this object. Keep in mind that one object can have many uses. Separate your responses with a comma.",NA,"y",16603,NA,NA,9250,15422,NA,NA,NA,"to do things, to live, to eat,",1
"sophia.boover@usm.edu","109rpkclti","BOI Norms",1,16,"2022-05-03T20:01:29+00:00",13.290409803391,2,"updated stim.csv","Version2.csv","Version 2","List 2","turban",NA,"40",5.148148148,2799,41,"BOI","-","-","Please name all of the ways you could use this object. Keep in mind that one object can have many uses. Separate your responses with a comma.",NA,"y",13002,NA,NA,2403,12483,NA,NA,NA,"dry hair, religious uses, hairstyle",1
"sophia.boover@usm.edu","109rpkclti","BOI Norms",1,17,"2022-05-03T20:01:38+00:00",9.1621050834656,2,"updated stim.csv","Version2.csv","Version 2","List 2","dolphin",NA,"48",4.52,817,49,"BOI","-","-","Please name all of the ways you could use this object. Keep in mind that one object can have many uses. Separate your responses with a comma.",NA,"y",8986,NA,NA,1516,8581,NA,NA,NA,"animal in ocean, aquarium ",1
"sophia.boover@usm.edu","109rpkclti","BOI Norms",1,18,"2022-05-03T20:01:51+00:00",12.190779924393,2,"updated stim.csv","Version2.csv","Version 2","List 2","antibiotics",NA,"55",4.956521739,48,56,"BOI","-","-","Please name all of the ways you could use this object. Keep in mind that one object can have many uses. Separate your responses with a comma.",NA,"y",12015,NA,NA,1723,11746,NA,NA,NA,"make you feel better, avoid infection",1
"sophia.boover@usm.edu","109rpkclti","BOI Norms",1,19,"2022-05-03T20:02:00+00:00",8.8892810344696,2,"updated stim.csv","Version2.csv","Version 2","List 2","teabag",NA,"42",6.32,2642,43,"BOI","-","-","Please name all of the ways you could use this object. Keep in mind that one object can have many uses. Separate your responses with a comma.",NA,"y",8616,NA,NA,1939,7619,NA,NA,NA,"used in tea, used for facial care",1
"sophia.boover@usm.edu","109rpkclti","BOI Norms",1,20,"2022-05-03T20:02:08+00:00",8.0482659339905,2,"updated stim.csv","Version2.csv","Version 2","List 2","satchel",NA,"36",5.583333333,2245,37,"BOI","-","-","Please name all of the ways you could use this object. Keep in mind that one object can have many uses. Separate your responses with a comma.",NA,"y",7787,NA,NA,1316,7346,NA,NA,NA,"used to hold things, accessory ",1
"sophia.boover@usm.edu","109rpkclti","BOI Norms",1,21,"2022-05-03T20:02:21+00:00",13.265585184097,2,"updated stim.csv","Version2.csv","Version 2","List 2","choreographer",NA,"44",4.826086957,535,45,"BOI","-","-","Please name all of the ways you could use this object. Keep in mind that one object can have many uses. Separate your responses with a comma.",NA,"y",12975,NA,NA,1797,9387,NA,NA,NA,"create dances, ",1
"sophia.boover@usm.edu","109rpkclti","BOI Norms",1,22,"2022-05-03T20:02:33+00:00",11.714790821075,2,"updated stim.csv","Version2.csv","Version 2","List 2","skittles",NA,"38",5.24,2402,39,"BOI","-","-","Please name all of the ways you could use this object. Keep in mind that one object can have many uses. Separate your responses with a comma.",NA,"y",11526,NA,NA,1218,11355,NA,NA,NA,"eat, count with, make fun deserts",1
"sophia.boover@usm.edu","109rpkclti","BOI Norms",1,23,"2022-05-03T20:02:39+00:00",6.0301442146301,2,"updated stim.csv","Version2.csv","Version 2","List 2","goalpost",NA,"37",4.84,1121,38,"BOI","-","-","Please name all of the ways you could use this object. Keep in mind that one object can have many uses. Separate your responses with a comma.",NA,"y",5865,NA,NA,4196,5693,NA,NA,NA,"used in sports",1
"sophia.boover@usm.edu","109rpkclti","BOI Norms",1,24,"2022-05-03T20:02:48+00:00",9.8893709182739,2,"updated stim.csv","Version2.csv","Version 2","List 2","prankster",NA,"51",4.642857143,2058,52,"BOI","-","-","Please name all of the ways you could use this object. Keep in mind that one object can have many uses. Separate your responses with a comma.",NA,"y",9725,NA,NA,4141,9547,NA,NA,NA,"do pranks on people",1
"sophia.boover@usm.edu","109rpkclti","BOI Norms",1,25,"2022-05-03T20:02:56+00:00",7.1027829647064,2,"updated stim.csv","Version2.csv","Version 2","List 2","assemblyman",NA,"59",4.72,89,60,"BOI","-","-","Please name all of the ways you could use this object. Keep in mind that one object can have many uses. Separate your responses with a comma.",NA,"y",6943,NA,NA,4080,6705,NA,NA,NA,"get things in order",1
"sophia.boover@usm.edu","109rpkclti","BOI Norms",1,26,"2022-05-03T20:03:33+00:00",36.930521965027,2,"updated stim.csv","Version2.csv","Version 2","List 2","rainwater",NA,"60",5.407407407,2133,61,"BOI","-","-","Please name all of the ways you could use this object. Keep in mind that one object can have many uses. Separate your responses with a comma.",NA,"y",36753,NA,NA,2686,36507,NA,NA,NA,"used to water flowers, water crops, water for ponds, water for animals, dance in",1
"sophia.boover@usm.edu","109rpkclti","BOI Norms",1,27,"2022-05-03T20:03:46+00:00",13.759160995483,2,"updated stim.csv","Version2.csv","Version 2","List 2","blower",NA,"53",4.48,245,54,"BOI","-","-","Please name all of the ways you could use this object. Keep in mind that one object can have many uses. Separate your responses with a comma.",NA,"y",13524,NA,NA,3094,12389,NA,NA,NA,"blow leaves",1
"sophia.boover@usm.edu","109rpkclti","BOI Norms",1,28,"2022-05-03T20:04:01+00:00",14.739812135696,2,"updated stim.csv","Version2.csv","Version 2","List 2","courtyard",NA,"31",4.392857143,668,32,"BOI","-","-","Please name all of the ways you could use this object. Keep in mind that one object can have many uses. Separate your responses with a comma.",NA,"y",14546,NA,NA,2222,14262,NA,NA,NA,"gather, play games, have a party",1
"sophia.boover@usm.edu","109rpkclti","BOI Norms",1,29,"2022-05-03T20:04:22+00:00",21.486956834793,2,"updated stim.csv","Version2.csv","Version 2","List 2","godmother",NA,"46",5.19047619,1128,47,"BOI","-","-","Please name all of the ways you could use this object. Keep in mind that one object can have many uses. Separate your responses with a comma.",NA,"y",21221,NA,NA,6858,21030,NA,NA,NA,"fairytale, religious, in place of mother",1
"sophia.boover@usm.edu","109rpkclti","BOI Norms",1,30,"2022-05-03T20:04:35+00:00",12.672581195831,2,"updated stim.csv","Version2.csv","Version 2","List 2","undergarment",NA,"58",6.074074074,2822,59,"BOI","-","-","Please name all of the ways you could use this object. Keep in mind that one object can have many uses. Separate your responses with a comma.",NA,"y",12472,NA,NA,2920,11947,NA,NA,NA,"to hold things in place",1
"sophia.boover@usm.edu","109rpkclti","BOI Norms",1,31,"2022-05-03T20:04:48+00:00",13.048136949539,2,"updated stim.csv","Version2.csv","Version 2","List 2","newscaster",NA,"32",4.347826087,1757,33,"BOI","-","-","Please name all of the ways you could use this object. Keep in mind that one object can have many uses. Separate your responses with a comma.",NA,"y",12681,NA,NA,8887,12376,NA,NA,NA,"report news",1
"sophia.boover@usm.edu","109rpkclti","BOI Norms",1,32,"2022-05-03T20:04:55+00:00",6.7918019294739,2,"updated stim.csv","Version2.csv","Version 2","List 2","gunpowder",NA,"54",4.96,1201,55,"BOI","-","-","Please name all of the ways you could use this object. Keep in mind that one object can have many uses. Separate your responses with a comma.",NA,"y",6642,NA,NA,2281,6354,NA,NA,NA,"make things go boom",1
"sophia.boover@usm.edu","109rpkclti","BOI Norms",1,33,"2022-05-03T20:05:08+00:00",13.074965953827,2,"updated stim.csv","Version2.csv","Version 2","List 2","coverall",NA,"50",4.739130435,670,51,"BOI","-","-","Please name all of the ways you could use this object. Keep in mind that one object can have many uses. Separate your responses with a comma.",NA,"y",12841,NA,NA,3246,12601,NA,NA,NA,"used in workplace, used for fashion",1
"sophia.boover@usm.edu","109rpkclti","BOI Norms",1,34,"2022-05-03T20:05:17+00:00",8.9473960399628,2,"updated stim.csv","Version2.csv","Version 2","List 2","gondola",NA,"52",4.916666667,1137,53,"BOI","-","-","Please name all of the ways you could use this object. Keep in mind that one object can have many uses. Separate your responses with a comma.",NA,"y",8767,NA,NA,3217,8534,NA,NA,NA,"transportation, fun amusement park",1
"sophia.boover@usm.edu","109rpkclti","BOI Norms",1,35,"2022-05-03T20:05:32+00:00",14.776628017426,2,"updated stim.csv","Version2.csv","Version 2","List 2","barman",NA,"39",4.818181818,150,40,"BOI","-","-","Please name all of the ways you could use this object. Keep in mind that one object can have many uses. Separate your responses with a comma.",NA,"y",14416,NA,NA,4361,14252,NA,NA,NA,"not sure",1
"sophia.boover@usm.edu","109rpkclti","BOI Norms",1,36,"2022-05-03T20:05:42+00:00",10.089962005615,2,"updated stim.csv","Version2.csv","Version 2","List 2","mice",NA,"47",5,1653,48,"BOI","-","-","Please name all of the ways you could use this object. Keep in mind that one object can have many uses. Separate your responses with a comma.",NA,"y",9878,NA,NA,2503,9756,NA,NA,NA,"rodents, pets, experimental objects",1
"sophia.boover@usm.edu","109rpkclti","BOI Norms",1,37,"2022-05-03T20:06:04+00:00",22.124897003174,2,"updated stim.csv","Version2.csv","Version 2","List 2","bottle",NA,"35",5.464285714,287,36,"BOI","-","-","Please name all of the ways you could use this object. Keep in mind that one object can have many uses. Separate your responses with a comma.",NA,"y",20666,NA,NA,2685,20423,NA,NA,NA,"accessory, drink out of, store liquids in",1
"sophia.boover@usm.edu","109rpkclti","BOI Norms",1,38,"2022-05-03T20:06:09+00:00",4.6256279945374,2,"updated stim.csv","Version2.csv","Version 2","List 2","tripe",NA,"56",4.7,2778,57,"BOI","-","-","Please name all of the ways you could use this object. Keep in mind that one object can have many uses. Separate your responses with a comma.",NA,"y",4257,NA,NA,3899,3899,NA,NA,NA,"?",1
"sophia.boover@usm.edu","109rpkclti","BOI Norms",1,39,"2022-05-03T20:06:26+00:00",17.718050003052,2,"updated stim.csv","Version2.csv","Version 2","List 2","boot",NA,"41",6.555555556,281,42,"BOI","-","-","Please name all of the ways you could use this object. Keep in mind that one object can have many uses. Separate your responses with a comma.",NA,"y",17531,NA,NA,1378,15974,NA,NA,NA,"wear, kick someone with, fashion accessory, ",1
"sophia.boover@usm.edu","109rpkclti","BOI Norms",1,40,"2022-05-03T20:06:52+00:00",25.142697095871,2,"updated stim.csv","Version2.csv","Version 2","List 2","lettuce",NA,"33",6.083333333,1497,34,"BOI","-","-","Please name all of the ways you could use this object. Keep in mind that one object can have many uses. Separate your responses with a comma.",NA,"y",24939,NA,NA,7049,24560,NA,NA,NA,"put on burger, grow in garden, salad, food, feed bunnies",1
"w10003295_MGP","1g4lpr8d71","BOI Norms",1,11,"2022-04-07T19:20:01+00:00",29.10050201416,23,"updated stim.csv","Version23.csv","Version 23","List 23","journal",NA,"674",6,1390,675,"BOI","-","-","Please name all of the ways you could use this object. Keep in mind that one object can have many uses. Separate your responses with a comma.",NA,"y",28952,NA,NA,1384,28356,NA,NA,NA,"write, keep, use, throw, draw, collect",1
"w10003295_MGP","1g4lpr8d71","BOI Norms",1,12,"2022-04-07T19:20:20+00:00",18.926908016205,23,"updated stim.csv","Version23.csv","Version 23","List 23","box",NA,"668",6.291666667,294,669,"BOI","-","-","Please name all of the ways you could use this object. Keep in mind that one object can have many uses. Separate your responses with a comma.",NA,"y",18757,NA,NA,1464,18474,NA,NA,NA,"store, throw, climb, get in, store, lift, hold",1
"w10003295_MGP","1g4lpr8d71","BOI Norms",1,13,"2022-04-07T19:20:30+00:00",9.8512561321259,23,"updated stim.csv","Version23.csv","Version 23","List 23","pill",NA,"666",6.36,1960,667,"BOI","-","-","Please name all of the ways you could use this object. Keep in mind that one object can have many uses. Separate your responses with a comma.",NA,"y",9686,NA,NA,1149,9481,NA,NA,NA,"take, store, crush, give",1
"w10003295_MGP","1g4lpr8d71","BOI Norms",1,14,"2022-04-07T19:20:41+00:00",10.804949998856,23,"updated stim.csv","Version23.csv","Version 23","List 23","heroin",NA,"665",4.423076923,1282,666,"BOI","-","-","Please name all of the ways you could use this object. Keep in mind that one object can have many uses. Separate your responses with a comma.",NA,"y",10645,NA,NA,3158,10108,NA,NA,NA,"take, shoot up, snort, use",1
"w10003295_MGP","1g4lpr8d71","BOI Norms",1,15,"2022-04-07T19:20:51+00:00",10.568349838257,23,"updated stim.csv","Version23.csv","Version 23","List 23","shovel",NA,"688",5.925925926,2363,689,"BOI","-","-","Please name all of the ways you could use this object. Keep in mind that one object can have many uses. Separate your responses with a comma.",NA,"y",10398,NA,NA,1260,9878,NA,NA,NA,"dig, stick, hit, throw",1
"w10003295_MGP","1g4lpr8d71","BOI Norms",1,16,"2022-04-07T19:21:11+00:00",19.557933092117,23,"updated stim.csv","Version23.csv","Version 23","List 23","podiatrist",NA,"662",4.791666667,2016,663,"BOI","-","-","Please name all of the ways you could use this object. Keep in mind that one object can have many uses. Separate your responses with a comma.",NA,"y",19393,NA,NA,7910,19174,NA,NA,NA,"feet, see, help, provide",1
"w10003295_MGP","1g4lpr8d71","BOI Norms",1,17,"2022-04-07T19:21:22+00:00",10.811861038208,23,"updated stim.csv","Version23.csv","Version 23","List 23","crown",NA,"679",6.173913043,711,680,"BOI","-","-","Please name all of the ways you could use this object. Keep in mind that one object can have many uses. Separate your responses with a comma.",NA,"y",10647,NA,NA,1278,9933,NA,NA,NA,"wear, mouth, place",1
"w10003295_MGP","1g4lpr8d71","BOI Norms",1,18,"2022-04-07T19:21:33+00:00",10.985260009766,23,"updated stim.csv","Version23.csv","Version 23","List 23","earplug",NA,"689",6.111111111,879,690,"BOI","-","-","Please name all of the ways you could use this object. Keep in mind that one object can have many uses. Separate your responses with a comma.",NA,"y",10828,NA,NA,1471,10204,NA,NA,NA,"stick, swimming, stop up",1
"w10003295_MGP","1g4lpr8d71","BOI Norms",1,19,"2022-04-07T19:21:46+00:00",13.621255874634,23,"updated stim.csv","Version23.csv","Version 23","List 23","flowerbed",NA,"670",5.041666667,1016,671,"BOI","-","-","Please name all of the ways you could use this object. Keep in mind that one object can have many uses. Separate your responses with a comma.",NA,"y",13464,NA,NA,1298,13181,NA,NA,NA,"dig, plant, display, use, water",1
"w10003295_MGP","1g4lpr8d71","BOI Norms",1,20,"2022-04-07T19:21:56+00:00",10.365316152573,23,"updated stim.csv","Version23.csv","Version 23","List 23","breadbasket",NA,"680",5.222222222,309,681,"BOI","-","-","Please name all of the ways you could use this object. Keep in mind that one object can have many uses. Separate your responses with a comma.",NA,"y",10202,NA,NA,2341,9046,NA,NA,NA,"store, display, travel with, give",1
"w10003295_MGP","1g4lpr8d71","BOI Norms",1,21,"2022-04-07T19:22:12+00:00",15.308972835541,23,"updated stim.csv","Version23.csv","Version 23","List 23","slide",NA,"675",5.130434783,2411,676,"BOI","-","-","Please name all of the ways you could use this object. Keep in mind that one object can have many uses. Separate your responses with a comma.",NA,"y",15138,NA,NA,2965,12820,NA,NA,NA,"slide, climb, slip",1
"w10003295_MGP","1g4lpr8d71","BOI Norms",1,22,"2022-04-07T19:22:18+00:00",6.1565489768982,23,"updated stim.csv","Version23.csv","Version 23","List 23","bifocals",NA,"672",5.875,212,673,"BOI","-","-","Please name all of the ways you could use this object. Keep in mind that one object can have many uses. Separate your responses with a comma.",NA,"y",5994,NA,NA,1302,4866,NA,NA,NA,"see, read, watch",1
"w10003295_MGP","1g4lpr8d71","BOI Norms",1,23,"2022-04-07T19:22:30+00:00",11.836629152298,23,"updated stim.csv","Version23.csv","Version 23","List 23","Shirt",NA,"676",6.473045822,2346,677,"BOI","-","-","Please name all of the ways you could use this object. Keep in mind that one object can have many uses. Separate your responses with a comma.",NA,"y",11687,NA,NA,1214,11396,NA,NA,NA,"wear, wrap, warm up, cover up",1
"w10003295_MGP","1g4lpr8d71","BOI Norms",1,24,"2022-04-07T19:22:43+00:00",13.307876825333,23,"updated stim.csv","Version23.csv","Version 23","List 23","woodcraft",NA,"664",4.296296296,2959,665,"BOI","-","-","Please name all of the ways you could use this object. Keep in mind that one object can have many uses. Separate your responses with a comma.",NA,"y",13150,NA,NA,2461,7649,NA,NA,NA,"build, create, nail, glue",1
"w10003295_MGP","1g4lpr8d71","BOI Norms",1,25,"2022-04-07T19:22:57+00:00",13.614365100861,23,"updated stim.csv","Version23.csv","Version 23","List 23","child",NA,"661",5.695652174,520,662,"BOI","-","-","Please name all of the ways you could use this object. Keep in mind that one object can have many uses. Separate your responses with a comma.",NA,"y",13442,NA,NA,1748,13219,NA,NA,NA,"keep, have, help, love, chores, obedience",1
"w10003295_MGP","1g4lpr8d71","BOI Norms",1,26,"2022-04-07T19:23:26+00:00",29.225980043411,23,"updated stim.csv","Version23.csv","Version 23","List 23","prize",NA,"687",4.916666667,2069,688,"BOI","-","-","Please name all of the ways you could use this object. Keep in mind that one object can have many uses. Separate your responses with a comma.",NA,"y",29058,NA,NA,1075,28736,NA,NA,NA,"win, receive, raffle, enjoy, give away",1
"w10003295_MGP","1g4lpr8d71","BOI Norms",1,27,"2022-04-07T19:23:38+00:00",12.552928924561,23,"updated stim.csv","Version23.csv","Version 23","List 23","auditorium",NA,"683",4.392857143,97,684,"BOI","-","-","Please name all of the ways you could use this object. Keep in mind that one object can have many uses. Separate your responses with a comma.",NA,"y",12394,NA,NA,1274,11375,NA,NA,NA,"listen, sit, watch, gather",1
"w10003295_MGP","1g4lpr8d71","BOI Norms",1,28,"2022-04-07T19:23:53+00:00",14.911543130875,23,"updated stim.csv","Version23.csv","Version 23","List 23","shaker",NA,"673",4.36,2318,674,"BOI","-","-","Please name all of the ways you could use this object. Keep in mind that one object can have many uses. Separate your responses with a comma.",NA,"y",14751,NA,NA,4880,13047,NA,NA,NA,"salt food, mix things, mix drinks",1
"w10003295_MGP","1g4lpr8d71","BOI Norms",1,29,"2022-04-07T19:24:07+00:00",13.254112005234,23,"updated stim.csv","Version23.csv","Version 23","List 23","turtleneck",NA,"681",5.375,2806,682,"BOI","-","-","Please name all of the ways you could use this object. Keep in mind that one object can have many uses. Separate your responses with a comma.",NA,"y",13079,NA,NA,1300,12714,NA,NA,NA,"wear, warm up",1
"w10003295_MGP","1g4lpr8d71","BOI Norms",1,30,"2022-04-07T19:24:18+00:00",11.388559818268,23,"updated stim.csv","Version23.csv","Version 23","List 23","stapler",NA,"682",6.458333333,2508,683,"BOI","-","-","Please name all of the ways you could use this object. Keep in mind that one object can have many uses. Separate your responses with a comma.",NA,"y",11221,NA,NA,1409,6321,NA,NA,NA,"staple, hold, paperweight",1
"w10003295_MGP","1g4lpr8d71","BOI Norms",1,31,"2022-04-07T19:24:34+00:00",16.067603111267,23,"updated stim.csv","Version23.csv","Version 23","List 23","brick",NA,"671",5.64,317,672,"BOI","-","-","Please name all of the ways you could use this object. Keep in mind that one object can have many uses. Separate your responses with a comma.",NA,"y",15899,NA,NA,1595,15546,NA,NA,NA,"build, use, stack, create, mortar",1
"w10003295_MGP","1g4lpr8d71","BOI Norms",1,32,"2022-04-07T19:24:42+00:00",7.7608020305634,23,"updated stim.csv","Version23.csv","Version 23","List 23","ice",NA,"685",5.458333333,1344,686,"BOI","-","-","Please name all of the ways you could use this object. Keep in mind that one object can have many uses. Separate your responses with a comma.",NA,"y",7604,NA,NA,1151,5734,NA,NA,NA,"chill, sip, heal",1
"w10003295_MGP","1g4lpr8d71","BOI Norms",1,33,"2022-04-07T19:24:54+00:00",11.685329914093,23,"updated stim.csv","Version23.csv","Version 23","List 23","lodge",NA,"677",4.833333333,1539,678,"BOI","-","-","Please name all of the ways you could use this object. Keep in mind that one object can have many uses. Separate your responses with a comma.",NA,"y",11535,NA,NA,1271,10962,NA,NA,NA,"stay, live, vacation, rent, ski ",1
"w10003295_MGP","1g4lpr8d71","BOI Norms",1,34,"2022-04-07T19:25:05+00:00",11.140921115875,23,"updated stim.csv","Version23.csv","Version 23","List 23","diaper",NA,"678",5.64,787,679,"BOI","-","-","Please name all of the ways you could use this object. Keep in mind that one object can have many uses. Separate your responses with a comma.",NA,"y",10967,NA,NA,1388,10465,NA,NA,NA,"wear, clean, hold, collect",1
"w10003295_MGP","1g4lpr8d71","BOI Norms",1,35,"2022-04-07T19:25:18+00:00",13.563315868378,23,"updated stim.csv","Version23.csv","Version 23","List 23","pantaloons",NA,"690",4.695652174,1858,691,"BOI","-","-","Please name all of the ways you could use this object. Keep in mind that one object can have many uses. Separate your responses with a comma.",NA,"y",13400,NA,NA,1485,13107,NA,NA,NA,"wear, dress, hang up, fodl",1
"w10003295_MGP","1g4lpr8d71","BOI Norms",1,36,"2022-04-07T19:25:29+00:00",11.049821138382,23,"updated stim.csv","Version23.csv","Version 23","List 23","suture",NA,"686",4.652173913,2600,687,"BOI","-","-","Please name all of the ways you could use this object. Keep in mind that one object can have many uses. Separate your responses with a comma.",NA,"y",10896,NA,NA,1670,10249,NA,NA,NA,"cut, heal, operate",1
"w10003295_MGP","1g4lpr8d71","BOI Norms",1,37,"2022-04-07T19:25:41+00:00",11.535646915436,23,"updated stim.csv","Version23.csv","Version 23","List 23","honeydew",NA,"667",5.444444444,1304,668,"BOI","-","-","Please name all of the ways you could use this object. Keep in mind that one object can have many uses. Separate your responses with a comma.",NA,"y",11374,NA,NA,1384,10973,NA,NA,NA,"eat, taste, enjoy, chew",1
"w10003295_MGP","1g4lpr8d71","BOI Norms",1,38,"2022-04-07T19:25:51+00:00",9.8186891078949,23,"updated stim.csv","Version23.csv","Version 23","List 23","actress",NA,"684",4.92,11,685,"BOI","-","-","Please name all of the ways you could use this object. Keep in mind that one object can have many uses. Separate your responses with a comma.",NA,"y",9649,NA,NA,1627,9244,NA,NA,NA,"act, watch, pretend",1
"w10003295_MGP","1g4lpr8d71","BOI Norms",1,39,"2022-04-07T19:26:09+00:00",18.535871982574,23,"updated stim.csv","Version23.csv","Version 23","List 23","bucket",NA,"669",6,341,670,"BOI","-","-","Please name all of the ways you could use this object. Keep in mind that one object can have many uses. Separate your responses with a comma.",NA,"y",18365,NA,NA,1447,18144,NA,NA,NA,"clean, collect leaks, stand on, sit on, hold things",1
"w10003295_MGP","1g4lpr8d71","BOI Norms",1,40,"2022-04-07T19:26:17+00:00",8.0438828468323,23,"updated stim.csv","Version23.csv","Version 23","List 23","lasso",NA,"663",5.555555556,1468,664,"BOI","-","-","Please name all of the ways you could use this object. Keep in mind that one object can have many uses. Separate your responses with a comma.",NA,"y",7880,NA,NA,1542,7647,NA,NA,NA,"throw, wrap, wrangle",1
"w10004427_kro","a90ntsb9vt","BOI Norms",1,11,"2022-04-07T03:19:58+00:00",7.8637011051178,22,"updated stim.csv","Version22.csv","Version 22","List 22","stool",NA,"659",6.076923077,2547,660,"BOI","-","-","Please name all of the ways you could use this object. Keep in mind that one object can have many uses. Separate your responses with a comma.",NA,"y",7092,NA,NA,1215,6934,NA,NA,NA,"sitting, leaning, holding a plant",1
"w10004427_kro","a90ntsb9vt","BOI Norms",1,12,"2022-04-07T03:20:03+00:00",5.4701180458069,22,"updated stim.csv","Version22.csv","Version 22","List 22","boomerang",NA,"648",5.666666667,280,649,"BOI","-","-","Please name all of the ways you could use this object. Keep in mind that one object can have many uses. Separate your responses with a comma.",NA,"y",4949,NA,NA,2774,4812,NA,NA,NA,"fun, hunting",1
