Username,ID,ExperimentName,Session,Trial,Date,TimeDif,"Condition Number","Stimuli File","Order File","Condition Description","Condition Notes",Stimuli*Cue,Stimuli*Answer,Stimuli*Shuffle,"Stimuli*Stimuli Notes",Stimuli*Value,Procedure*Item,"Procedure*Trial Type","Procedure*Max Time","Procedure*Min Time",Procedure*Text,"Procedure*Procedure Notes",Procedure*Shuffle,Response*RT,Response*Response,Response*Accuracy,Response*RTfirst,Response*RTlast,Response*strictAcc,Response*lenientAcc,Response*focus,Response*JOL,Response*Focus
w10086001LMM,sreezvdigf,"BOI Norms",1,1,2020-09-18T10:44:12-07:00,12.414497852325,20,"updated stim.csv",Version20.csv,"Version 20","List 20",,,,,,0,Instruct,-,10,"In this section, you will be presented with a series of objects. Please name as many possible uses for this object as you can think of by typing them in the box below each object.",,Instruct1,12061,,,-1,-1,,,,,1
w10086001LMM,sreezvdigf,"BOI Norms",1,2,2020-09-18T10:44:25-07:00,12.55095410347,20,"updated stim.csv",Version20.csv,"Version 20","List 20",,,,,,0,Instruct,-,10,"Please keep in mind that a single object will have more than one use. For example, a ball can be thrown or can be bounced or even stepped on. When listing multiple uses for one object, please separate each use with a comma (i.e., thrown, bounced, stepped on)",,Instruct2,12082,,,-1,-1,,,,,1
w10086001LMM,sreezvdigf,"BOI Norms",1,3,2020-09-18T10:44:30-07:00,5.2176990509033,20,"updated stim.csv",Version20.csv,"Version 20","List 20",,,,,,0,Instruct,-,-,"Before starting the experiment, you will complete a short practice sesstion. Press ENTER when you are ready to begin.",,Instruct3,4282,,,-1,-1,,,,,1
w10086001LMM,sreezvdigf,"BOI Norms",1,4,2020-09-18T10:45:02-07:00,31.628694057465,20,"updated stim.csv",Version20.csv,"Version 20","List 20",spaghetti,,3003,6,2461,3004,BOI,-,-,"Please name all of the ways you could use this object. Keep in mind that one object can have many uses. Separate your responses with a comma.",,n,30915,,,2395,20475,,,,"eaten, thrown, cooked, ",1
w10086001LMM,sreezvdigf,"BOI Norms",1,5,2020-09-18T10:45:49-07:00,47.775837898254,20,"updated stim.csv",Version20.csv,"Version 20","List 20",grain,,3004,5.217391304,1143,3005,BOI,-,-,"Please name all of the ways you could use this object. Keep in mind that one object can have many uses. Separate your responses with a comma.",,n,46550,,,14564,45667,,,,"grown, turned into something else, planted, processed",1
w10086001LMM,sreezvdigf,"BOI Norms",1,6,2020-09-18T10:46:05-07:00,15.547451019287,20,"updated stim.csv",Version20.csv,"Version 20","List 20",shortening,,3002,4.92,2358,3003,BOI,-,-,"Please name all of the ways you could use this object. Keep in mind that one object can have many uses. Separate your responses with a comma.",,n,14543,,,9549,13948,,,,"cooking, mending",1
w10086001LMM,sreezvdigf,"BOI Norms",1,7,2020-09-18T10:46:42-07:00,37.251743078232,20,"updated stim.csv",Version20.csv,"Version 20","List 20",saucer,,3005,5.777777778,2249,3006,BOI,-,-,"Please name all of the ways you could use this object. Keep in mind that one object can have many uses. Separate your responses with a comma.",,n,36339,,,10358,30495,,,,"hold things, cook things, eat off of",1
w10086001LMM,sreezvdigf,"BOI Norms",1,8,2020-09-18T10:47:47-07:00,64.986248970032,20,"updated stim.csv",Version20.csv,"Version 20","List 20",paperwork,,3001,5.625,1866,3002,BOI,-,-,"Please name all of the ways you could use this object. Keep in mind that one object can have many uses. Separate your responses with a comma.",,n,63768,,,10173,48011,,,,"submit for work, throw away, use as paper weight, ",1
w10086001LMM,sreezvdigf,"BOI Norms",1,9,2020-09-18T10:47:50-07:00,2.7355840206146,20,"updated stim.csv",Version20.csv,"Version 20","List 20",,,,,,0,Instruct,-,-,"You have completed this section. Press ENTER to continue",,"Instruct 5",2064,,,-1,-1,,,,,1
w10086001LMM,sreezvdigf,"BOI Norms",1,10,2020-09-18T10:47:55-07:00,4.5988709926605,20,"updated stim.csv",Version20.csv,"Version 20","List 20",,,,,,0,Instruct,-,-,"You will now start the full experiment. Press ENTER when you are ready to begin.",,,3388,,,-1,-1,,,,,1
w10086001LMM,sreezvdigf,"BOI Norms",1,11,2020-09-18T10:48:44-07:00,49.76650595665,20,"updated stim.csv",Version20.csv,"Version 20","List 20",pastry,,590,6.086956522,1886,591,BOI,-,-,"Please name all of the ways you could use this object. Keep in mind that one object can have many uses. Separate your responses with a comma.",,y,48382,,,3186,47778,,,,"eat, cook with, sell for, bake, become chef",1
w10086001LMM,sreezvdigf,"BOI Norms",1,12,2020-09-18T10:49:25-07:00,40.488311052322,20,"updated stim.csv",Version20.csv,"Version 20","List 20",sketchbook,,592,5.833333333,2394,593,BOI,-,-,"Please name all of the ways you could use this object. Keep in mind that one object can have many uses. Separate your responses with a comma.",,y,39658,,,6855,32234,,,,"draw things, write things, use as book stand, use as book mark, ",1
w10086001LMM,sreezvdigf,"BOI Norms",1,13,2020-09-18T10:49:42-07:00,17.141436815262,20,"updated stim.csv",Version20.csv,"Version 20","List 20",flapjack,,571,5.2,1000,572,BOI,-,-,"Please name all of the ways you could use this object. Keep in mind that one object can have many uses. Separate your responses with a comma.",,y,16086,,,4566,12997,,,,"eat, cook, throw, ",1
w10086001LMM,sreezvdigf,"BOI Norms",1,14,2020-09-18T10:50:34-07:00,52.13542509079,20,"updated stim.csv",Version20.csv,"Version 20","List 20",novel,,578,5.4,1783,579,BOI,-,-,"Please name all of the ways you could use this object. Keep in mind that one object can have many uses. Separate your responses with a comma.",,y,50924,,,5273,49620,,,,"read, write, use as bookstand, use as paperweight, throw it",1
w10086001LMM,sreezvdigf,"BOI Norms",1,15,2020-09-18T10:51:29-07:00,54.752911090851,20,"updated stim.csv",Version20.csv,"Version 20","List 20",breasts,,589,6.173913043,315,590,BOI,-,-,"Please name all of the ways you could use this object. Keep in mind that one object can have many uses. Separate your responses with a comma.",,y,54004,,,10094,53167,,,,"protection, nutrition, sexual activity, to lay on",1
w10086001LMM,sreezvdigf,"BOI Norms",1,16,2020-09-18T11:23:25-07:00,1916.5803868771,20,"updated stim.csv",Version20.csv,"Version 20","List 20",buddy,,588,4.916666667,344,589,BOI,-,-,"Please name all of the ways you could use this object. Keep in mind that one object can have many uses. Separate your responses with a comma.",,y,1915394,,,1904869,1913741,,,,"friend, enemy, play",0.959
w10086001LMM,sreezvdigf,"BOI Norms",1,17,2020-09-18T11:23:50-07:00,25.04460811615,20,"updated stim.csv",Version20.csv,"Version 20","List 20",seedling,,582,5.083333333,2309,583,BOI,-,-,"Please name all of the ways you could use this object. Keep in mind that one object can have many uses. Separate your responses with a comma.",,y,24017,,,2783,23378,,,,"grow, eat , throw out, toss, catch, play , plant",1
w10086001LMM,sreezvdigf,"BOI Norms",1,18,2020-09-18T11:24:04-07:00,13.190788984299,20,"updated stim.csv",Version20.csv,"Version 20","List 20",neurologist,,595,4.384615385,1753,596,BOI,-,-,"Please name all of the ways you could use this object. Keep in mind that one object can have many uses. Separate your responses with a comma.",,y,12878,,,1982,12323,,,,"help, friend, marry",1
w10086001LMM,sreezvdigf,"BOI Norms",1,19,2020-09-18T11:24:17-07:00,13.572151899338,20,"updated stim.csv",Version20.csv,"Version 20","List 20",craftsman,,585,4.833333333,679,586,BOI,-,-,"Please name all of the ways you could use this object. Keep in mind that one object can have many uses. Separate your responses with a comma.",,y,13117,,,2400,12683,,,,"build, friend, enemy, marry",1
w10086001LMM,sreezvdigf,"BOI Norms",1,20,2020-09-18T11:24:30-07:00,13.151260137558,20,"updated stim.csv",Version20.csv,"Version 20","List 20",dinner,,572,5.545454545,795,573,BOI,-,-,"Please name all of the ways you could use this object. Keep in mind that one object can have many uses. Separate your responses with a comma.",,y,12507,,,1205,11973,,,,"eat, toss, catch, run to ",1
w10086001LMM,sreezvdigf,"BOI Norms",1,21,2020-09-18T11:25:00-07:00,29.945043802261,20,"updated stim.csv",Version20.csv,"Version 20","List 20",shack,,583,5.125,2317,584,BOI,-,-,"Please name all of the ways you could use this object. Keep in mind that one object can have many uses. Separate your responses with a comma.",,y,29442,,,2223,26264,,,,"live in, build, destroy, ",1
w10086001LMM,sreezvdigf,"BOI Norms",1,22,2020-09-18T11:25:22-07:00,21.539088964462,20,"updated stim.csv",Version20.csv,"Version 20","List 20",crosswalk,,596,4.714285714,706,597,BOI,-,-,"Please name all of the ways you could use this object. Keep in mind that one object can have many uses. Separate your responses with a comma.",,y,20781,,,1521,20050,,,,"walk, run, paint, remake, write, drive on, ",1
w10086001LMM,sreezvdigf,"BOI Norms",1,23,2020-09-18T11:25:27-07:00,5.5067081451416,20,"updated stim.csv",Version20.csv,"Version 20","List 20",skittle,,577,5,2401,578,BOI,-,-,"Please name all of the ways you could use this object. Keep in mind that one object can have many uses. Separate your responses with a comma.",,y,4616,,,-1,-1,,,,,1
w10086001LMM,sreezvdigf,"BOI Norms",1,24,2020-09-18T11:25:57-07:00,29.976150989532,20,"updated stim.csv",Version20.csv,"Version 20","List 20",jam,,573,5.173913043,1372,574,BOI,-,-,"Please name all of the ways you could use this object. Keep in mind that one object can have many uses. Separate your responses with a comma.",,y,28932,,,3745,28360,,,,"eat, spread, close, open, throw, hurt, break, stop",1
w10086001LMM,sreezvdigf,"BOI Norms",1,25,2020-09-18T11:26:13-07:00,15.359420061111,20,"updated stim.csv",Version20.csv,"Version 20","List 20",firewood,,593,5.72,987,594,BOI,-,-,"Please name all of the ways you could use this object. Keep in mind that one object can have many uses. Separate your responses with a comma.",,y,14850,,,3294,14039,,,,"burn, build, shread",1
w10086001LMM,sreezvdigf,"BOI Norms",1,26,2020-09-18T11:26:16-07:00,3.4658169746399,20,"updated stim.csv",Version20.csv,"Version 20","List 20",hashish,,584,4.909090909,1257,585,BOI,-,-,"Please name all of the ways you could use this object. Keep in mind that one object can have many uses. Separate your responses with a comma.",,y,2873,,,-1,-1,,,,,1
w10086001LMM,sreezvdigf,"BOI Norms",1,27,2020-09-18T11:26:50-07:00,34.202229976654,20,"updated stim.csv",Version20.csv,"Version 20","List 20",cocoa,,574,5.625,589,575,BOI,-,-,"Please name all of the ways you could use this object. Keep in mind that one object can have many uses. Separate your responses with a comma.",,y,33503,,,1642,32734,,,,"eat, mix with, drink, throw, blend, stir, grow, plant, spread, scrub, ",1
w10086001LMM,sreezvdigf,"BOI Norms",1,28,2020-09-18T11:27:06-07:00,15.957503080368,20,"updated stim.csv",Version20.csv,"Version 20","List 20",instructor,,580,4.583333333,1360,581,BOI,-,-,"Please name all of the ways you could use this object. Keep in mind that one object can have many uses. Separate your responses with a comma.",,y,14948,,,2317,14378,,,,"help, partner, friend, enemy, teach",1
w10086001LMM,sreezvdigf,"BOI Norms",1,29,2020-09-18T11:27:57-07:00,50.758083820343,20,"updated stim.csv",Version20.csv,"Version 20","List 20",smock,,594,5.08,2421,595,BOI,-,-,"Please name all of the ways you could use this object. Keep in mind that one object can have many uses. Separate your responses with a comma.",,y,50213,,,41790,49684,,,,"wear, cover, throw",1
w10086001LMM,sreezvdigf,"BOI Norms",1,30,2020-09-18T11:28:21-07:00,23.737688064575,20,"updated stim.csv",Version20.csv,"Version 20","List 20",garage,,575,4.96,1073,576,BOI,-,-,"Please name all of the ways you could use this object. Keep in mind that one object can have many uses. Separate your responses with a comma.",,y,23122,,,3275,22175,,,,"hold, shelter, cover, destroy, build, paint",1
w10086001LMM,sreezvdigf,"BOI Norms",1,31,2020-09-18T11:28:45-07:00,23.827516078949,20,"updated stim.csv",Version20.csv,"Version 20","List 20",obstetrician,,598,5.04,1798,599,BOI,-,-,"Please name all of the ways you could use this object. Keep in mind that one object can have many uses. Separate your responses with a comma.",,y,23221,,,10989,22688,,,,"help, doctor, friend, enemy, marry",1
w10086001LMM,sreezvdigf,"BOI Norms",1,32,2020-09-18T11:29:00-07:00,14.975505828857,20,"updated stim.csv",Version20.csv,"Version 20","List 20",poinsettia,,576,5.347826087,2018,577,BOI,-,-,"Please name all of the ways you could use this object. Keep in mind that one object can have many uses. Separate your responses with a comma.",,y,14314,,,3096,13834,,,,"grow, plant, throw, decorate",1
w10086001LMM,sreezvdigf,"BOI Norms",1,33,2020-09-18T11:29:11-07:00,10.95570898056,20,"updated stim.csv",Version20.csv,"Version 20","List 20",theatergoer,,581,5,2673,582,BOI,-,-,"Please name all of the ways you could use this object. Keep in mind that one object can have many uses. Separate your responses with a comma.",,y,9925,,,3051,9325,,,,"watcher, critic, ",1
w10086001LMM,sreezvdigf,"BOI Norms",1,34,2020-09-18T11:29:20-07:00,9.1540350914001,20,"updated stim.csv",Version20.csv,"Version 20","List 20",antennae,,587,4.538461538,47,588,BOI,-,-,"Please name all of the ways you could use this object. Keep in mind that one object can have many uses. Separate your responses with a comma.",,y,8172,,,3563,7483,,,,"to listen, ",1
w10086001LMM,sreezvdigf,"BOI Norms",1,35,2020-09-18T11:29:32-07:00,12.401304006577,20,"updated stim.csv",Version20.csv,"Version 20","List 20",stepladder,,599,6.130434783,2527,600,BOI,-,-,"Please name all of the ways you could use this object. Keep in mind that one object can have many uses. Separate your responses with a comma.",,y,11740,,,2947,10730,,,,"step up, help, support",1
w10086001LMM,sreezvdigf,"BOI Norms",1,36,2020-09-18T11:29:47-07:00,15.050492048264,20,"updated stim.csv",Version20.csv,"Version 20","List 20",gem,,597,5.517241379,1093,598,BOI,-,-,"Please name all of the ways you could use this object. Keep in mind that one object can have many uses. Separate your responses with a comma.",,y,14344,,,11084,13865,,,,jewelery,1
w10086001LMM,sreezvdigf,"BOI Norms",1,37,2020-09-18T11:29:57-07:00,10.015562057495,20,"updated stim.csv",Version20.csv,"Version 20","List 20",tambourine,,579,5.916666667,2628,580,BOI,-,-,"Please name all of the ways you could use this object. Keep in mind that one object can have many uses. Separate your responses with a comma.",,y,9032,,,2363,8477,,,,play,1
w10086001LMM,sreezvdigf,"BOI Norms",1,38,2020-09-18T11:30:03-07:00,5.8830959796906,20,"updated stim.csv",Version20.csv,"Version 20","List 20",rodent,,591,5.041666667,2186,592,BOI,-,-,"Please name all of the ways you could use this object. Keep in mind that one object can have many uses. Separate your responses with a comma.",,y,5626,,,2558,5219,,,,"catch things",1
w10086001LMM,sreezvdigf,"BOI Norms",1,39,2020-09-18T11:30:16-07:00,12.521884918213,20,"updated stim.csv",Version20.csv,"Version 20","List 20",sedan,,586,5.565217391,2306,587,BOI,-,-,"Please name all of the ways you could use this object. Keep in mind that one object can have many uses. Separate your responses with a comma.",,y,11782,,,2439,10868,,,,"drive, haul, destroy, ",1
w10086001LMM,sreezvdigf,"BOI Norms",1,40,2020-09-18T11:30:19-07:00,3.0117630958557,20,"updated stim.csv",Version20.csv,"Version 20","List 20",oilcloth,,600,5.125,1803,601,BOI,-,-,"Please name all of the ways you could use this object. Keep in mind that one object can have many uses. Separate your responses with a comma.",,y,1388,,,-1,-1,,,,,1
w10086001LMM,sreezvdigf,"BOI Norms",1,41,2020-09-18T11:30:23-07:00,3.9453918933868,20,"updated stim.csv",Version20.csv,"Version 20","List 20",,,,,,0,Instruct,,,"You will now be asked a few questions about your experience today.",,"Instruct 4",2551,,,-1,-1,,,,,1
