Username,ID,ExperimentName,Session,Trial,Date,TimeDif,"Condition Number","Stimuli File","Order File","Condition Description","Condition Notes",Stimuli*Cue,Stimuli*Answer,Stimuli*Shuffle,"Stimuli*Stimuli Notes",Stimuli*Value,Procedure*Item,"Procedure*Trial Type","Procedure*Max Time","Procedure*Min Time",Procedure*Text,"Procedure*Procedure Notes",Procedure*Shuffle,Response*RT,Response*Response,Response*Accuracy,Response*RTfirst,Response*RTlast,Response*strictAcc,Response*lenientAcc,Response*focus,Response*JOL,Response*Focus
w10029489_ss,twwvcpga7q,"BOI Norms",1,1,2021-04-18T19:57:23-07:00,11.68408203125,1,"updated stim.csv",Version51.csv,"Version 51","List 51",,,,,,0,Instruct,-,10,"In this section, you will be presented with a series of objects. Please name as many possible uses for this object as you can think of by typing them in the box below each object.",,Instruct1,11445,,,-1,-1,,,,,1
w10029489_ss,twwvcpga7q,"BOI Norms",1,2,2021-04-18T19:57:37-07:00,14.264579057693,1,"updated stim.csv",Version51.csv,"Version 51","List 51",,,,,,0,Instruct,-,10,"Please keep in mind that a single object will have more than one use. For example, a ball can be thrown or can be bounced or even stepped on. When listing multiple uses for one object, please separate each use with a comma (i.e., thrown, bounced, stepped on)",,Instruct2,13911,,,-1,-1,,,,,1
w10029489_ss,twwvcpga7q,"BOI Norms",1,3,2021-04-18T19:57:40-07:00,2.7441511154175,1,"updated stim.csv",Version51.csv,"Version 51","List 51",,,,,,0,Instruct,-,-,"Before starting the experiment, you will complete a short practice sesstion. Press ENTER when you are ready to begin.",,Instruct3,2462,,,-1,-1,,,,,1
w10029489_ss,twwvcpga7q,"BOI Norms",1,4,2021-04-18T19:58:50-07:00,69.518808841705,1,"updated stim.csv",Version51.csv,"Version 51","List 51",paperwork,,3001,5.625,1866,3002,BOI,-,-,"Please name all of the ways you could use this object. Keep in mind that one object can have many uses. Separate your responses with a comma.",,n,69102,,,3502,66030,,,,"file, submit, read, send",1
w10029489_ss,twwvcpga7q,"BOI Norms",1,5,2021-04-18T20:00:22-07:00,92.201694011688,1,"updated stim.csv",Version51.csv,"Version 51","List 51",saucer,,3005,5.777777778,2249,3006,BOI,-,-,"Please name all of the ways you could use this object. Keep in mind that one object can have many uses. Separate your responses with a comma.",,n,91789,,,11697,55466,,,,"fill, break, set a cup, ",1
w10029489_ss,twwvcpga7q,"BOI Norms",1,6,2021-04-18T20:01:25-07:00,63.136103153229,1,"updated stim.csv",Version51.csv,"Version 51","List 51",shortening,,3002,4.92,2358,3003,BOI,-,-,"Please name all of the ways you could use this object. Keep in mind that one object can have many uses. Separate your responses with a comma.",,n,62698,,,2550,34604,,,,"cook, grease",1
w10029489_ss,twwvcpga7q,"BOI Norms",1,7,2021-04-18T20:02:24-07:00,58.789130926132,1,"updated stim.csv",Version51.csv,"Version 51","List 51",spaghetti,,3003,6,2461,3004,BOI,-,-,"Please name all of the ways you could use this object. Keep in mind that one object can have many uses. Separate your responses with a comma.",,n,58365,,,2796,8805,,,,"eat, boil, bake",1
w10029489_ss,twwvcpga7q,"BOI Norms",1,8,2021-04-18T20:03:07-07:00,43.640519857407,1,"updated stim.csv",Version51.csv,"Version 51","List 51",grain,,3004,5.217391304,1143,3005,BOI,-,-,"Please name all of the ways you could use this object. Keep in mind that one object can have many uses. Separate your responses with a comma.",,n,42999,,,23010,40968,,,,"cook, eat, sell",1
w10029489_ss,twwvcpga7q,"BOI Norms",1,9,2021-04-18T20:03:09-07:00,2.0981600284576,1,"updated stim.csv",Version51.csv,"Version 51","List 51",,,,,,0,Instruct,-,-,"You have completed this section. Press ENTER to continue",,"Instruct 5",1829,,,-1,-1,,,,,1
w10029489_ss,twwvcpga7q,"BOI Norms",1,10,2021-04-18T20:03:11-07:00,1.8792390823364,1,"updated stim.csv",Version51.csv,"Version 51","List 51",,,,,,0,Instruct,-,-,"You will now start the full experiment. Press ENTER when you are ready to begin.",,,1597,,,-1,-1,,,,,1
w10029489_ss,twwvcpga7q,"BOI Norms",1,11,2021-04-18T20:04:32-07:00,81.199245929718,1,"updated stim.csv",Version51.csv,"Version 51","List 51",glass,,1530,6.12,1110,1531,BOI,-,-,"Please name all of the ways you could use this object. Keep in mind that one object can have many uses. Separate your responses with a comma.",,y,80783,,,2857,72565,,,,"break, drink out of it ",1
w10029489_ss,twwvcpga7q,"BOI Norms",1,12,2021-04-18T20:05:18-07:00,45.119547128677,1,"updated stim.csv",Version51.csv,"Version 51","List 51",onion,,1525,5.476190476,1809,1526,BOI,-,-,"Please name all of the ways you could use this object. Keep in mind that one object can have many uses. Separate your responses with a comma.",,y,44713,,,4712,42088,,,,"sautee, carmelize, cut, fry",1
w10029489_ss,twwvcpga7q,"BOI Norms",1,13,2021-04-18T20:06:48-07:00,90.706607818604,1,"updated stim.csv",Version51.csv,"Version 51","List 51",mayo,,1517,5.956521739,1627,1518,BOI,-,-,"Please name all of the ways you could use this object. Keep in mind that one object can have many uses. Separate your responses with a comma.",,y,90283,,,14538,88339,,,,"put on sandwich, cook ",1
w10029489_ss,twwvcpga7q,"BOI Norms",1,14,2021-04-18T20:08:04-07:00,75.904720067978,1,"updated stim.csv",Version51.csv,"Version 51","List 51",proprietor,,1520,4.884615385,2076,1521,BOI,-,-,"Please name all of the ways you could use this object. Keep in mind that one object can have many uses. Separate your responses with a comma.",,y,75320,,,31819,49476,,,,"approach for business",1
w10029489_ss,twwvcpga7q,"BOI Norms",1,15,2021-04-18T20:08:45-07:00,40.358114004135,1,"updated stim.csv",Version51.csv,"Version 51","List 51",scapula,,1524,4.684210526,2265,1525,BOI,-,-,"Please name all of the ways you could use this object. Keep in mind that one object can have many uses. Separate your responses with a comma.",,y,39934,,,5255,14905,,,,"stretch, break",1
w10029489_ss,twwvcpga7q,"BOI Norms",1,16,2021-04-18T20:09:37-07:00,52.873469114304,1,"updated stim.csv",Version51.csv,"Version 51","List 51",candle,,1501,5.166666667,410,1502,BOI,-,-,"Please name all of the ways you could use this object. Keep in mind that one object can have many uses. Separate your responses with a comma.",,y,52427,,,2029,13782,,,,"burn, smell ",1
w10029489_ss,twwvcpga7q,"BOI Norms",1,17,2021-04-18T20:09:55-07:00,17.38000202179,1,"updated stim.csv",Version51.csv,"Version 51","List 51",featherbed,,1516,5.434782609,957,1517,BOI,-,-,"Please name all of the ways you could use this object. Keep in mind that one object can have many uses. Separate your responses with a comma.",,y,17048,,,2544,15009,,,,"lay, sleep, relax",1
w10029489_ss,twwvcpga7q,"BOI Norms",1,18,2021-04-18T20:10:39-07:00,44.222875833511,1,"updated stim.csv",Version51.csv,"Version 51","List 51",girdle,,1507,5.52173913,1107,1508,BOI,-,-,"Please name all of the ways you could use this object. Keep in mind that one object can have many uses. Separate your responses with a comma.",,y,43844,,,4858,6765,,,,wear,1
w10029489_ss,twwvcpga7q,"BOI Norms",1,19,2021-04-18T20:11:27-07:00,48.372573137283,1,"updated stim.csv",Version51.csv,"Version 51","List 51",babe,,1508,4.555555556,110,1509,BOI,-,-,"Please name all of the ways you could use this object. Keep in mind that one object can have many uses. Separate your responses with a comma.",,y,47970,,,22144,42968,,,,"hold, feed, rock, burp, play",1
w10029489_ss,twwvcpga7q,"BOI Norms",1,20,2021-04-18T20:12:15-07:00,47.756110906601,1,"updated stim.csv",Version51.csv,"Version 51","List 51",staple,,1515,5.32,2507,1516,BOI,-,-,"Please name all of the ways you could use this object. Keep in mind that one object can have many uses. Separate your responses with a comma.",,y,47408,,,41832,45384,,,,"store, eat",1
w10029489_ss,twwvcpga7q,"BOI Norms",1,21,2021-04-18T20:12:45-07:00,29.369116067886,1,"updated stim.csv",Version51.csv,"Version 51","List 51",cider,,1509,4.958333333,541,1510,BOI,-,-,"Please name all of the ways you could use this object. Keep in mind that one object can have many uses. Separate your responses with a comma.",,y,28941,,,7268,13875,,,,"drink, cook ",1
w10029489_ss,twwvcpga7q,"BOI Norms",1,22,2021-04-18T20:13:14-07:00,29.611074924469,1,"updated stim.csv",Version51.csv,"Version 51","List 51",xylophone,,1503,5.821428571,2986,1504,BOI,-,-,"Please name all of the ways you could use this object. Keep in mind that one object can have many uses. Separate your responses with a comma.",,y,29303,,,1863,25216,,,,"play, give to child",1
w10029489_ss,twwvcpga7q,"BOI Norms",1,23,2021-04-18T20:14:21-07:00,67.125112056732,1,"updated stim.csv",Version51.csv,"Version 51","List 51",stepson,,1523,5.304347826,2530,1524,BOI,-,-,"Please name all of the ways you could use this object. Keep in mind that one object can have many uses. Separate your responses with a comma.",,y,66659,,,4334,40024,,,,"spend time, nurture",1
w10029489_ss,twwvcpga7q,"BOI Norms",1,24,2021-04-18T20:15:20-07:00,59.057177066803,1,"updated stim.csv",Version51.csv,"Version 51","List 51",chili,,1519,5.291666667,523,1520,BOI,-,-,"Please name all of the ways you could use this object. Keep in mind that one object can have many uses. Separate your responses with a comma.",,y,58668,,,3961,51789,,,,"eat, donate",1
w10029489_ss,twwvcpga7q,"BOI Norms",1,25,2021-04-18T20:15:57-07:00,36.866777896881,1,"updated stim.csv",Version51.csv,"Version 51","List 51",sofa,,1526,6.608695652,2443,1527,BOI,-,-,"Please name all of the ways you could use this object. Keep in mind that one object can have many uses. Separate your responses with a comma.",,y,36555,,,2401,7565,,,,"relax, sleep, lay down",1
w10029489_ss,twwvcpga7q,"BOI Norms",1,26,2021-04-18T20:16:52-07:00,55.188234090805,1,"updated stim.csv",Version51.csv,"Version 51","List 51",wheelbarrow,,1528,5.5,2922,1529,BOI,-,-,"Please name all of the ways you could use this object. Keep in mind that one object can have many uses. Separate your responses with a comma.",,y,54580,,,3749,52348,,,,"garden, pull something heavy",1
w10029489_ss,twwvcpga7q,"BOI Norms",1,27,2021-04-18T20:17:22-07:00,29.878499031067,1,"updated stim.csv",Version51.csv,"Version 51","List 51",blackboard,,1506,5.392857143,228,1507,BOI,-,-,"Please name all of the ways you could use this object. Keep in mind that one object can have many uses. Separate your responses with a comma.",,y,29554,,,2885,11409,,,,"write, teach, draw",1
w10029489_ss,twwvcpga7q,"BOI Norms",1,28,2021-04-18T20:18:03-07:00,41.105954885483,1,"updated stim.csv",Version51.csv,"Version 51","List 51",muffin,,1522,5.875,1711,1523,BOI,-,-,"Please name all of the ways you could use this object. Keep in mind that one object can have many uses. Separate your responses with a comma.",,y,40821,,,1600,39248,,,,"eat, give away, put in care package",1
w10029489_ss,twwvcpga7q,"BOI Norms",1,29,2021-04-18T20:18:51-07:00,47.594964027405,1,"updated stim.csv",Version51.csv,"Version 51","List 51",banjo,,1513,6.291666667,141,1514,BOI,-,-,"Please name all of the ways you could use this object. Keep in mind that one object can have many uses. Separate your responses with a comma.",,y,47039,,,2799,39769,,,,"play, use as decoration",1
w10029489_ss,twwvcpga7q,"BOI Norms",1,30,2021-04-18T20:19:24-07:00,33.167438030243,1,"updated stim.csv",Version51.csv,"Version 51","List 51",sapphire,,1529,5.125,2241,1530,BOI,-,-,"Please name all of the ways you could use this object. Keep in mind that one object can have many uses. Separate your responses with a comma.",,y,32855,,,8508,21835,,,,"rub, stare, wear",1
w10029489_ss,twwvcpga7q,"BOI Norms",1,31,2021-04-18T20:19:59-07:00,35.143440008163,1,"updated stim.csv",Version51.csv,"Version 51","List 51",deliverer,,1521,4.52173913,769,1522,BOI,-,-,"Please name all of the ways you could use this object. Keep in mind that one object can have many uses. Separate your responses with a comma.",,y,34851,,,3007,33520,,,,"send package, receive an item",1
w10029489_ss,twwvcpga7q,"BOI Norms",1,32,2021-04-18T20:20:59-07:00,59.899508953094,1,"updated stim.csv",Version51.csv,"Version 51","List 51",policeman,,1511,5.428571429,2022,1512,BOI,-,-,"Please name all of the ways you could use this object. Keep in mind that one object can have many uses. Separate your responses with a comma.",,y,59586,,,19845,58177,,,,"call for help, avoid",1
w10029489_ss,twwvcpga7q,"BOI Norms",1,33,2021-04-18T20:21:43-07:00,44.07928109169,1,"updated stim.csv",Version51.csv,"Version 51","List 51",cabdriver,,1504,5.12,387,1505,BOI,-,-,"Please name all of the ways you could use this object. Keep in mind that one object can have many uses. Separate your responses with a comma.",,y,43719,,,4482,13491,,,,"pay, call for a ride",1
w10029489_ss,twwvcpga7q,"BOI Norms",1,34,2021-04-18T20:22:15-07:00,31.279420852661,1,"updated stim.csv",Version51.csv,"Version 51","List 51",yarn,,1505,6.115384615,2991,1506,BOI,-,-,"Please name all of the ways you could use this object. Keep in mind that one object can have many uses. Separate your responses with a comma.",,y,30968,,,2312,28359,,,,"knit, tie a package",1
w10029489_ss,twwvcpga7q,"BOI Norms",1,35,2021-04-18T20:23:03-07:00,48.851629018784,1,"updated stim.csv",Version51.csv,"Version 51","List 51",poet,,1518,4.565217391,2017,1519,BOI,-,-,"Please name all of the ways you could use this object. Keep in mind that one object can have many uses. Separate your responses with a comma.",,y,26392,,,23117,24952,,,,listen,1
w10029489_ss,twwvcpga7q,"BOI Norms",1,36,2021-04-18T20:23:22-07:00,18.483763933182,1,"updated stim.csv",Version51.csv,"Version 51","List 51",urinal,,1514,5.666666667,2828,1515,BOI,-,-,"Please name all of the ways you could use this object. Keep in mind that one object can have many uses. Separate your responses with a comma.",,y,18148,,,2455,12449,,,,"relieve bladder",1
w10029489_ss,twwvcpga7q,"BOI Norms",1,37,2021-04-18T20:23:38-07:00,16.559917211533,1,"updated stim.csv",Version51.csv,"Version 51","List 51",key,,1527,6.28,1411,1528,BOI,-,-,"Please name all of the ways you could use this object. Keep in mind that one object can have many uses. Separate your responses with a comma.",,y,16191,,,2315,13549,,,,"open doors, decoration",1
w10029489_ss,twwvcpga7q,"BOI Norms",1,38,2021-04-18T20:24:00-07:00,21.787746906281,1,"updated stim.csv",Version51.csv,"Version 51","List 51",infant,,1512,6.038461538,1353,1513,BOI,-,-,"Please name all of the ways you could use this object. Keep in mind that one object can have many uses. Separate your responses with a comma.",,y,21488,,,2763,19117,,,,"hold, burp, feed, change diaper",1
w10029489_ss,twwvcpga7q,"BOI Norms",1,39,2021-04-18T20:24:46-07:00,45.672240972519,1,"updated stim.csv",Version51.csv,"Version 51","List 51",shaving,,1510,5.535714286,2324,1511,BOI,-,-,"Please name all of the ways you could use this object. Keep in mind that one object can have many uses. Separate your responses with a comma.",,y,45087,,,41410,43672,,,,"body parts",1
w10029489_ss,twwvcpga7q,"BOI Norms",1,40,2021-04-18T20:25:44-07:00,58.332809925079,1,"updated stim.csv",Version51.csv,"Version 51","List 51",playwright,,1502,4.28,2005,1503,BOI,-,-,"Please name all of the ways you could use this object. Keep in mind that one object can have many uses. Separate your responses with a comma.",,y,57597,,,3908,45946,,,,"buy, read a composition",1
w10029489_ss,twwvcpga7q,"BOI Norms",1,41,2021-04-18T20:25:50-07:00,6.020800113678,1,"updated stim.csv",Version51.csv,"Version 51","List 51",,,,,,0,Instruct,,,"You will now be asked a few questions about your experience today.",,"Instruct 4",5426,,,-1,-1,,,,,1
