Username,ID,ExperimentName,Session,Trial,Date,TimeDif,"Condition Number","Stimuli File","Order File","Condition Description","Condition Notes",Stimuli*Cue,Stimuli*Answer,Stimuli*Shuffle,"Stimuli*Stimuli Notes",Stimuli*Value,Procedure*Item,"Procedure*Trial Type","Procedure*Max Time","Procedure*Min Time",Procedure*Text,"Procedure*Procedure Notes",Procedure*Shuffle,Response*RT,Response*Response,Response*Accuracy,Response*RTfirst,Response*RTlast,Response*strictAcc,Response*lenientAcc,Response*focus,Response*JOL,Response*Focus
w10070266_sela,lreetpsi7t,"BOI Norms",1,1,2020-11-20T15:21:48-08:00,36.021266937256,20,"updated stim.csv",Version70.csv,"Version 70","List 70",,,,,,0,Instruct,-,10,"In this section, you will be presented with a series of objects. Please name as many possible uses for this object as you can think of by typing them in the box below each object.",,Instruct1,35781,,,-1,-1,,,,,1
w10070266_sela,lreetpsi7t,"BOI Norms",1,2,2020-11-20T15:22:01-08:00,12.861552000046,20,"updated stim.csv",Version70.csv,"Version 70","List 70",,,,,,0,Instruct,-,10,"Please keep in mind that a single object will have more than one use. For example, a ball can be thrown or can be bounced or even stepped on. When listing multiple uses for one object, please separate each use with a comma (i.e., thrown, bounced, stepped on)",,Instruct2,12505,,,-1,-1,,,,,1
w10070266_sela,lreetpsi7t,"BOI Norms",1,3,2020-11-20T15:22:08-08:00,7.1044540405273,20,"updated stim.csv",Version70.csv,"Version 70","List 70",,,,,,0,Instruct,-,-,"Before starting the experiment, you will complete a short practice sesstion. Press ENTER when you are ready to begin.",,Instruct3,6743,,,-1,-1,,,,,1
w10070266_sela,lreetpsi7t,"BOI Norms",1,4,2020-11-20T15:22:32-08:00,24.174959897995,20,"updated stim.csv",Version70.csv,"Version 70","List 70",spaghetti,,3003,6,2461,3004,BOI,-,-,"Please name all of the ways you could use this object. Keep in mind that one object can have many uses. Separate your responses with a comma.",,n,21186,,,7336,20320,,,,"Eating,hitting,boiling,planting ",1
w10070266_sela,lreetpsi7t,"BOI Norms",1,5,2020-11-20T15:22:54-08:00,21.25242805481,20,"updated stim.csv",Version70.csv,"Version 70","List 70",shortening,,3002,4.92,2358,3003,BOI,-,-,"Please name all of the ways you could use this object. Keep in mind that one object can have many uses. Separate your responses with a comma.",,n,20178,,,9090,16841,,,,"Baking, cooking, cleaning, ",1
w10070266_sela,lreetpsi7t,"BOI Norms",1,6,2020-11-20T15:23:10-08:00,16.388000011444,20,"updated stim.csv",Version70.csv,"Version 70","List 70",saucer,,3005,5.777777778,2249,3006,BOI,-,-,"Please name all of the ways you could use this object. Keep in mind that one object can have many uses. Separate your responses with a comma.",,n,15684,,,2730,14913,,,,"Store food, crushing, painting",1
w10070266_sela,lreetpsi7t,"BOI Norms",1,7,2020-11-20T15:23:21-08:00,10.464089870453,20,"updated stim.csv",Version70.csv,"Version 70","List 70",paperwork,,3001,5.625,1866,3002,BOI,-,-,"Please name all of the ways you could use this object. Keep in mind that one object can have many uses. Separate your responses with a comma.",,n,10032,,,3355,9033,,,,"Writing,typing, ",1
w10070266_sela,lreetpsi7t,"BOI Norms",1,8,2020-11-20T15:23:40-08:00,19.012428045273,20,"updated stim.csv",Version70.csv,"Version 70","List 70",grain,,3004,5.217391304,1143,3005,BOI,-,-,"Please name all of the ways you could use this object. Keep in mind that one object can have many uses. Separate your responses with a comma.",,n,18603,,,2912,17803,,,,"Plainting, cooking, eating, digesting",1
w10070266_sela,lreetpsi7t,"BOI Norms",1,9,2020-11-20T15:23:43-08:00,3.2451710700989,20,"updated stim.csv",Version70.csv,"Version 70","List 70",,,,,,0,Instruct,-,-,"You have completed this section. Press ENTER to continue",,"Instruct 5",2802,,,-1,-1,,,,,1
w10070266_sela,lreetpsi7t,"BOI Norms",1,10,2020-11-20T15:23:47-08:00,4.3533699512482,20,"updated stim.csv",Version70.csv,"Version 70","List 70",,,,,,0,Instruct,-,-,"You will now start the full experiment. Press ENTER when you are ready to begin.",,,2656,,,-1,-1,,,,,1
w10070266_sela,lreetpsi7t,"BOI Norms",1,11,2020-11-20T15:24:05-08:00,18.151044130325,20,"updated stim.csv",Version70.csv,"Version 70","List 70",democrat,,2088,4.416666667,771,2089,BOI,-,-,"Please name all of the ways you could use this object. Keep in mind that one object can have many uses. Separate your responses with a comma.",,y,17729,,,6595,16508,,,,"Arguing, making rules ",1
w10070266_sela,lreetpsi7t,"BOI Norms",1,12,2020-11-20T15:24:27-08:00,21.995780944824,20,"updated stim.csv",Version70.csv,"Version 70","List 70",Microscope,,2090,5.721024259,1655,2091,BOI,-,-,"Please name all of the ways you could use this object. Keep in mind that one object can have many uses. Separate your responses with a comma.",,y,20603,,,2758,19815,,,,"Seeing, smashing, light, holding",1
w10070266_sela,lreetpsi7t,"BOI Norms",1,13,2020-11-20T15:24:38-08:00,10.740845918655,20,"updated stim.csv",Version70.csv,"Version 70","List 70",lobster,,2099,4.92,1534,2100,BOI,-,-,"Please name all of the ways you could use this object. Keep in mind that one object can have many uses. Separate your responses with a comma.",,y,10090,,,1787,8735,,,,"Eating, cooking, catching ",1
w10070266_sela,lreetpsi7t,"BOI Norms",1,14,2020-11-20T15:24:57-08:00,18.486534118652,20,"updated stim.csv",Version70.csv,"Version 70","List 70",match,,2084,4.565217391,1620,2085,BOI,-,-,"Please name all of the ways you could use this object. Keep in mind that one object can have many uses. Separate your responses with a comma.",,y,15259,,,2878,14496,,,,"Light, fire, heating",1
w10070266_sela,lreetpsi7t,"BOI Norms",1,15,2020-11-20T15:25:07-08:00,10.703534841537,20,"updated stim.csv",Version70.csv,"Version 70","List 70",goalkeeper,,2082,4.458333333,1120,2083,BOI,-,-,"Please name all of the ways you could use this object. Keep in mind that one object can have many uses. Separate your responses with a comma.",,y,10321,,,3331,9554,,,,"Blocking, kicking, running ",1
w10070266_sela,lreetpsi7t,"BOI Norms",1,16,2020-11-20T15:25:17-08:00,9.6726629734039,20,"updated stim.csv",Version70.csv,"Version 70","List 70",mallet,,2098,5.56,1584,2099,BOI,-,-,"Please name all of the ways you could use this object. Keep in mind that one object can have many uses. Separate your responses with a comma.",,y,9290,,,2814,8298,,,,"Hitting, hammering ",1
w10070266_sela,lreetpsi7t,"BOI Norms",1,17,2020-11-20T15:25:30-08:00,13.584223985672,20,"updated stim.csv",Version70.csv,"Version 70","List 70",bush,,2093,4.8,369,2094,BOI,-,-,"Please name all of the ways you could use this object. Keep in mind that one object can have many uses. Separate your responses with a comma.",,y,10506,,,3061,9486,,,,"Coming hair, itching skin ",1
w10070266_sela,lreetpsi7t,"BOI Norms",1,18,2020-11-20T15:26:09-08:00,38.720002174377,20,"updated stim.csv",Version70.csv,"Version 70","List 70",rib,,2079,5.92,2164,2080,BOI,-,-,"Please name all of the ways you could use this object. Keep in mind that one object can have many uses. Separate your responses with a comma.",,y,24515,,,10376,23649,,,,"Manipulate, eating, hurting ",1
w10070266_sela,lreetpsi7t,"BOI Norms",1,19,2020-11-20T15:26:33-08:00,23.553797006607,20,"updated stim.csv",Version70.csv,"Version 70","List 70",captain,,2097,4.913043478,427,2098,BOI,-,-,"Please name all of the ways you could use this object. Keep in mind that one object can have many uses. Separate your responses with a comma.",,y,22497,,,5524,21660,,,,"Heading of boat, driving boat, being incharge ",1
w10070266_sela,lreetpsi7t,"BOI Norms",1,20,2020-11-20T15:27:08-08:00,35.731596946716,20,"updated stim.csv",Version70.csv,"Version 70","List 70",teakettle,,2094,6.125,2646,2095,BOI,-,-,"Please name all of the ways you could use this object. Keep in mind that one object can have many uses. Separate your responses with a comma.",,y,29293,,,4799,17020,,,,"Drinking tea, boiling water, ",1
w10070266_sela,lreetpsi7t,"BOI Norms",1,21,2020-11-20T15:27:20-08:00,11.491357088089,20,"updated stim.csv",Version70.csv,"Version 70","List 70",dumbwaiter,,2074,4.44,866,2075,BOI,-,-,"Please name all of the ways you could use this object. Keep in mind that one object can have many uses. Separate your responses with a comma.",,y,11027,,,5948,10139,,,,"Not sure what this is?? ",1
w10070266_sela,lreetpsi7t,"BOI Norms",1,22,2020-11-20T15:27:35-08:00,14.62094783783,20,"updated stim.csv",Version70.csv,"Version 70","List 70",mitten,,2081,6.041666667,1671,2082,BOI,-,-,"Please name all of the ways you could use this object. Keep in mind that one object can have many uses. Separate your responses with a comma.",,y,13683,,,3507,6691,,,,"Keep hands warm, Accessorizing",1
w10070266_sela,lreetpsi7t,"BOI Norms",1,23,2020-11-20T15:27:52-08:00,17.525006055832,20,"updated stim.csv",Version70.csv,"Version 70","List 70",camera,,2089,6.086956522,406,2090,BOI,-,-,"Please name all of the ways you could use this object. Keep in mind that one object can have many uses. Separate your responses with a comma.",,y,16911,,,-1,-1,,,,"Taking a picture, drawing, breaking",1
w10070266_sela,lreetpsi7t,"BOI Norms",1,24,2020-11-20T15:27:59-08:00,6.3940689563751,20,"updated stim.csv",Version70.csv,"Version 70","List 70",sawdust,,2083,4.4,2254,2084,BOI,-,-,"Please name all of the ways you could use this object. Keep in mind that one object can have many uses. Separate your responses with a comma.",,y,5386,,,-1,-1,,,,,1
w10070266_sela,lreetpsi7t,"BOI Norms",1,25,2020-11-20T15:28:15-08:00,16.243328094482,20,"updated stim.csv",Version70.csv,"Version 70","List 70",greyhound,,2071,4.636363636,1174,2072,BOI,-,-,"Please name all of the ways you could use this object. Keep in mind that one object can have many uses. Separate your responses with a comma.",,y,15852,,,-1,-1,,,,"Taking a bus ride, traveling, germs",1
w10070266_sela,lreetpsi7t,"BOI Norms",1,26,2020-11-20T15:28:27-08:00,11.841202974319,20,"updated stim.csv",Version70.csv,"Version 70","List 70",boatman,,2072,4.76,257,2073,BOI,-,-,"Please name all of the ways you could use this object. Keep in mind that one object can have many uses. Separate your responses with a comma.",,y,11220,,,-1,-1,,,,"Taking a boat ride, getting some sunshine",1
w10070266_sela,lreetpsi7t,"BOI Norms",1,27,2020-11-20T15:28:41-08:00,14.581909894943,20,"updated stim.csv",Version70.csv,"Version 70","List 70",passport,,2087,5,1883,2088,BOI,-,-,"Please name all of the ways you could use this object. Keep in mind that one object can have many uses. Separate your responses with a comma.",,y,14076,,,-1,-1,,,,"Traveling, visiting places, taking a picture",1
w10070266_sela,lreetpsi7t,"BOI Norms",1,28,2020-11-20T15:28:57-08:00,15.767934083939,20,"updated stim.csv",Version70.csv,"Version 70","List 70",jockstrap,,2091,5.739130435,1387,2092,BOI,-,-,"Please name all of the ways you could use this object. Keep in mind that one object can have many uses. Separate your responses with a comma.",,y,13006,,,-1,-1,,,,"Protection, playing football,",1
w10070266_sela,lreetpsi7t,"BOI Norms",1,29,2020-11-20T15:29:10-08:00,13.02446103096,20,"updated stim.csv",Version70.csv,"Version 70","List 70",skullcap,,2075,4.962962963,2403,2076,BOI,-,-,"Please name all of the ways you could use this object. Keep in mind that one object can have many uses. Separate your responses with a comma.",,y,12423,,,-1,-1,,,,"Playing football, protection, brain injury",1
w10070266_sela,lreetpsi7t,"BOI Norms",1,30,2020-11-20T15:29:19-08:00,9.4605550765991,20,"updated stim.csv",Version70.csv,"Version 70","List 70",bedpost,,2073,5.346153846,186,2074,BOI,-,-,"Please name all of the ways you could use this object. Keep in mind that one object can have many uses. Separate your responses with a comma.",,y,8956,,,-1,-1,,,,"Holding up a bed, comfort",1
w10070266_sela,lreetpsi7t,"BOI Norms",1,31,2020-11-20T15:29:29-08:00,9.2691669464111,20,"updated stim.csv",Version70.csv,"Version 70","List 70",cobblestone,,2092,5.086956522,583,2093,BOI,-,-,"Please name all of the ways you could use this object. Keep in mind that one object can have many uses. Separate your responses with a comma.",,y,8193,,,-1,-1,,,,"Walking on,",1
w10070266_sela,lreetpsi7t,"BOI Norms",1,32,2020-11-20T15:29:46-08:00,17.292243003845,20,"updated stim.csv",Version70.csv,"Version 70","List 70",furnishings,,2080,6.166666667,1067,2081,BOI,-,-,"Please name all of the ways you could use this object. Keep in mind that one object can have many uses. Separate your responses with a comma.",,y,10522,,,-1,-1,,,,"Decorating,",1
w10070266_sela,lreetpsi7t,"BOI Norms",1,33,2020-11-20T15:30:01-08:00,15.481818914413,20,"updated stim.csv",Version70.csv,"Version 70","List 70",daggers,,2100,4.75,748,2101,BOI,-,-,"Please name all of the ways you could use this object. Keep in mind that one object can have many uses. Separate your responses with a comma.",,y,13948,,,-1,-1,,,,"Throwing them, playing a game, killing some thing",1
w10070266_sela,lreetpsi7t,"BOI Norms",1,34,2020-11-20T15:30:12-08:00,10.225229978561,20,"updated stim.csv",Version70.csv,"Version 70","List 70",wall,,2076,4.68,2886,2077,BOI,-,-,"Please name all of the ways you could use this object. Keep in mind that one object can have many uses. Separate your responses with a comma.",,y,9537,,,-1,-1,,,,"Painting hanging out the picture,",1
w10070266_sela,lreetpsi7t,"BOI Norms",1,35,2020-11-20T15:30:29-08:00,17.741925001144,20,"updated stim.csv",Version70.csv,"Version 70","List 70",caterpillar,,2085,5.083333333,458,2086,BOI,-,-,"Please name all of the ways you could use this object. Keep in mind that one object can have many uses. Separate your responses with a comma.",,y,17396,,,2427,16543,,,,"Being a butterfly, eating ",1
w10070266_sela,lreetpsi7t,"BOI Norms",1,36,2020-11-20T15:30:43-08:00,13.999376058578,20,"updated stim.csv",Version70.csv,"Version 70","List 70",paddle,,2086,5.68,1842,2087,BOI,-,-,"Please name all of the ways you could use this object. Keep in mind that one object can have many uses. Separate your responses with a comma.",,y,13594,,,2500,12832,,,,"Hitting, boating, pushing ",1
w10070266_sela,lreetpsi7t,"BOI Norms",1,37,2020-11-20T15:30:53-08:00,9.9449310302734,20,"updated stim.csv",Version70.csv,"Version 70","List 70",executioner,,2078,4.44,927,2079,BOI,-,-,"Please name all of the ways you could use this object. Keep in mind that one object can have many uses. Separate your responses with a comma.",,y,9432,,,3489,8650,,,,"I am not sure what this is?? ",1
w10070266_sela,lreetpsi7t,"BOI Norms",1,38,2020-11-20T15:31:01-08:00,8.1027228832245,20,"updated stim.csv",Version70.csv,"Version 70","List 70",vibrator,,2077,6.464285714,2855,2078,BOI,-,-,"Please name all of the ways you could use this object. Keep in mind that one object can have many uses. Separate your responses with a comma.",,y,7730,,,5612,6879,,,,"Pleasure ",1
w10070266_sela,lreetpsi7t,"BOI Norms",1,39,2020-11-20T15:31:13-08:00,11.655081987381,20,"updated stim.csv",Version70.csv,"Version 70","List 70",sawhorse,,2095,5.125,2255,2096,BOI,-,-,"Please name all of the ways you could use this object. Keep in mind that one object can have many uses. Separate your responses with a comma.",,y,11126,,,3125,10296,,,,"Building items, holding up items ",1
w10070266_sela,lreetpsi7t,"BOI Norms",1,40,2020-11-20T15:31:25-08:00,12.352262973785,20,"updated stim.csv",Version70.csv,"Version 70","List 70",eyeglasses,,2096,6.28,934,2097,BOI,-,-,"Please name all of the ways you could use this object. Keep in mind that one object can have many uses. Separate your responses with a comma.",,y,11973,,,1852,11145,,,,"To see, to read, to accessorize ",1
w10070266_sela,lreetpsi7t,"BOI Norms",1,41,2020-11-20T15:31:29-08:00,3.5733110904694,20,"updated stim.csv",Version70.csv,"Version 70","List 70",,,,,,0,Instruct,,,"You will now be asked a few questions about your experience today.",,"Instruct 4",3208,,,-1,-1,,,,,1
