Username,ID,ExperimentName,Session,Trial,Date,TimeDif,"Condition Number","Stimuli File","Order File","Condition Description","Condition Notes",Stimuli*Cue,Stimuli*Answer,Stimuli*Shuffle,"Stimuli*Stimuli Notes",Stimuli*Value,Procedure*Item,"Procedure*Trial Type","Procedure*Max Time","Procedure*Min Time",Procedure*Text,"Procedure*Procedure Notes",Procedure*Shuffle,Response*RT,Response*Response,Response*Accuracy,Response*RTfirst,Response*RTlast,Response*strictAcc,Response*lenientAcc,Response*focus,Response*JOL,Response*Focus
w10065796,8z4qs9vboe,"BOI Norms",1,1,2020-11-06T17:55:03-08:00,11.498370170593,14,"updated stim.csv",Version89.csv,"Version 89","List 89",,,,,,0,Instruct,-,10,"In this section, you will be presented with a series of objects. Please name as many possible uses for this object as you can think of by typing them in the box below each object.",,Instruct1,11337,,,-1,-1,,,,,1
w10065796,8z4qs9vboe,"BOI Norms",1,2,2020-11-06T17:55:14-08:00,11.269912958145,14,"updated stim.csv",Version89.csv,"Version 89","List 89",,,,,,0,Instruct,-,10,"Please keep in mind that a single object will have more than one use. For example, a ball can be thrown or can be bounced or even stepped on. When listing multiple uses for one object, please separate each use with a comma (i.e., thrown, bounced, stepped on)",,Instruct2,11029,,,-1,-1,,,,,1
w10065796,8z4qs9vboe,"BOI Norms",1,3,2020-11-06T17:55:18-08:00,3.9916758537292,14,"updated stim.csv",Version89.csv,"Version 89","List 89",,,,,,0,Instruct,-,-,"Before starting the experiment, you will complete a short practice sesstion. Press ENTER when you are ready to begin.",,Instruct3,3777,,,-1,-1,,,,,1
w10065796,8z4qs9vboe,"BOI Norms",1,4,2020-11-06T17:55:36-08:00,18.031810045242,14,"updated stim.csv",Version89.csv,"Version 89","List 89",paperwork,,3001,5.625,1866,3002,BOI,-,-,"Please name all of the ways you could use this object. Keep in mind that one object can have many uses. Separate your responses with a comma.",,n,17755,,,1509,17121,,,,"write, throw away, give, store, file, type, submit, relay, fax",1
w10065796,8z4qs9vboe,"BOI Norms",1,5,2020-11-06T17:55:44-08:00,8.4563500881195,14,"updated stim.csv",Version89.csv,"Version 89","List 89",saucer,,3005,5.777777778,2249,3006,BOI,-,-,"Please name all of the ways you could use this object. Keep in mind that one object can have many uses. Separate your responses with a comma.",,n,8227,,,2485,5061,,,,"cook, sky",1
w10065796,8z4qs9vboe,"BOI Norms",1,6,2020-11-06T17:55:59-08:00,14.31285905838,14,"updated stim.csv",Version89.csv,"Version 89","List 89",shortening,,3002,4.92,2358,3003,BOI,-,-,"Please name all of the ways you could use this object. Keep in mind that one object can have many uses. Separate your responses with a comma.",,n,14076,,,2872,12153,,,,"pencil, time, person",1
w10065796,8z4qs9vboe,"BOI Norms",1,7,2020-11-06T17:56:14-08:00,14.972913980484,14,"updated stim.csv",Version89.csv,"Version 89","List 89",grain,,3004,5.217391304,1143,3005,BOI,-,-,"Please name all of the ways you could use this object. Keep in mind that one object can have many uses. Separate your responses with a comma.",,n,14733,,,3585,12640,,,,"eat, store, cook, grow,",1
w10065796,8z4qs9vboe,"BOI Norms",1,8,2020-11-06T17:56:32-08:00,17.818107843399,14,"updated stim.csv",Version89.csv,"Version 89","List 89",spaghetti,,3003,6,2461,3004,BOI,-,-,"Please name all of the ways you could use this object. Keep in mind that one object can have many uses. Separate your responses with a comma.",,n,17582,,,953,16229,,,,"eat, throw away, cook, store, give, ",1
w10065796,8z4qs9vboe,"BOI Norms",1,9,2020-11-06T17:56:33-08:00,1.4471659660339,14,"updated stim.csv",Version89.csv,"Version 89","List 89",,,,,,0,Instruct,-,-,"You have completed this section. Press ENTER to continue",,"Instruct 5",1202,,,-1,-1,,,,,1
w10065796,8z4qs9vboe,"BOI Norms",1,10,2020-11-06T17:56:34-08:00,1.4729020595551,14,"updated stim.csv",Version89.csv,"Version 89","List 89",,,,,,0,Instruct,-,-,"You will now start the full experiment. Press ENTER when you are ready to begin.",,,1241,,,-1,-1,,,,,1
w10065796,8z4qs9vboe,"BOI Norms",1,11,2020-11-06T17:56:47-08:00,12.670655012131,14,"updated stim.csv",Version89.csv,"Version 89","List 89",congresswoman,,2648,4.32,627,2649,BOI,-,-,"Please name all of the ways you could use this object. Keep in mind that one object can have many uses. Separate your responses with a comma.",,y,12424,,,3388,11974,,,,"argue, talk, pass laws",1
w10065796,8z4qs9vboe,"BOI Norms",1,12,2020-11-06T17:57:03-08:00,15.887933969498,14,"updated stim.csv",Version89.csv,"Version 89","List 89",catwalk,,2665,4.652173913,464,2666,BOI,-,-,"Please name all of the ways you could use this object. Keep in mind that one object can have many uses. Separate your responses with a comma.",,y,15668,,,1432,14840,,,,"walk, propose, see",1
w10065796,8z4qs9vboe,"BOI Norms",1,13,2020-11-06T17:57:21-08:00,18.114413976669,14,"updated stim.csv",Version89.csv,"Version 89","List 89",band,,2643,4.384615385,137,2644,BOI,-,-,"Please name all of the ways you could use this object. Keep in mind that one object can have many uses. Separate your responses with a comma.",,y,17880,,,2093,12883,,,,"entertainment, hold hair,",1
w10065796,8z4qs9vboe,"BOI Norms",1,14,2020-11-06T17:57:35-08:00,13.689913988113,14,"updated stim.csv",Version89.csv,"Version 89","List 89",rocker,,2656,5.04,2184,2657,BOI,-,-,"Please name all of the ways you could use this object. Keep in mind that one object can have many uses. Separate your responses with a comma.",,y,13432,,,2008,8974,,,,"rock baby, sleep, watch tv, ",1
w10065796,8z4qs9vboe,"BOI Norms",1,15,2020-11-06T17:57:49-08:00,13.972947120667,14,"updated stim.csv",Version89.csv,"Version 89","List 89",bathtub,,2650,6.565217391,170,2651,BOI,-,-,"Please name all of the ways you could use this object. Keep in mind that one object can have many uses. Separate your responses with a comma.",,y,13708,,,1414,13014,,,,"relax, bathe, sit, lay,",1
w10065796,8z4qs9vboe,"BOI Norms",1,16,2020-11-06T17:58:03-08:00,14.04896402359,14,"updated stim.csv",Version89.csv,"Version 89","List 89",jar,,2655,6.208333333,1373,2656,BOI,-,-,"Please name all of the ways you could use this object. Keep in mind that one object can have many uses. Separate your responses with a comma.",,y,13803,,,1907,12868,,,,"store, decoration, cook",1
w10065796,8z4qs9vboe,"BOI Norms",1,17,2020-11-06T17:58:18-08:00,14.831848859787,14,"updated stim.csv",Version89.csv,"Version 89","List 89",mum,,2646,4.416666667,1719,2647,BOI,-,-,"Please name all of the ways you could use this object. Keep in mind that one object can have many uses. Separate your responses with a comma.",,y,14608,,,3480,14073,,,,"decorate, smell, grow, give",1
w10065796,8z4qs9vboe,"BOI Norms",1,18,2020-11-06T17:58:34-08:00,16.433265209198,14,"updated stim.csv",Version89.csv,"Version 89","List 89",hamburger,,2660,6.148148148,1222,2661,BOI,-,-,"Please name all of the ways you could use this object. Keep in mind that one object can have many uses. Separate your responses with a comma.",,y,16204,,,1517,14640,,,,"eat, grill, fry, share, give, order, throw away",1
w10065796,8z4qs9vboe,"BOI Norms",1,19,2020-11-06T17:59:12-08:00,37.48876786232,14,"updated stim.csv",Version89.csv,"Version 89","List 89",plaintiff,,2654,4.375,1985,2655,BOI,-,-,"Please name all of the ways you could use this object. Keep in mind that one object can have many uses. Separate your responses with a comma.",,y,37261,,,35477,36927,,,,"law, court",1
w10065796,8z4qs9vboe,"BOI Norms",1,20,2020-11-06T17:59:26-08:00,14.034474134445,14,"updated stim.csv",Version89.csv,"Version 89","List 89",dwarf,,2666,4.333333333,871,2667,BOI,-,-,"Please name all of the ways you could use this object. Keep in mind that one object can have many uses. Separate your responses with a comma.",,y,13794,,,6075,12085,,,,"friends, talk, help",1
w10065796,8z4qs9vboe,"BOI Norms",1,21,2020-11-06T17:59:36-08:00,10.467718839645,14,"updated stim.csv",Version89.csv,"Version 89","List 89",entree,,2645,5.28,912,2646,BOI,-,-,"Please name all of the ways you could use this object. Keep in mind that one object can have many uses. Separate your responses with a comma.",,y,10238,,,1114,9877,,,,"eat, order, share, crave, throw away",1
w10065796,8z4qs9vboe,"BOI Norms",1,22,2020-11-06T17:59:48-08:00,12.316921949387,14,"updated stim.csv",Version89.csv,"Version 89","List 89",waitress,,2649,4.826086957,2884,2650,BOI,-,-,"Please name all of the ways you could use this object. Keep in mind that one object can have many uses. Separate your responses with a comma.",,y,12083,,,3171,11685,,,,"tip, thanks, help",1
w10065796,8z4qs9vboe,"BOI Norms",1,23,2020-11-06T18:00:02-08:00,13.159598112106,14,"updated stim.csv",Version89.csv,"Version 89","List 89",hat,,2652,6.44,1258,2653,BOI,-,-,"Please name all of the ways you could use this object. Keep in mind that one object can have many uses. Separate your responses with a comma.",,y,12930,,,1043,8531,,,,"wear, sell, produce, give",1
w10065796,8z4qs9vboe,"BOI Norms",1,24,2020-11-06T18:00:10-08:00,7.9287950992584,14,"updated stim.csv",Version89.csv,"Version 89","List 89",rail,,2658,5.517241379,2127,2659,BOI,-,-,"Please name all of the ways you could use this object. Keep in mind that one object can have many uses. Separate your responses with a comma.",,y,7694,,,1973,6543,,,,"steady, help",1
w10065796,8z4qs9vboe,"BOI Norms",1,25,2020-11-06T18:00:18-08:00,8.1464898586273,14,"updated stim.csv",Version89.csv,"Version 89","List 89",lace,,2641,4.869565217,1445,2642,BOI,-,-,"Please name all of the ways you could use this object. Keep in mind that one object can have many uses. Separate your responses with a comma.",,y,7784,,,3452,6971,,,,"shoes, ties",1
w10065796,8z4qs9vboe,"BOI Norms",1,26,2020-11-06T18:00:28-08:00,10.645934104919,14,"updated stim.csv",Version89.csv,"Version 89","List 89",husband,,2662,6.041666667,1338,2663,BOI,-,-,"Please name all of the ways you could use this object. Keep in mind that one object can have many uses. Separate your responses with a comma.",,y,10372,,,1471,8108,,,,"love, do work, cook, clean, sex",1
w10065796,8z4qs9vboe,"BOI Norms",1,27,2020-11-06T18:00:39-08:00,10.805670976639,14,"updated stim.csv",Version89.csv,"Version 89","List 89",lick,,2644,4.652173913,1502,2645,BOI,-,-,"Please name all of the ways you could use this object. Keep in mind that one object can have many uses. Separate your responses with a comma.",,y,10582,,,5745,6022,,,,eat,1
w10065796,8z4qs9vboe,"BOI Norms",1,28,2020-11-06T18:00:50-08:00,10.980819940567,14,"updated stim.csv",Version89.csv,"Version 89","List 89",needles,,2659,5.416666667,1747,2660,BOI,-,-,"Please name all of the ways you could use this object. Keep in mind that one object can have many uses. Separate your responses with a comma.",,y,10751,,,2316,10254,,,,"shots, sewing, ",1
w10065796,8z4qs9vboe,"BOI Norms",1,29,2020-11-06T18:01:12-08:00,21.439268112183,14,"updated stim.csv",Version89.csv,"Version 89","List 89",garb,,2653,4.541666667,1074,2654,BOI,-,-,"Please name all of the ways you could use this object. Keep in mind that one object can have many uses. Separate your responses with a comma.",,y,21204,,,11969,20833,,,,"dress, go out, sell, show, buy",1
w10065796,8z4qs9vboe,"BOI Norms",1,30,2020-11-06T18:01:19-08:00,7.5271389484406,14,"updated stim.csv",Version89.csv,"Version 89","List 89",croquette,,2669,4.681818182,702,2670,BOI,-,-,"Please name all of the ways you could use this object. Keep in mind that one object can have many uses. Separate your responses with a comma.",,y,7277,,,1803,6743,,,,"sell, make, teach",1
w10065796,8z4qs9vboe,"BOI Norms",1,31,2020-11-06T18:01:30-08:00,11.326446056366,14,"updated stim.csv",Version89.csv,"Version 89","List 89",cupboard,,2661,5.782608696,727,2662,BOI,-,-,"Please name all of the ways you could use this object. Keep in mind that one object can have many uses. Separate your responses with a comma.",,y,11085,,,2377,9099,,,,"store, hide, ",1
w10065796,8z4qs9vboe,"BOI Norms",1,32,2020-11-06T18:01:48-08:00,17.642020940781,14,"updated stim.csv",Version89.csv,"Version 89","List 89",barkeep,,2670,4.260869565,148,2671,BOI,-,-,"Please name all of the ways you could use this object. Keep in mind that one object can have many uses. Separate your responses with a comma.",,y,17397,,,12028,17219,,,,"buy, respect",1
w10065796,8z4qs9vboe,"BOI Norms",1,33,2020-11-06T18:01:58-08:00,9.9513149261475,14,"updated stim.csv",Version89.csv,"Version 89","List 89",trash,,2663,5.136363636,2764,2664,BOI,-,-,"Please name all of the ways you could use this object. Keep in mind that one object can have many uses. Separate your responses with a comma.",,y,9729,,,1163,9434,,,,"throw away, take out, smell, burn",1
w10065796,8z4qs9vboe,"BOI Norms",1,34,2020-11-06T18:02:11-08:00,12.553291082382,14,"updated stim.csv",Version89.csv,"Version 89","List 89",guestroom,,2642,4.538461538,1190,2643,BOI,-,-,"Please name all of the ways you could use this object. Keep in mind that one object can have many uses. Separate your responses with a comma.",,y,12330,,,1770,12145,,,,"sleep, store, watch tv, change clothes",1
w10065796,8z4qs9vboe,"BOI Norms",1,35,2020-11-06T18:02:22-08:00,10.984066963196,14,"updated stim.csv",Version89.csv,"Version 89","List 89",crackers,,2667,5.913043478,677,2668,BOI,-,-,"Please name all of the ways you could use this object. Keep in mind that one object can have many uses. Separate your responses with a comma.",,y,10746,,,881,10499,,,,"eat, buy, sell, share, throw away, store",1
w10065796,8z4qs9vboe,"BOI Norms",1,36,2020-11-06T18:02:33-08:00,11.204350948334,14,"updated stim.csv",Version89.csv,"Version 89","List 89",picnicker,,2668,4.458333333,1951,2669,BOI,-,-,"Please name all of the ways you could use this object. Keep in mind that one object can have many uses. Separate your responses with a comma.",,y,10957,,,4491,10639,,,,"eat, sit, laugh, talk",1
w10065796,8z4qs9vboe,"BOI Norms",1,37,2020-11-06T18:02:56-08:00,23.270254135132,14,"updated stim.csv",Version89.csv,"Version 89","List 89",icepick,,2657,5.416666667,1347,2658,BOI,-,-,"Please name all of the ways you could use this object. Keep in mind that one object can have many uses. Separate your responses with a comma.",,y,23021,,,15627,22764,,,,"chip ice, use tool, sell, share",1
w10065796,8z4qs9vboe,"BOI Norms",1,38,2020-11-06T18:03:08-08:00,11.856349945068,14,"updated stim.csv",Version89.csv,"Version 89","List 89",radio,,2647,5.291666667,2122,2648,BOI,-,-,"Please name all of the ways you could use this object. Keep in mind that one object can have many uses. Separate your responses with a comma.",,y,11627,,,1366,10165,,,,"listen, sell, buy",1
w10065796,8z4qs9vboe,"BOI Norms",1,39,2020-11-06T18:03:25-08:00,17.205545902252,14,"updated stim.csv",Version89.csv,"Version 89","List 89",brooch,,2664,5.130434783,331,2665,BOI,-,-,"Please name all of the ways you could use this object. Keep in mind that one object can have many uses. Separate your responses with a comma.",,y,16952,,,10140,16376,,,,"wear, sell, make, give",1
w10065796,8z4qs9vboe,"BOI Norms",1,40,2020-11-06T18:03:39-08:00,13.472716093063,14,"updated stim.csv",Version89.csv,"Version 89","List 89",banister,,2651,5.130434783,140,2652,BOI,-,-,"Please name all of the ways you could use this object. Keep in mind that one object can have many uses. Separate your responses with a comma.",,y,13224,,,5184,12963,,,,"store, empty, take out, smell",1
w10065796,8z4qs9vboe,"BOI Norms",1,41,2020-11-06T18:03:41-08:00,2.0050718784332,14,"updated stim.csv",Version89.csv,"Version 89","List 89",,,,,,0,Instruct,,,"You will now be asked a few questions about your experience today.",,"Instruct 4",1788,,,-1,-1,,,,,1
