Username,ID,ExperimentName,Session,Trial,Date,TimeDif,"Condition Number","Stimuli File","Order File","Condition Description","Condition Notes",Stimuli*Cue,Stimuli*Answer,Stimuli*Shuffle,"Stimuli*Stimuli Notes",Stimuli*Value,Procedure*Item,"Procedure*Trial Type","Procedure*Max Time","Procedure*Min Time",Procedure*Text,"Procedure*Procedure Notes",Procedure*Shuffle,Response*RT,Response*Response,Response*Accuracy,Response*RTfirst,Response*RTlast,Response*strictAcc,Response*lenientAcc,Response*focus,Response*JOL,Response*Focus
w194865_BG,4d9obi2ou9,"BOI Norms",1,1,2021-02-10T22:50:41-08:00,13.66380405426,2,"updated stim.csv",Version2.csv,"Version 2","List 2",,,,,,0,Instruct,-,10,"In this section, you will be presented with a series of objects. Please name as many possible uses for this object as you can think of by typing them in the box below each object.",,Instruct1,13470,,,-1,-1,,,,,1
w194865_BG,4d9obi2ou9,"BOI Norms",1,2,2021-02-10T22:50:53-08:00,12.410790920258,2,"updated stim.csv",Version2.csv,"Version 2","List 2",,,,,,0,Instruct,-,10,"Please keep in mind that a single object will have more than one use. For example, a ball can be thrown or can be bounced or even stepped on. When listing multiple uses for one object, please separate each use with a comma (i.e., thrown, bounced, stepped on)",,Instruct2,12136,,,-1,-1,,,,,1
w194865_BG,4d9obi2ou9,"BOI Norms",1,3,2021-02-10T22:50:58-08:00,5.2375910282135,2,"updated stim.csv",Version2.csv,"Version 2","List 2",,,,,,0,Instruct,-,-,"Before starting the experiment, you will complete a short practice sesstion. Press ENTER when you are ready to begin.",,Instruct3,4995,,,-1,-1,,,,,1
w194865_BG,4d9obi2ou9,"BOI Norms",1,4,2021-02-10T22:51:39-08:00,40.40070104599,2,"updated stim.csv",Version2.csv,"Version 2","List 2",paperwork,,3001,5.625,1866,3002,BOI,-,-,"Please name all of the ways you could use this object. Keep in mind that one object can have many uses. Separate your responses with a comma.",,n,40122,,,9034,37992,,,,"finished, typed, copied, faxed, scanned, thrown away",1
w194865_BG,4d9obi2ou9,"BOI Norms",1,5,2021-02-10T22:52:04-08:00,24.744060993195,2,"updated stim.csv",Version2.csv,"Version 2","List 2",grain,,3004,5.217391304,1143,3005,BOI,-,-,"Please name all of the ways you could use this object. Keep in mind that one object can have many uses. Separate your responses with a comma.",,n,24493,,,10566,21992,,,,"milled, crushed, eaten",1
w194865_BG,4d9obi2ou9,"BOI Norms",1,6,2021-02-10T22:52:33-08:00,29.612905025482,2,"updated stim.csv",Version2.csv,"Version 2","List 2",spaghetti,,3003,6,2461,3004,BOI,-,-,"Please name all of the ways you could use this object. Keep in mind that one object can have many uses. Separate your responses with a comma.",,n,29358,,,3551,20016,,,,"eaten, cooked, boiled, baked, ",1
w194865_BG,4d9obi2ou9,"BOI Norms",1,7,2021-02-10T22:52:59-08:00,25.572485923767,2,"updated stim.csv",Version2.csv,"Version 2","List 2",shortening,,3002,4.92,2358,3003,BOI,-,-,"Please name all of the ways you could use this object. Keep in mind that one object can have many uses. Separate your responses with a comma.",,n,25313,,,9516,23476,,,,"bake, cook, fry, grill",1
w194865_BG,4d9obi2ou9,"BOI Norms",1,8,2021-02-10T22:53:20-08:00,21.484533071518,2,"updated stim.csv",Version2.csv,"Version 2","List 2",saucer,,3005,5.777777778,2249,3006,BOI,-,-,"Please name all of the ways you could use this object. Keep in mind that one object can have many uses. Separate your responses with a comma.",,n,21226,,,3900,12954,,,,"wash, break, ",1
w194865_BG,4d9obi2ou9,"BOI Norms",1,9,2021-02-10T22:53:24-08:00,3.3436410427094,2,"updated stim.csv",Version2.csv,"Version 2","List 2",,,,,,0,Instruct,-,-,"You have completed this section. Press ENTER to continue",,"Instruct 5",3077,,,-1,-1,,,,,1
w194865_BG,4d9obi2ou9,"BOI Norms",1,10,2021-02-10T22:53:26-08:00,2.5129978656769,2,"updated stim.csv",Version2.csv,"Version 2","List 2",,,,,,0,Instruct,-,-,"You will now start the full experiment. Press ENTER when you are ready to begin.",,,2242,,,-1,-1,,,,,1
w194865_BG,4d9obi2ou9,"BOI Norms",1,11,2021-02-10T22:54:03-08:00,36.562090158463,2,"updated stim.csv",Version2.csv,"Version 2","List 2",mice,,47,5,1653,48,BOI,-,-,"Please name all of the ways you could use this object. Keep in mind that one object can have many uses. Separate your responses with a comma.",,y,36317,,,7660,33575,,,,"poisoned, killed, run over",1
w194865_BG,4d9obi2ou9,"BOI Norms",1,12,2021-02-10T22:54:28-08:00,25.584479808807,2,"updated stim.csv",Version2.csv,"Version 2","List 2",goalpost,,37,4.84,1121,38,BOI,-,-,"Please name all of the ways you could use this object. Keep in mind that one object can have many uses. Separate your responses with a comma.",,y,25320,,,15038,22434,,,,"climb, pull down",1
w194865_BG,4d9obi2ou9,"BOI Norms",1,13,2021-02-10T22:54:52-08:00,23.35829615593,2,"updated stim.csv",Version2.csv,"Version 2","List 2",blower,,53,4.48,245,54,BOI,-,-,"Please name all of the ways you could use this object. Keep in mind that one object can have many uses. Separate your responses with a comma.",,y,23101,,,5245,16256,,,,"turn on, turn off, use",1
w194865_BG,4d9obi2ou9,"BOI Norms",1,14,2021-02-10T22:55:08-08:00,16.302286863327,2,"updated stim.csv",Version2.csv,"Version 2","List 2",skittles,,38,5.24,2402,39,BOI,-,-,"Please name all of the ways you could use this object. Keep in mind that one object can have many uses. Separate your responses with a comma.",,y,16044,,,2672,14161,,,,"eat, share, count",1
w194865_BG,4d9obi2ou9,"BOI Norms",1,15,2021-02-10T22:55:23-08:00,14.754608154297,2,"updated stim.csv",Version2.csv,"Version 2","List 2",yogurt,,49,6.347826087,2994,50,BOI,-,-,"Please name all of the ways you could use this object. Keep in mind that one object can have many uses. Separate your responses with a comma.",,y,14502,,,4237,11476,,,,"open, mix, eat",1
w194865_BG,4d9obi2ou9,"BOI Norms",1,16,2021-02-10T22:55:37-08:00,14.349555015564,2,"updated stim.csv",Version2.csv,"Version 2","List 2",newscaster,,32,4.347826087,1757,33,BOI,-,-,"Please name all of the ways you could use this object. Keep in mind that one object can have many uses. Separate your responses with a comma.",,y,14083,,,2414,3868,,,,watch,1
w194865_BG,4d9obi2ou9,"BOI Norms",1,17,2021-02-10T22:55:59-08:00,22.361097812653,2,"updated stim.csv",Version2.csv,"Version 2","List 2",teabag,,42,6.32,2642,43,BOI,-,-,"Please name all of the ways you could use this object. Keep in mind that one object can have many uses. Separate your responses with a comma.",,y,22114,,,5305,18441,,,,"dunk, brew, squeeze",1
w194865_BG,4d9obi2ou9,"BOI Norms",1,18,2021-02-10T22:56:25-08:00,25.943057060242,2,"updated stim.csv",Version2.csv,"Version 2","List 2",dolphin,,48,4.52,817,49,BOI,-,-,"Please name all of the ways you could use this object. Keep in mind that one object can have many uses. Separate your responses with a comma.",,y,25701,,,11111,14386,,,,watch,1
w194865_BG,4d9obi2ou9,"BOI Norms",1,19,2021-02-10T22:56:51-08:00,26.055567979813,2,"updated stim.csv",Version2.csv,"Version 2","List 2",coverall,,50,4.739130435,670,51,BOI,-,-,"Please name all of the ways you could use this object. Keep in mind that one object can have many uses. Separate your responses with a comma.",,y,25804,,,3268,22191,,,,"wear, wash, fold, hang up",1
w194865_BG,4d9obi2ou9,"BOI Norms",1,20,2021-02-10T22:57:40-08:00,48.569131135941,2,"updated stim.csv",Version2.csv,"Version 2","List 2",hotplate,,45,5.230769231,1323,46,BOI,-,-,"Please name all of the ways you could use this object. Keep in mind that one object can have many uses. Separate your responses with a comma.",,y,48207,,,2661,44702,,,,"turn on, turn off, use",1
w194865_BG,4d9obi2ou9,"BOI Norms",1,21,2021-02-10T22:58:05-08:00,24.909663915634,2,"updated stim.csv",Version2.csv,"Version 2","List 2",yourself,,34,5.583333333,2998,35,BOI,-,-,"Please name all of the ways you could use this object. Keep in mind that one object can have many uses. Separate your responses with a comma.",,y,24644,,,9714,20363,,,,"like, dislike, hate, love",1
w194865_BG,4d9obi2ou9,"BOI Norms",1,22,2021-02-10T22:58:39-08:00,33.664309978485,2,"updated stim.csv",Version2.csv,"Version 2","List 2",courtyard,,31,4.392857143,668,32,BOI,-,-,"Please name all of the ways you could use this object. Keep in mind that one object can have many uses. Separate your responses with a comma.",,y,33409,,,15040,31094,,,,"sweep, clean, enter, leave",1
w194865_BG,4d9obi2ou9,"BOI Norms",1,23,2021-02-10T22:59:08-08:00,29.559242963791,2,"updated stim.csv",Version2.csv,"Version 2","List 2",undergarment,,58,6.074074074,2822,59,BOI,-,-,"Please name all of the ways you could use this object. Keep in mind that one object can have many uses. Separate your responses with a comma.",,y,29303,,,14904,24394,,,,"wear, wash, fold",1
w194865_BG,4d9obi2ou9,"BOI Norms",1,24,2021-02-10T22:59:24-08:00,16.030256986618,2,"updated stim.csv",Version2.csv,"Version 2","List 2",antibiotics,,55,4.956521739,48,56,BOI,-,-,"Please name all of the ways you could use this object. Keep in mind that one object can have many uses. Separate your responses with a comma.",,y,15763,,,3184,12384,,,,"take, use, prescribe",1
w194865_BG,4d9obi2ou9,"BOI Norms",1,25,2021-02-10T23:00:19-08:00,54.813424110413,2,"updated stim.csv",Version2.csv,"Version 2","List 2",gondola,,52,4.916666667,1137,53,BOI,-,-,"Please name all of the ways you could use this object. Keep in mind that one object can have many uses. Separate your responses with a comma.",,y,54478,,,11278,51540,,,,"get in, ride in, get out of, photograph",1
w194865_BG,4d9obi2ou9,"BOI Norms",1,26,2021-02-10T23:00:53-08:00,33.745184898376,2,"updated stim.csv",Version2.csv,"Version 2","List 2",tripe,,56,4.7,2778,57,BOI,-,-,"Please name all of the ways you could use this object. Keep in mind that one object can have many uses. Separate your responses with a comma.",,y,33477,,,6868,29495,,,,"cook, boil, smell, eat",1
w194865_BG,4d9obi2ou9,"BOI Norms",1,27,2021-02-10T23:01:15-08:00,22.484623193741,2,"updated stim.csv",Version2.csv,"Version 2","List 2",bottle,,35,5.464285714,287,36,BOI,-,-,"Please name all of the ways you could use this object. Keep in mind that one object can have many uses. Separate your responses with a comma.",,y,22238,,,5729,19464,,,,"drink, break, wash, throw away",1
w194865_BG,4d9obi2ou9,"BOI Norms",1,28,2021-02-10T23:01:38-08:00,22.672960996628,2,"updated stim.csv",Version2.csv,"Version 2","List 2",prankster,,51,4.642857143,2058,52,BOI,-,-,"Please name all of the ways you could use this object. Keep in mind that one object can have many uses. Separate your responses with a comma.",,y,22433,,,10604,19511,,,,"laugh at, punch",1
w194865_BG,4d9obi2ou9,"BOI Norms",1,29,2021-02-10T23:02:10-08:00,32.601353883743,2,"updated stim.csv",Version2.csv,"Version 2","List 2",rainwater,,60,5.407407407,2133,61,BOI,-,-,"Please name all of the ways you could use this object. Keep in mind that one object can have many uses. Separate your responses with a comma.",,y,32321,,,5439,28744,,,,"watch, wipe off, dry off",1
w194865_BG,4d9obi2ou9,"BOI Norms",1,30,2021-02-10T23:02:40-08:00,29.878784894943,2,"updated stim.csv",Version2.csv,"Version 2","List 2",assemblyman,,59,4.72,89,60,BOI,-,-,"Please name all of the ways you could use this object. Keep in mind that one object can have many uses. Separate your responses with a comma.",,y,29621,,,11924,25353,,,,"supervise, watch, teach, pay",1
w194865_BG,4d9obi2ou9,"BOI Norms",1,31,2021-02-10T23:03:03-08:00,22.961130142212,2,"updated stim.csv",Version2.csv,"Version 2","List 2",barman,,39,4.818181818,150,40,BOI,-,-,"Please name all of the ways you could use this object. Keep in mind that one object can have many uses. Separate your responses with a comma.",,y,22714,,,4943,18811,,,,"order from, pay, tip, talk to",1
w194865_BG,4d9obi2ou9,"BOI Norms",1,32,2021-02-10T23:03:09-08:00,6.1077809333801,2,"updated stim.csv",Version2.csv,"Version 2","List 2",turban,,40,5.148148148,2799,41,BOI,-,-,"Please name all of the ways you could use this object. Keep in mind that one object can have many uses. Separate your responses with a comma.",,y,5847,,,2371,3193,,,,wear,1
w194865_BG,4d9obi2ou9,"BOI Norms",1,33,2021-02-10T23:03:25-08:00,15.635261058807,2,"updated stim.csv",Version2.csv,"Version 2","List 2",satchel,,36,5.583333333,2245,37,BOI,-,-,"Please name all of the ways you could use this object. Keep in mind that one object can have many uses. Separate your responses with a comma.",,y,15387,,,1854,11611,,,,"carry, fill, empty",1
w194865_BG,4d9obi2ou9,"BOI Norms",1,34,2021-02-10T23:03:38-08:00,12.474179029465,2,"updated stim.csv",Version2.csv,"Version 2","List 2",trap,,57,4.695652174,2762,58,BOI,-,-,"Please name all of the ways you could use this object. Keep in mind that one object can have many uses. Separate your responses with a comma.",,y,12232,,,6226,7640,,,,avoid,1
w194865_BG,4d9obi2ou9,"BOI Norms",1,35,2021-02-10T23:03:56-08:00,18.130784988403,2,"updated stim.csv",Version2.csv,"Version 2","List 2",godmother,,46,5.19047619,1128,47,BOI,-,-,"Please name all of the ways you could use this object. Keep in mind that one object can have many uses. Separate your responses with a comma.",,y,17883,,,6397,15739,,,,"call, hug",1
w194865_BG,4d9obi2ou9,"BOI Norms",1,36,2021-02-10T23:04:28-08:00,32.162787914276,2,"updated stim.csv",Version2.csv,"Version 2","List 2",lettuce,,33,6.083333333,1497,34,BOI,-,-,"Please name all of the ways you could use this object. Keep in mind that one object can have many uses. Separate your responses with a comma.",,y,31910,,,6417,26709,,,,"buy, pick, wash, chop, shred, eat",1
w194865_BG,4d9obi2ou9,"BOI Norms",1,37,2021-02-10T23:04:42-08:00,14.379949092865,2,"updated stim.csv",Version2.csv,"Version 2","List 2",gunpowder,,54,4.96,1201,55,BOI,-,-,"Please name all of the ways you could use this object. Keep in mind that one object can have many uses. Separate your responses with a comma.",,y,14126,,,5079,11560,,,,"pack, light",1
w194865_BG,4d9obi2ou9,"BOI Norms",1,38,2021-02-10T23:05:10-08:00,27.560039997101,2,"updated stim.csv",Version2.csv,"Version 2","List 2",boot,,41,6.555555556,281,42,BOI,-,-,"Please name all of the ways you could use this object. Keep in mind that one object can have many uses. Separate your responses with a comma.",,y,27298,,,6551,25014,,,,"buy, wear, clean off, dry off",1
w194865_BG,4d9obi2ou9,"BOI Norms",1,39,2021-02-10T23:05:40-08:00,30.554306030273,2,"updated stim.csv",Version2.csv,"Version 2","List 2",toy,,43,6.08,2750,44,BOI,-,-,"Please name all of the ways you could use this object. Keep in mind that one object can have many uses. Separate your responses with a comma.",,y,30301,,,3306,27495,,,,"buy, play with, give away, break",1
w194865_BG,4d9obi2ou9,"BOI Norms",1,40,2021-02-10T23:06:04-08:00,23.279636859894,2,"updated stim.csv",Version2.csv,"Version 2","List 2",choreographer,,44,4.826086957,535,45,BOI,-,-,"Please name all of the ways you could use this object. Keep in mind that one object can have many uses. Separate your responses with a comma.",,y,23024,,,4632,20688,,,,"watch, listen to",1
w194865_BG,4d9obi2ou9,"BOI Norms",1,41,2021-02-10T23:06:08-08:00,4.5344800949097,2,"updated stim.csv",Version2.csv,"Version 2","List 2",,,,,,0,Instruct,,,"You will now be asked a few questions about your experience today.",,"Instruct 4",4238,,,-1,-1,,,,,1
