Username,ID,ExperimentName,Session,Trial,Date,TimeDif,"Condition Number","Stimuli File","Order File","Condition Description","Condition Notes",Stimuli*Cue,Stimuli*Answer,Stimuli*Shuffle,"Stimuli*Stimuli Notes",Stimuli*Value,Procedure*Item,"Procedure*Trial Type","Procedure*Max Time","Procedure*Min Time",Procedure*Text,"Procedure*Procedure Notes",Procedure*Shuffle,Response*RT,Response*Response,Response*Accuracy,Response*RTfirst,Response*RTlast,Response*strictAcc,Response*lenientAcc,Response*focus,Response*JOL,Response*Focus
w10004245,kdvydvsuuf,"BOI Norms",1,1,2021-03-22T15:42:31-07:00,13.759293079376,17,"updated stim.csv",Version42.csv,"Version 42","List 42",,,,,,0,Instruct,-,10,"In this section, you will be presented with a series of objects. Please name as many possible uses for this object as you can think of by typing them in the box below each object.",,Instruct1,13496,,,-1,-1,,,,,1
w10004245,kdvydvsuuf,"BOI Norms",1,2,2021-03-22T15:43:02-07:00,30.881093025208,17,"updated stim.csv",Version42.csv,"Version 42","List 42",,,,,,0,Instruct,-,10,"Please keep in mind that a single object will have more than one use. For example, a ball can be thrown or can be bounced or even stepped on. When listing multiple uses for one object, please separate each use with a comma (i.e., thrown, bounced, stepped on)",,Instruct2,30550,,,-1,-1,,,,,1
w10004245,kdvydvsuuf,"BOI Norms",1,3,2021-03-22T15:43:11-07:00,9.2145929336548,17,"updated stim.csv",Version42.csv,"Version 42","List 42",,,,,,0,Instruct,-,-,"Before starting the experiment, you will complete a short practice sesstion. Press ENTER when you are ready to begin.",,Instruct3,8910,,,-1,-1,,,,,1
w10004245,kdvydvsuuf,"BOI Norms",1,4,2021-03-22T15:43:33-07:00,22.336004018784,17,"updated stim.csv",Version42.csv,"Version 42","List 42",spaghetti,,3003,6,2461,3004,BOI,-,-,"Please name all of the ways you could use this object. Keep in mind that one object can have many uses. Separate your responses with a comma.",,n,22027,,,1750,21077,,,,"cooked,ate,saved,heated up, frozen, baked, thrown away",1
w10004245,kdvydvsuuf,"BOI Norms",1,5,2021-03-22T15:43:37-07:00,3.5740051269531,17,"updated stim.csv",Version42.csv,"Version 42","List 42",shortening,,3002,4.92,2358,3003,BOI,-,-,"Please name all of the ways you could use this object. Keep in mind that one object can have many uses. Separate your responses with a comma.",,n,3265,,,-1,-1,,,,,1
w10004245,kdvydvsuuf,"BOI Norms",1,6,2021-03-22T15:43:41-07:00,4.3957498073578,17,"updated stim.csv",Version42.csv,"Version 42","List 42",saucer,,3005,5.777777778,2249,3006,BOI,-,-,"Please name all of the ways you could use this object. Keep in mind that one object can have many uses. Separate your responses with a comma.",,n,4144,,,1803,3675,,,,"pan, cup",1
w10004245,kdvydvsuuf,"BOI Norms",1,7,2021-03-22T15:43:50-07:00,8.4632081985474,17,"updated stim.csv",Version42.csv,"Version 42","List 42",paperwork,,3001,5.625,1866,3002,BOI,-,-,"Please name all of the ways you could use this object. Keep in mind that one object can have many uses. Separate your responses with a comma.",,n,8244,,,1214,3879,,,,"filed, printed",1
w10004245,kdvydvsuuf,"BOI Norms",1,8,2021-03-22T15:43:53-07:00,3.027275800705,17,"updated stim.csv",Version42.csv,"Version 42","List 42",grain,,3004,5.217391304,1143,3005,BOI,-,-,"Please name all of the ways you could use this object. Keep in mind that one object can have many uses. Separate your responses with a comma.",,n,2749,,,2162,2547,,,,cook,1
w10004245,kdvydvsuuf,"BOI Norms",1,9,2021-03-22T15:43:54-07:00,0.90865516662598,17,"updated stim.csv",Version42.csv,"Version 42","List 42",,,,,,0,Instruct,-,-,"You have completed this section. Press ENTER to continue",,"Instruct 5",645,,,-1,-1,,,,,1
w10004245,kdvydvsuuf,"BOI Norms",1,10,2021-03-22T15:43:54-07:00,0.8255410194397,17,"updated stim.csv",Version42.csv,"Version 42","List 42",,,,,,0,Instruct,-,-,"You will now start the full experiment. Press ENTER when you are ready to begin.",,,468,,,-1,-1,,,,,1
w10004245,kdvydvsuuf,"BOI Norms",1,11,2021-03-22T15:44:05-07:00,10.760049819946,17,"updated stim.csv",Version42.csv,"Version 42","List 42",cracker,,1260,5.24,676,1261,BOI,-,-,"Please name all of the ways you could use this object. Keep in mind that one object can have many uses. Separate your responses with a comma.",,y,10338,,,1161,10120,,,,"cooked, ate, broke, bought",1
w10004245,kdvydvsuuf,"BOI Norms",1,12,2021-03-22T15:44:07-07:00,1.9333209991455,17,"updated stim.csv",Version42.csv,"Version 42","List 42",vermouth,,1244,4.318181818,2851,1245,BOI,-,-,"Please name all of the ways you could use this object. Keep in mind that one object can have many uses. Separate your responses with a comma.",,y,1154,,,-1,-1,,,,,1
w10004245,kdvydvsuuf,"BOI Norms",1,13,2021-03-22T15:44:21-07:00,14.332790136337,17,"updated stim.csv",Version42.csv,"Version 42","List 42",tree,,1237,5.84,2772,1238,BOI,-,-,"Please name all of the ways you could use this object. Keep in mind that one object can have many uses. Separate your responses with a comma.",,y,14047,,,3049,13536,,,,"paper, air, oxygen, torn down, grow",1
w10004245,kdvydvsuuf,"BOI Norms",1,14,2021-03-22T15:44:27-07:00,5.9831910133362,17,"updated stim.csv",Version42.csv,"Version 42","List 42",commode,,1259,5.481481481,610,1260,BOI,-,-,"Please name all of the ways you could use this object. Keep in mind that one object can have many uses. Separate your responses with a comma.",,y,5708,,,1631,5494,,,,toilet,1
w10004245,kdvydvsuuf,"BOI Norms",1,15,2021-03-22T15:44:29-07:00,1.3086500167847,17,"updated stim.csv",Version42.csv,"Version 42","List 42",chaplain,,1257,4.72,495,1258,BOI,-,-,"Please name all of the ways you could use this object. Keep in mind that one object can have many uses. Separate your responses with a comma.",,y,1081,,,-1,-1,,,,,1
w10004245,kdvydvsuuf,"BOI Norms",1,16,2021-03-22T15:44:34-07:00,5.4164810180664,17,"updated stim.csv",Version42.csv,"Version 42","List 42",tightrope,,1238,4.590909091,2695,1239,BOI,-,-,"Please name all of the ways you could use this object. Keep in mind that one object can have many uses. Separate your responses with a comma.",,y,5162,,,1770,5010,,,,"walk, balance",1
w10004245,kdvydvsuuf,"BOI Norms",1,17,2021-03-22T15:44:45-07:00,10.877335786819,17,"updated stim.csv",Version42.csv,"Version 42","List 42",tooth,,1241,6.037037037,2731,1242,BOI,-,-,"Please name all of the ways you could use this object. Keep in mind that one object can have many uses. Separate your responses with a comma.",,y,10608,,,1132,10306,,,,"pulled, grow, eat, talk",1
w10004245,kdvydvsuuf,"BOI Norms",1,18,2021-03-22T15:44:59-07:00,13.729820013046,17,"updated stim.csv",Version42.csv,"Version 42","List 42",Donut,,1235,,3003,1236,BOI,-,-,"Please name all of the ways you could use this object. Keep in mind that one object can have many uses. Separate your responses with a comma.",,y,13306,,,1201,11787,,,,"eat, throw, heat, froze, cut",1
w10004245,kdvydvsuuf,"BOI Norms",1,19,2021-03-22T15:45:03-07:00,4.2005860805511,17,"updated stim.csv",Version42.csv,"Version 42","List 42",tomb,,1247,4.739130435,2724,1248,BOI,-,-,"Please name all of the ways you could use this object. Keep in mind that one object can have many uses. Separate your responses with a comma.",,y,3979,,,2476,3174,,,,lay,1
w10004245,kdvydvsuuf,"BOI Norms",1,20,2021-03-22T15:45:10-07:00,7.5395359992981,17,"updated stim.csv",Version42.csv,"Version 42","List 42",carnival,,1232,5.125,434,1233,BOI,-,-,"Please name all of the ways you could use this object. Keep in mind that one object can have many uses. Separate your responses with a comma.",,y,7243,,,1293,3234,,,,fun,1
w10004245,kdvydvsuuf,"BOI Norms",1,21,2021-03-22T15:45:14-07:00,3.3886270523071,17,"updated stim.csv",Version42.csv,"Version 42","List 42",bootlace,,1236,5.64,283,1237,BOI,-,-,"Please name all of the ways you could use this object. Keep in mind that one object can have many uses. Separate your responses with a comma.",,y,2971,,,1269,2477,,,,tie,1
w10004245,kdvydvsuuf,"BOI Norms",1,22,2021-03-22T15:45:20-07:00,5.8513600826263,17,"updated stim.csv",Version42.csv,"Version 42","List 42",ashes,,1240,4.862068966,83,1241,BOI,-,-,"Please name all of the ways you could use this object. Keep in mind that one object can have many uses. Separate your responses with a comma.",,y,5430,,,1234,5046,,,,"spread, kept",1
w10004245,kdvydvsuuf,"BOI Norms",1,23,2021-03-22T15:45:22-07:00,2.6332378387451,17,"updated stim.csv",Version42.csv,"Version 42","List 42",vendor,,1242,5,2847,1243,BOI,-,-,"Please name all of the ways you could use this object. Keep in mind that one object can have many uses. Separate your responses with a comma.",,y,2261,,,-1,-1,,,,,1
w10004245,kdvydvsuuf,"BOI Norms",1,24,2021-03-22T15:45:26-07:00,3.9932930469513,17,"updated stim.csv",Version42.csv,"Version 42","List 42",antihistamine,,1248,5.260869565,49,1249,BOI,-,-,"Please name all of the ways you could use this object. Keep in mind that one object can have many uses. Separate your responses with a comma.",,y,3733,,,2066,3587,,,,"medicin e",1
w10004245,kdvydvsuuf,"BOI Norms",1,25,2021-03-22T15:45:30-07:00,3.6873600482941,17,"updated stim.csv",Version42.csv,"Version 42","List 42",deerskin,,1258,4.826086957,766,1259,BOI,-,-,"Please name all of the ways you could use this object. Keep in mind that one object can have many uses. Separate your responses with a comma.",,y,3313,,,1334,3124,,,,"eat, wear",1
w10004245,kdvydvsuuf,"BOI Norms",1,26,2021-03-22T15:45:34-07:00,3.9938099384308,17,"updated stim.csv",Version42.csv,"Version 42","List 42",fluid,,1239,4.923076923,1018,1240,BOI,-,-,"Please name all of the ways you could use this object. Keep in mind that one object can have many uses. Separate your responses with a comma.",,y,3732,,,1164,3374,,,,drink,1
w10004245,kdvydvsuuf,"BOI Norms",1,27,2021-03-22T15:45:38-07:00,4.0965070724487,17,"updated stim.csv",Version42.csv,"Version 42","List 42",crypt,,1254,4.541666667,718,1255,BOI,-,-,"Please name all of the ways you could use this object. Keep in mind that one object can have many uses. Separate your responses with a comma.",,y,3795,,,-1,-1,,,,,1
w10004245,kdvydvsuuf,"BOI Norms",1,28,2021-03-22T15:45:47-07:00,8.5556478500366,17,"updated stim.csv",Version42.csv,"Version 42","List 42",ramp,,1253,4.666666667,2136,1254,BOI,-,-,"Please name all of the ways you could use this object. Keep in mind that one object can have many uses. Separate your responses with a comma.",,y,8350,,,4298,7907,,,,transportation,1
w10004245,kdvydvsuuf,"BOI Norms",1,29,2021-03-22T15:45:54-07:00,7.0087940692902,17,"updated stim.csv",Version42.csv,"Version 42","List 42",envelope,,1252,5.64,913,1253,BOI,-,-,"Please name all of the ways you could use this object. Keep in mind that one object can have many uses. Separate your responses with a comma.",,y,6727,,,1303,6319,,,,"open, write, seal",1
w10004245,kdvydvsuuf,"BOI Norms",1,30,2021-03-22T15:46:01-07:00,7.5832669734955,17,"updated stim.csv",Version42.csv,"Version 42","List 42",fossil,,1245,4.925925926,1049,1246,BOI,-,-,"Please name all of the ways you could use this object. Keep in mind that one object can have many uses. Separate your responses with a comma.",,y,7234,,,1145,7044,,,,"found, lost, examined",1
w10004245,kdvydvsuuf,"BOI Norms",1,31,2021-03-22T15:46:17-07:00,15.779881954193,17,"updated stim.csv",Version42.csv,"Version 42","List 42",cornfield,,1234,4.739130435,646,1235,BOI,-,-,"Please name all of the ways you could use this object. Keep in mind that one object can have many uses. Separate your responses with a comma.",,y,15527,,,6387,15365,,,,"walk, grow, plant, eat",1
w10004245,kdvydvsuuf,"BOI Norms",1,32,2021-03-22T15:46:23-07:00,6.2665390968323,17,"updated stim.csv",Version42.csv,"Version 42","List 42",moneybags,,1231,5,1678,1232,BOI,-,-,"Please name all of the ways you could use this object. Keep in mind that one object can have many uses. Separate your responses with a comma.",,y,5949,,,1287,5648,,,,"keep, save, give away",1
w10004245,kdvydvsuuf,"BOI Norms",1,33,2021-03-22T15:46:28-07:00,4.290020942688,17,"updated stim.csv",Version42.csv,"Version 42","List 42",woman,,1243,5.333333333,2955,1244,BOI,-,-,"Please name all of the ways you could use this object. Keep in mind that one object can have many uses. Separate your responses with a comma.",,y,4048,,,1395,3830,,,,sex,1
w10004245,kdvydvsuuf,"BOI Norms",1,34,2021-03-22T15:46:33-07:00,5.5036449432373,17,"updated stim.csv",Version42.csv,"Version 42","List 42",hairbrush,,1233,6.48,1210,1234,BOI,-,-,"Please name all of the ways you could use this object. Keep in mind that one object can have many uses. Separate your responses with a comma.",,y,5241,,,1996,4620,,,,brush,1
w10004245,kdvydvsuuf,"BOI Norms",1,35,2021-03-22T15:46:43-07:00,10.342881202698,17,"updated stim.csv",Version42.csv,"Version 42","List 42",flashlight,,1251,5.869565217,1002,1252,BOI,-,-,"Please name all of the ways you could use this object. Keep in mind that one object can have many uses. Separate your responses with a comma.",,y,10032,,,2798,9623,,,,light,1
w10004245,kdvydvsuuf,"BOI Norms",1,36,2021-03-22T15:46:45-07:00,1.3320999145508,17,"updated stim.csv",Version42.csv,"Version 42","List 42",beefcake,,1249,4.458333333,190,1250,BOI,-,-,"Please name all of the ways you could use this object. Keep in mind that one object can have many uses. Separate your responses with a comma.",,y,1052,,,-1,-1,,,,,1
w10004245,kdvydvsuuf,"BOI Norms",1,37,2021-03-22T15:46:48-07:00,3.6054658889771,17,"updated stim.csv",Version42.csv,"Version 42","List 42",portfolio,,1256,4.8,2039,1257,BOI,-,-,"Please name all of the ways you could use this object. Keep in mind that one object can have many uses. Separate your responses with a comma.",,y,3347,,,2672,3089,,,,keep,1
w10004245,kdvydvsuuf,"BOI Norms",1,38,2021-03-22T15:46:51-07:00,2.5379819869995,17,"updated stim.csv",Version42.csv,"Version 42","List 42",stallion,,1246,4.88,2505,1247,BOI,-,-,"Please name all of the ways you could use this object. Keep in mind that one object can have many uses. Separate your responses with a comma.",,y,2305,,,1668,2141,,,,ride,1
w10004245,kdvydvsuuf,"BOI Norms",1,39,2021-03-22T15:46:54-07:00,3.0972301959991,17,"updated stim.csv",Version42.csv,"Version 42","List 42",label,,1250,5.375,1442,1251,BOI,-,-,"Please name all of the ways you could use this object. Keep in mind that one object can have many uses. Separate your responses with a comma.",,y,2845,,,2161,2623,,,,keep,1
w10004245,kdvydvsuuf,"BOI Norms",1,40,2021-03-22T15:46:57-07:00,2.6406419277191,17,"updated stim.csv",Version42.csv,"Version 42","List 42",grandparent,,1255,5.56,1152,1256,BOI,-,-,"Please name all of the ways you could use this object. Keep in mind that one object can have many uses. Separate your responses with a comma.",,y,2349,,,1610,2073,,,,love,1
w10004245,kdvydvsuuf,"BOI Norms",1,41,2021-03-22T15:46:58-07:00,1.1601939201355,17,"updated stim.csv",Version42.csv,"Version 42","List 42",,,,,,0,Instruct,,,"You will now be asked a few questions about your experience today.",,"Instruct 4",907,,,-1,-1,,,,,1
