Username,ID,ExperimentName,Session,Trial,Date,TimeDif,"Condition Number","Stimuli File","Order File","Condition Description","Condition Notes",Stimuli*Cue,Stimuli*Answer,Stimuli*Shuffle,"Stimuli*Stimuli Notes",Stimuli*Value,Stimuli*Rand,Procedure*Item,"Procedure*Trial Type","Procedure*Max Time","Procedure*Min Time",Procedure*Text,"Procedure*Procedure Notes",Procedure*Shuffle,Response*RT,Response*Response,Response*Accuracy,Response*RTfirst,Response*RTlast,Response*strictAcc,Response*lenientAcc,Response*focus,Response*JOL,Response*Focus
61718775a3668e2707f26d98,onwwq4ozvr,"Affordance Norms_Prolific",1,1,2023-01-06T19:48:28+00:00,13.737486839294,75,"updated stim.csv",Version75.csv,"Version 75","List 75",,,,,,,0,Instruct,-,10,"In this section, you will be presented with a series of objects. Please name as many possible uses for this object as you can think of by typing them in the box below each object.",,Instruct1,13526,,,-1,-1,,,,,1
61718775a3668e2707f26d98,onwwq4ozvr,"Affordance Norms_Prolific",1,2,2023-01-06T19:48:46+00:00,17.562604188919,75,"updated stim.csv",Version75.csv,"Version 75","List 75",,,,,,,0,Instruct,-,10,"Please keep in mind that a single object will have more than one use. For example, a ball can be thrown or can be bounced or even stepped on. When listing multiple uses for one object, please separate each use with a comma (i.e., thrown, bounced, stepped on)",,Instruct2,17204,,,-1,-1,,,,,1
61718775a3668e2707f26d98,onwwq4ozvr,"Affordance Norms_Prolific",1,3,2023-01-06T19:48:52+00:00,6.6946179866791,75,"updated stim.csv",Version75.csv,"Version 75","List 75",,,,,,,0,Instruct,-,-,"Before starting the experiment, you will complete a short practice sesstion. Press ENTER when you are ready to begin.",,Instruct3,6367,,,-1,-1,,,,,1
61718775a3668e2707f26d98,onwwq4ozvr,"Affordance Norms_Prolific",1,4,2023-01-06T19:50:34+00:00,102.14809083939,75,"updated stim.csv",Version75.csv,"Version 75","List 75",paperwork,,3001,5.625,1866,0.124284162,3002,BOI,-,-,"Please name all of the ways you could use this object. Keep in mind that one object can have many uses. Separate your responses with a comma.",,n,101505,,,-1,-1,,,,"Read,document information, fill in,throw in bin,photocopy,",1
61718775a3668e2707f26d98,onwwq4ozvr,"Affordance Norms_Prolific",1,5,2023-01-06T19:51:38+00:00,63.255976200104,75,"updated stim.csv",Version75.csv,"Version 75","List 75",grain,,3004,5.217391304,1143,0.226863762,3005,BOI,-,-,"Please name all of the ways you could use this object. Keep in mind that one object can have many uses. Separate your responses with a comma.",,n,62857,,,-1,-1,,,,"Grind,store,sell,grow,farm,cut,package,",1
61718775a3668e2707f26d98,onwwq4ozvr,"Affordance Norms_Prolific",1,6,2023-01-06T19:52:27+00:00,49.493675947189,75,"updated stim.csv",Version75.csv,"Version 75","List 75",saucer,,3005,5.777777778,2249,0.304808074,3006,BOI,-,-,"Please name all of the ways you could use this object. Keep in mind that one object can have many uses. Separate your responses with a comma.",,n,48793,,,-1,-1,,,,"Wash,break,put cup on,stack,",1
61718775a3668e2707f26d98,onwwq4ozvr,"Affordance Norms_Prolific",1,7,2023-01-06T19:53:19+00:00,52.055835008621,75,"updated stim.csv",Version75.csv,"Version 75","List 75",spaghetti,,3003,6,2461,0.090379998,3004,BOI,-,-,"Please name all of the ways you could use this object. Keep in mind that one object can have many uses. Separate your responses with a comma.",,n,51310,,,-1,-1,,,,"Cook,break,boil,eat,store,purchase,",1
61718775a3668e2707f26d98,onwwq4ozvr,"Affordance Norms_Prolific",1,8,2023-01-06T19:53:50+00:00,31.124155044556,75,"updated stim.csv",Version75.csv,"Version 75","List 75",shortening,,3002,4.92,2358,0.604328482,3003,BOI,-,-,"Please name all of the ways you could use this object. Keep in mind that one object can have many uses. Separate your responses with a comma.",,n,29795,,,-1,-1,,,,"Cut,change",1
61718775a3668e2707f26d98,onwwq4ozvr,"Affordance Norms_Prolific",1,9,2023-01-06T19:53:53+00:00,2.9053559303284,75,"updated stim.csv",Version75.csv,"Version 75","List 75",,,,,,,0,Instruct,-,-,"You have completed this section. Press ENTER to continue",,"Instruct 5",2513,,,-1,-1,,,,,1
61718775a3668e2707f26d98,onwwq4ozvr,"Affordance Norms_Prolific",1,10,2023-01-06T19:53:56+00:00,2.6954929828644,75,"updated stim.csv",Version75.csv,"Version 75","List 75",,,,,,,0,Instruct,-,-,"You will now start the full experiment. Press ENTER when you are ready to begin.",,,2244,,,-1,-1,,,,,1
61718775a3668e2707f26d98,onwwq4ozvr,"Affordance Norms_Prolific",1,11,2023-01-06T19:55:15+00:00,78.810213088989,75,"updated stim.csv",Version75.csv,"Version 75","List 75",lavatory,,2249,5.620689655,1473,0.949063759,2250,BOI,-,-,"Please name all of the ways you could use this object. Keep in mind that one object can have many uses. Separate your responses with a comma.",,y,78454,,,-1,-1,,,,"Sit on,clean,flush,close lid,",1
61718775a3668e2707f26d98,onwwq4ozvr,"Affordance Norms_Prolific",1,12,2023-01-06T19:56:38+00:00,83.03046298027,75,"updated stim.csv",Version75.csv,"Version 75","List 75",quiche,,2233,5.727272727,2114,0.975786423,2234,BOI,-,-,"Please name all of the ways you could use this object. Keep in mind that one object can have many uses. Separate your responses with a comma.",,y,82235,,,-1,-1,,,,"Cook,make,put on plate,share,",1
61718775a3668e2707f26d98,onwwq4ozvr,"Affordance Norms_Prolific",1,13,2023-01-06T19:57:50+00:00,72.230360031128,75,"updated stim.csv",Version75.csv,"Version 75","List 75",model,,2235,5.086956522,1674,0.968299986,2236,BOI,-,-,"Please name all of the ways you could use this object. Keep in mind that one object can have many uses. Separate your responses with a comma.",,y,71815,,,-1,-1,,,,"View,examine,paint, make, ",1
61718775a3668e2707f26d98,onwwq4ozvr,"Affordance Norms_Prolific",1,14,2023-01-06T19:58:31+00:00,41.115867853165,75,"updated stim.csv",Version75.csv,"Version 75","List 75",waxwork,,2228,4.3,2913,0.473545104,2229,BOI,-,-,"Please name all of the ways you could use this object. Keep in mind that one object can have many uses. Separate your responses with a comma.",,y,40394,,,-1,-1,,,,"View,admire,discuss",1
61718775a3668e2707f26d98,onwwq4ozvr,"Affordance Norms_Prolific",1,15,2023-01-06T19:59:28+00:00,57.236661911011,75,"updated stim.csv",Version75.csv,"Version 75","List 75",denim,,2238,5.416666667,773,0.706684559,2239,BOI,-,-,"Please name all of the ways you could use this object. Keep in mind that one object can have many uses. Separate your responses with a comma.",,y,56358,,,-1,-1,,,,"Make clothes,feel,sew,dye,wear,give as gift,",1
61718775a3668e2707f26d98,onwwq4ozvr,"Affordance Norms_Prolific",1,16,2023-01-06T20:00:43+00:00,74.504301071167,75,"updated stim.csv",Version75.csv,"Version 75","List 75",mousetrap,,2226,4.916666667,1702,0.936232758,2227,BOI,-,-,"Please name all of the ways you could use this object. Keep in mind that one object can have many uses. Separate your responses with a comma.",,y,74091,,,-1,-1,,,,"Catch vermin, put cheese on,buy,keep in cupboard,",1
61718775a3668e2707f26d98,onwwq4ozvr,"Affordance Norms_Prolific",1,17,2023-01-06T20:01:31+00:00,47.762015104294,75,"updated stim.csv",Version75.csv,"Version 75","List 75",anchor,,2232,5.739130435,39,0.311526843,2233,BOI,-,-,"Please name all of the ways you could use this object. Keep in mind that one object can have many uses. Separate your responses with a comma.",,y,47040,,,-1,-1,,,,"Feel,secure boat,throw overboard, clean,",1
61718775a3668e2707f26d98,onwwq4ozvr,"Affordance Norms_Prolific",1,18,2023-01-06T20:02:10+00:00,39.62880897522,75,"updated stim.csv",Version75.csv,"Version 75","List 75",whisk,,2247,6,2927,0.826381818,2248,BOI,-,-,"Please name all of the ways you could use this object. Keep in mind that one object can have many uses. Separate your responses with a comma.",,y,38824,,,-1,-1,,,,"Beat eggs, store in kitchen, ",1
61718775a3668e2707f26d98,onwwq4ozvr,"Affordance Norms_Prolific",1,19,2023-01-06T20:03:18+00:00,67.507272958755,75,"updated stim.csv",Version75.csv,"Version 75","List 75",rattle,,2248,4.409090909,2140,0.861575847,2249,BOI,-,-,"Please name all of the ways you could use this object. Keep in mind that one object can have many uses. Separate your responses with a comma.",,y,66995,,,-1,-1,,,,"Shake, play with,listen to,give as gift,",1
61718775a3668e2707f26d98,onwwq4ozvr,"Affordance Norms_Prolific",1,20,2023-01-06T20:04:02+00:00,44.311752080917,75,"updated stim.csv",Version75.csv,"Version 75","List 75",kindle,,2243,4.4,1420,0.105302612,2244,BOI,-,-,"Please name all of the ways you could use this object. Keep in mind that one object can have many uses. Separate your responses with a comma.",,y,43591,,,-1,-1,,,,"Read,choose books,carry,",1
61718775a3668e2707f26d98,onwwq4ozvr,"Affordance Norms_Prolific",1,21,2023-01-06T20:05:22+00:00,79.611202955246,75,"updated stim.csv",Version75.csv,"Version 75","List 75",primate,,2236,4.375,2063,0.094699967,2237,BOI,-,-,"Please name all of the ways you could use this object. Keep in mind that one object can have many uses. Separate your responses with a comma.",,y,79103,,,-1,-1,,,," View,feed,care for,feed, ",1
61718775a3668e2707f26d98,onwwq4ozvr,"Affordance Norms_Prolific",1,22,2023-01-06T20:06:00+00:00,37.947448968887,75,"updated stim.csv",Version75.csv,"Version 75","List 75",fudge,,2224,5.68,1063,0.411338697,2225,BOI,-,-,"Please name all of the ways you could use this object. Keep in mind that one object can have many uses. Separate your responses with a comma.",,y,37197,,,-1,-1,,,,"Eat,share,purchase,smell,",1
61718775a3668e2707f26d98,onwwq4ozvr,"Affordance Norms_Prolific",1,23,2023-01-06T20:06:36+00:00,36.659795045853,75,"updated stim.csv",Version75.csv,"Version 75","List 75",metalworker,,2230,4.8,1651,0.049536944,2231,BOI,-,-,"Please name all of the ways you could use this object. Keep in mind that one object can have many uses. Separate your responses with a comma.",,y,35834,,,-1,-1,,,,"Welding, make things,",1
61718775a3668e2707f26d98,onwwq4ozvr,"Affordance Norms_Prolific",1,24,2023-01-06T20:07:42+00:00,65.980366945267,75,"updated stim.csv",Version75.csv,"Version 75","List 75",vehicle,,2239,6.173913043,2843,0.233798134,2240,BOI,-,-,"Please name all of the ways you could use this object. Keep in mind that one object can have many uses. Separate your responses with a comma.",,y,65458,,,-1,-1,,,,"Drive, give friends lifts,work on engine,",1
61718775a3668e2707f26d98,onwwq4ozvr,"Affordance Norms_Prolific",1,25,2023-01-06T20:08:02+00:00,19.930490016937,75,"updated stim.csv",Version75.csv,"Version 75","List 75",shinbone,,2222,4.826086957,2340,0.671887172,2223,BOI,-,-,"Please name all of the ways you could use this object. Keep in mind that one object can have many uses. Separate your responses with a comma.",,y,19153,,,-1,-1,,,,"Walk,",1
61718775a3668e2707f26d98,onwwq4ozvr,"Affordance Norms_Prolific",1,26,2023-01-06T20:08:59+00:00,56.63627910614,75,"updated stim.csv",Version75.csv,"Version 75","List 75",ingredients,,2227,4.958333333,1355,0.538356536,2228,BOI,-,-,"Please name all of the ways you could use this object. Keep in mind that one object can have many uses. Separate your responses with a comma.",,y,55774,,,-1,-1,,,,"Keep in cupboard, make food,buy from shop,",1
61718775a3668e2707f26d98,onwwq4ozvr,"Affordance Norms_Prolific",1,27,2023-01-06T20:09:22+00:00,22.728040933609,75,"updated stim.csv",Version75.csv,"Version 75","List 75",lice,,2229,5,1500,0.826783221,2230,BOI,-,-,"Please name all of the ways you could use this object. Keep in mind that one object can have many uses. Separate your responses with a comma.",,y,22036,,,-1,-1,,,,"No idea",1
61718775a3668e2707f26d98,onwwq4ozvr,"Affordance Norms_Prolific",1,28,2023-01-06T20:09:53+00:00,31.436509847641,75,"updated stim.csv",Version75.csv,"Version 75","List 75",laundry,,2221,6.208333333,1472,0.508175593,2222,BOI,-,-,"Please name all of the ways you could use this object. Keep in mind that one object can have many uses. Separate your responses with a comma.",,y,30761,,,-1,-1,,,,"Keep clothes clean, ",1
61718775a3668e2707f26d98,onwwq4ozvr,"Affordance Norms_Prolific",1,29,2023-01-06T20:10:58+00:00,65.348869085312,75,"updated stim.csv",Version75.csv,"Version 75","List 75",substance,,2240,4.47826087,2576,0.307850292,2241,BOI,-,-,"Please name all of the ways you could use this object. Keep in mind that one object can have many uses. Separate your responses with a comma.",,y,64923,,,-1,-1,,,,"Keep,make something,give to someone,",1
61718775a3668e2707f26d98,onwwq4ozvr,"Affordance Norms_Prolific",1,30,2023-01-06T20:12:10+00:00,71.434571027756,75,"updated stim.csv",Version75.csv,"Version 75","List 75",pottery,,2241,5.458333333,2050,0.992907528,2242,BOI,-,-,"Please name all of the ways you could use this object. Keep in mind that one object can have many uses. Separate your responses with a comma.",,y,71007,,,-1,-1,,,,"Smash,display,give as gift,paint, ",1
61718775a3668e2707f26d98,onwwq4ozvr,"Affordance Norms_Prolific",1,31,2023-01-06T20:12:29+00:00,19.177223920822,75,"updated stim.csv",Version75.csv,"Version 75","List 75",moth,,2225,4.84,1690,0.901252834,2226,BOI,-,-,"Please name all of the ways you could use this object. Keep in mind that one object can have many uses. Separate your responses with a comma.",,y,18423,,,-1,-1,,,,"Swat,watch,",1
61718775a3668e2707f26d98,onwwq4ozvr,"Affordance Norms_Prolific",1,32,2023-01-06T20:13:19+00:00,50.465447187424,75,"updated stim.csv",Version75.csv,"Version 75","List 75",shotgun,,2234,5.826086957,2361,0.617642645,2235,BOI,-,-,"Please name all of the ways you could use this object. Keep in mind that one object can have many uses. Separate your responses with a comma.",,y,49714,,,-1,-1,,,,"Keep for security,shoot target, threaten someone,",1
61718775a3668e2707f26d98,onwwq4ozvr,"Affordance Norms_Prolific",1,33,2023-01-06T20:13:35+00:00,15.031478881836,75,"updated stim.csv",Version75.csv,"Version 75","List 75",cookhouse,,2237,4.423076923,632,0.061901317,2238,BOI,-,-,"Please name all of the ways you could use this object. Keep in mind that one object can have many uses. Separate your responses with a comma.",,y,14664,,,-1,-1,,,,"Make a meL",1
61718775a3668e2707f26d98,onwwq4ozvr,"Affordance Norms_Prolific",1,34,2023-01-06T20:14:14+00:00,39.970679998398,75,"updated stim.csv",Version75.csv,"Version 75","List 75",veterinarian,,2231,5.074074074,2854,0.887513868,2232,BOI,-,-,"Please name all of the ways you could use this object. Keep in mind that one object can have many uses. Separate your responses with a comma.",,y,39249,,,-1,-1,,,,"Question them,learn from,",1
61718775a3668e2707f26d98,onwwq4ozvr,"Affordance Norms_Prolific",1,35,2023-01-06T20:14:59+00:00,44.71994304657,75,"updated stim.csv",Version75.csv,"Version 75","List 75",motorbike,,2223,6.347826087,1694,0.109641369,2224,BOI,-,-,"Please name all of the ways you could use this object. Keep in mind that one object can have many uses. Separate your responses with a comma.",,y,43979,,,-1,-1,,,,"Admire,ride,polish,work on,",1
61718775a3668e2707f26d98,onwwq4ozvr,"Affordance Norms_Prolific",1,36,2023-01-06T20:15:13+00:00,13.966131925583,75,"updated stim.csv",Version75.csv,"Version 75","List 75",washboard,,2250,5.208333333,2896,0.808890696,2251,BOI,-,-,"Please name all of the ways you could use this object. Keep in mind that one object can have many uses. Separate your responses with a comma.",,y,13533,,,-1,-1,,,,"Clean clothes,",1
61718775a3668e2707f26d98,onwwq4ozvr,"Affordance Norms_Prolific",1,37,2023-01-06T20:16:03+00:00,50.209497928619,75,"updated stim.csv",Version75.csv,"Version 75","List 75",wig,,2242,5.913043478,2935,0.377618938,2243,BOI,-,-,"Please name all of the ways you could use this object. Keep in mind that one object can have many uses. Separate your responses with a comma.",,y,49250,,,-1,-1,,,,"Wear,style it,sell it, put clips in,",1
61718775a3668e2707f26d98,onwwq4ozvr,"Affordance Norms_Prolific",1,38,2023-01-06T20:16:12+00:00,8.1444330215454,75,"updated stim.csv",Version75.csv,"Version 75","List 75",housefly,,2245,4.541666667,1330,0.698066411,2246,BOI,-,-,"Please name all of the ways you could use this object. Keep in mind that one object can have many uses. Separate your responses with a comma.",,y,7680,,,-1,-1,,,,"Swat,",1
61718775a3668e2707f26d98,onwwq4ozvr,"Affordance Norms_Prolific",1,39,2023-01-06T20:16:54+00:00,42.618786096573,75,"updated stim.csv",Version75.csv,"Version 75","List 75",doornail,,2244,5.4,827,0.764994998,2245,BOI,-,-,"Please name all of the ways you could use this object. Keep in mind that one object can have many uses. Separate your responses with a comma.",,y,41926,,,-1,-1,,,,"Secure 2 pieces of wood, make a hole ",1
61718775a3668e2707f26d98,onwwq4ozvr,"Affordance Norms_Prolific",1,40,2023-01-06T20:17:36+00:00,42.173887968063,75,"updated stim.csv",Version75.csv,"Version 75","List 75",cheddar,,2246,5.291666667,502,0.021707365,2247,BOI,-,-,"Please name all of the ways you could use this object. Keep in mind that one object can have many uses. Separate your responses with a comma.",,y,41512,,,-1,-1,,,,"Grate,melt,eat,cut up,",1
61718775a3668e2707f26d98,onwwq4ozvr,"Affordance Norms_Prolific",1,41,2023-01-06T20:17:39+00:00,2.7834489345551,75,"updated stim.csv",Version75.csv,"Version 75","List 75",,,,,,,0,Instruct,,,"You will now be asked a few questions about your experience today.",,"Instruct 4",2344,,,-1,-1,,,,,1
