Username,ID,ExperimentName,Session,Trial,Date,TimeDif,"Condition Number","Stimuli File","Order File","Condition Description","Condition Notes",Stimuli*Cue,Stimuli*Answer,Stimuli*Shuffle,"Stimuli*Stimuli Notes",Stimuli*Value,Stimuli*Rand,Procedure*Item,"Procedure*Trial Type","Procedure*Max Time","Procedure*Min Time",Procedure*Text,"Procedure*Procedure Notes",Procedure*Shuffle,Response*RT,Response*Response,Response*Accuracy,Response*RTfirst,Response*RTlast,Response*strictAcc,Response*lenientAcc,Response*focus,Response*JOL,Response*Focus
5dae162804bd9b0016966f8c,ksqxekamfc,"Affordance Norms_Prolific",1,1,2023-01-06T19:43:40+00:00,11.359789133072,63,"updated stim.csv",Version63.csv,"Version 63","List 63",,,,,,,0,Instruct,-,10,"In this section, you will be presented with a series of objects. Please name as many possible uses for this object as you can think of by typing them in the box below each object.",,Instruct1,10795,,,-1,-1,,,,,1
5dae162804bd9b0016966f8c,ksqxekamfc,"Affordance Norms_Prolific",1,2,2023-01-06T19:43:53+00:00,12.832959890366,63,"updated stim.csv",Version63.csv,"Version 63","List 63",,,,,,,0,Instruct,-,10,"Please keep in mind that a single object will have more than one use. For example, a ball can be thrown or can be bounced or even stepped on. When listing multiple uses for one object, please separate each use with a comma (i.e., thrown, bounced, stepped on)",,Instruct2,12103,,,-1,-1,,,,,1
5dae162804bd9b0016966f8c,ksqxekamfc,"Affordance Norms_Prolific",1,3,2023-01-06T19:43:59+00:00,6.1674220561981,63,"updated stim.csv",Version63.csv,"Version 63","List 63",,,,,,,0,Instruct,-,-,"Before starting the experiment, you will complete a short practice sesstion. Press ENTER when you are ready to begin.",,Instruct3,5452,,,-1,-1,,,,,1
5dae162804bd9b0016966f8c,ksqxekamfc,"Affordance Norms_Prolific",1,4,2023-01-06T19:44:07+00:00,7.7912240028381,63,"updated stim.csv",Version63.csv,"Version 63","List 63",grain,,3004,5.217391304,1143,0.226863762,3005,BOI,-,-,"Please name all of the ways you could use this object. Keep in mind that one object can have many uses. Separate your responses with a comma.",,n,7077,,,2890,6322,,,,"Eaten, milled",1
5dae162804bd9b0016966f8c,ksqxekamfc,"Affordance Norms_Prolific",1,5,2023-01-06T19:44:26+00:00,19.548539876938,63,"updated stim.csv",Version63.csv,"Version 63","List 63",paperwork,,3001,5.625,1866,0.124284162,3002,BOI,-,-,"Please name all of the ways you could use this object. Keep in mind that one object can have many uses. Separate your responses with a comma.",,n,18848,,,5209,18066,,,,"Written on, read from, scribbled on",1
5dae162804bd9b0016966f8c,ksqxekamfc,"Affordance Norms_Prolific",1,6,2023-01-06T19:44:42+00:00,15.528371095657,63,"updated stim.csv",Version63.csv,"Version 63","List 63",saucer,,3005,5.777777778,2249,0.304808074,3006,BOI,-,-,"Please name all of the ways you could use this object. Keep in mind that one object can have many uses. Separate your responses with a comma.",,n,14853,,,4416,11238,,,,"Hold cup, cake plate",1
5dae162804bd9b0016966f8c,ksqxekamfc,"Affordance Norms_Prolific",1,7,2023-01-06T19:44:55+00:00,13.387054920197,63,"updated stim.csv",Version63.csv,"Version 63","List 63",shortening,,3002,4.92,2358,0.604328482,3003,BOI,-,-,"Please name all of the ways you could use this object. Keep in mind that one object can have many uses. Separate your responses with a comma.",,n,12704,,,6983,11918,,,,"Make cake, biscuits",1
5dae162804bd9b0016966f8c,ksqxekamfc,"Affordance Norms_Prolific",1,8,2023-01-06T19:45:08+00:00,13.276787996292,63,"updated stim.csv",Version63.csv,"Version 63","List 63",spaghetti,,3003,6,2461,0.090379998,3004,BOI,-,-,"Please name all of the ways you could use this object. Keep in mind that one object can have many uses. Separate your responses with a comma.",,n,12513,,,2709,6217,,,,"Eaten, cooked,",1
5dae162804bd9b0016966f8c,ksqxekamfc,"Affordance Norms_Prolific",1,9,2023-01-06T19:45:10+00:00,2.0038940906525,63,"updated stim.csv",Version63.csv,"Version 63","List 63",,,,,,,0,Instruct,-,-,"You have completed this section. Press ENTER to continue",,"Instruct 5",1612,,,-1,-1,,,,,1
5dae162804bd9b0016966f8c,ksqxekamfc,"Affordance Norms_Prolific",1,10,2023-01-06T19:45:12+00:00,1.9991040229797,63,"updated stim.csv",Version63.csv,"Version 63","List 63",,,,,,,0,Instruct,-,-,"You will now start the full experiment. Press ENTER when you are ready to begin.",,,1616,,,-1,-1,,,,,1
5dae162804bd9b0016966f8c,ksqxekamfc,"Affordance Norms_Prolific",1,11,2023-01-06T19:45:30+00:00,17.362400054932,63,"updated stim.csv",Version63.csv,"Version 63","List 63",him,,1879,4.47826087,1289,0.333565692,1880,BOI,-,-,"Please name all of the ways you could use this object. Keep in mind that one object can have many uses. Separate your responses with a comma.",,y,16586,,,5584,15744,,,,"Marry, befreind",1
5dae162804bd9b0016966f8c,ksqxekamfc,"Affordance Norms_Prolific",1,12,2023-01-06T19:45:38+00:00,8.7369909286499,63,"updated stim.csv",Version63.csv,"Version 63","List 63",headpiece,,1877,5.347826087,1270,0.779046176,1878,BOI,-,-,"Please name all of the ways you could use this object. Keep in mind that one object can have many uses. Separate your responses with a comma.",,y,7982,,,2768,7265,,,,"Wear, looknat",1
5dae162804bd9b0016966f8c,ksqxekamfc,"Affordance Norms_Prolific",1,13,2023-01-06T19:45:46+00:00,7.6769649982452,63,"updated stim.csv",Version63.csv,"Version 63","List 63",margarine,,1880,5.56,1604,0.934081327,1881,BOI,-,-,"Please name all of the ways you could use this object. Keep in mind that one object can have many uses. Separate your responses with a comma.",,y,6969,,,2532,6257,,,,"Seat, melt",1
5dae162804bd9b0016966f8c,ksqxekamfc,"Affordance Norms_Prolific",1,14,2023-01-06T19:46:01+00:00,14.504972934723,63,"updated stim.csv",Version63.csv,"Version 63","List 63",hamper,,1869,4.4,1225,0.499824986,1870,BOI,-,-,"Please name all of the ways you could use this object. Keep in mind that one object can have many uses. Separate your responses with a comma.",,y,13806,,,7251,13137,,,,"Storage, decorate",1
5dae162804bd9b0016966f8c,ksqxekamfc,"Affordance Norms_Prolific",1,15,2023-01-06T19:46:08+00:00,7.6387579441071,63,"updated stim.csv",Version63.csv,"Version 63","List 63",calculator,,1878,6.24,400,0.593522466,1879,BOI,-,-,"Please name all of the ways you could use this object. Keep in mind that one object can have many uses. Separate your responses with a comma.",,y,6928,,,3210,6191,,,,Calculate,1
5dae162804bd9b0016966f8c,ksqxekamfc,"Affordance Norms_Prolific",1,16,2023-01-06T19:46:18+00:00,9.7213289737701,63,"updated stim.csv",Version63.csv,"Version 63","List 63",chevy,,1889,4.956521739,515,0.639686851,1890,BOI,-,-,"Please name all of the ways you could use this object. Keep in mind that one object can have many uses. Separate your responses with a comma.",,y,9010,,,3199,7753,,,,"Drive, buy",1
5dae162804bd9b0016966f8c,ksqxekamfc,"Affordance Norms_Prolific",1,17,2023-01-06T19:46:25+00:00,6.8770341873169,63,"updated stim.csv",Version63.csv,"Version 63","List 63",pepperoni,,1882,5.875,1924,0.806387538,1883,BOI,-,-,"Please name all of the ways you could use this object. Keep in mind that one object can have many uses. Separate your responses with a comma.",,y,6219,,,2316,5444,,,,"Eat, cook with",1
5dae162804bd9b0016966f8c,ksqxekamfc,"Affordance Norms_Prolific",1,18,2023-01-06T19:46:33+00:00,7.8013999462128,63,"updated stim.csv",Version63.csv,"Version 63","List 63",hardwood,,1876,5.076923077,1250,0.122818434,1877,BOI,-,-,"Please name all of the ways you could use this object. Keep in mind that one object can have many uses. Separate your responses with a comma.",,y,7098,,,3213,6202,,,,"Cut, stand on",1
5dae162804bd9b0016966f8c,ksqxekamfc,"Affordance Norms_Prolific",1,19,2023-01-06T19:46:45+00:00,12.312861919403,63,"updated stim.csv",Version63.csv,"Version 63","List 63",headlight,,1868,4.538461538,1267,0.957296127,1869,BOI,-,-,"Please name all of the ways you could use this object. Keep in mind that one object can have many uses. Separate your responses with a comma.",,y,11603,,,5691,7061,,,,See,1
5dae162804bd9b0016966f8c,ksqxekamfc,"Affordance Norms_Prolific",1,20,2023-01-06T19:46:55+00:00,9.8759961128235,63,"updated stim.csv",Version63.csv,"Version 63","List 63",scarecrow,,1864,5,2267,0.916651033,1865,BOI,-,-,"Please name all of the ways you could use this object. Keep in mind that one object can have many uses. Separate your responses with a comma.",,y,9154,,,3834,8284,,,,"Scare birds ",1
5dae162804bd9b0016966f8c,ksqxekamfc,"Affordance Norms_Prolific",1,21,2023-01-06T19:47:08+00:00,13.400979995728,63,"updated stim.csv",Version63.csv,"Version 63","List 63",grandnephew,,1875,5.08,1149,0.75238784,1876,BOI,-,-,"Please name all of the ways you could use this object. Keep in mind that one object can have many uses. Separate your responses with a comma.",,y,12724,,,4117,12025,,,,"Talk to, play with",1
5dae162804bd9b0016966f8c,ksqxekamfc,"Affordance Norms_Prolific",1,22,2023-01-06T19:47:31+00:00,22.806118965149,63,"updated stim.csv",Version63.csv,"Version 63","List 63",underclothes,,1862,6,2819,0.775978801,1863,BOI,-,-,"Please name all of the ways you could use this object. Keep in mind that one object can have many uses. Separate your responses with a comma.",,y,22084,,,18444,21362,,,,"Buy, wear",1
5dae162804bd9b0016966f8c,ksqxekamfc,"Affordance Norms_Prolific",1,23,2023-01-06T19:47:43+00:00,11.834873914719,63,"updated stim.csv",Version63.csv,"Version 63","List 63",fiancee,,1872,5.652173913,969,0.103119855,1873,BOI,-,-,"Please name all of the ways you could use this object. Keep in mind that one object can have many uses. Separate your responses with a comma.",,y,11131,,,2872,9306,,,,"Marry, talk to",1
5dae162804bd9b0016966f8c,ksqxekamfc,"Affordance Norms_Prolific",1,24,2023-01-06T19:47:49+00:00,6.123279094696,63,"updated stim.csv",Version63.csv,"Version 63","List 63",flag,,1886,5.851851852,995,0.828452377,1887,BOI,-,-,"Please name all of the ways you could use this object. Keep in mind that one object can have many uses. Separate your responses with a comma.",,y,5204,,,2365,4588,,,,"Wave, fold",1
5dae162804bd9b0016966f8c,ksqxekamfc,"Affordance Norms_Prolific",1,25,2023-01-06T19:48:02+00:00,13.437927007675,63,"updated stim.csv",Version63.csv,"Version 63","List 63",vomit,,1867,4.666666667,2874,0.511624602,1868,BOI,-,-,"Please name all of the ways you could use this object. Keep in mind that one object can have many uses. Separate your responses with a comma.",,y,12649,,,10666,12194,,,,"Don’t know",1
5dae162804bd9b0016966f8c,ksqxekamfc,"Affordance Norms_Prolific",1,26,2023-01-06T19:48:11+00:00,8.9815120697021,63,"updated stim.csv",Version63.csv,"Version 63","List 63",wench,,1871,4.956521739,2919,0.906733623,1872,BOI,-,-,"Please name all of the ways you could use this object. Keep in mind that one object can have many uses. Separate your responses with a comma.",,y,8236,,,5799,7486,,,,"Look at",1
5dae162804bd9b0016966f8c,ksqxekamfc,"Affordance Norms_Prolific",1,27,2023-01-06T19:48:18+00:00,6.7226078510284,63,"updated stim.csv",Version63.csv,"Version 63","List 63",firearm,,1861,5.814814815,983,0.894116046,1862,BOI,-,-,"Please name all of the ways you could use this object. Keep in mind that one object can have many uses. Separate your responses with a comma.",,y,6026,,,2162,5197,,,,"Shoot, threaten",1
5dae162804bd9b0016966f8c,ksqxekamfc,"Affordance Norms_Prolific",1,28,2023-01-06T19:48:30+00:00,12.123399972916,63,"updated stim.csv",Version63.csv,"Version 63","List 63",wineglass,,1890,6.416666667,2948,0.237036115,1891,BOI,-,-,"Please name all of the ways you could use this object. Keep in mind that one object can have many uses. Separate your responses with a comma.",,y,11424,,,6100,10512,,,,"Drink from, wash",1
5dae162804bd9b0016966f8c,ksqxekamfc,"Affordance Norms_Prolific",1,29,2023-01-06T19:48:36+00:00,5.7383849620819,63,"updated stim.csv",Version63.csv,"Version 63","List 63",dandelion,,1873,5.826086957,755,0.087062587,1874,BOI,-,-,"Please name all of the ways you could use this object. Keep in mind that one object can have many uses. Separate your responses with a comma.",,y,5049,,,2361,4264,,,,"Pick, mow",1
5dae162804bd9b0016966f8c,ksqxekamfc,"Affordance Norms_Prolific",1,30,2023-01-06T19:48:50+00:00,13.548227071762,63,"updated stim.csv",Version63.csv,"Version 63","List 63",sheepdog,,1865,5.375,2329,0.598176143,1866,BOI,-,-,"Please name all of the ways you could use this object. Keep in mind that one object can have many uses. Separate your responses with a comma.",,y,12849,,,3480,12222,,,,"Play, wash, feed",1
5dae162804bd9b0016966f8c,ksqxekamfc,"Affordance Norms_Prolific",1,31,2023-01-06T19:48:56+00:00,6.5322229862213,63,"updated stim.csv",Version63.csv,"Version 63","List 63",pebble,,1866,5.47826087,1898,0.093159647,1867,BOI,-,-,"Please name all of the ways you could use this object. Keep in mind that one object can have many uses. Separate your responses with a comma.",,y,5863,,,2705,5312,,,,"Stand on, thriw",1
5dae162804bd9b0016966f8c,ksqxekamfc,"Affordance Norms_Prolific",1,32,2023-01-06T19:49:04+00:00,7.4441249370575,63,"updated stim.csv",Version63.csv,"Version 63","List 63",pilot,,1888,4.52173913,1964,0.883513781,1889,BOI,-,-,"Please name all of the ways you could use this object. Keep in mind that one object can have many uses. Separate your responses with a comma.",,y,6559,,,2205,4722,,,,"Fly, drive",1
5dae162804bd9b0016966f8c,ksqxekamfc,"Affordance Norms_Prolific",1,33,2023-01-06T19:49:12+00:00,8.9215650558472,63,"updated stim.csv",Version63.csv,"Version 63","List 63",trainee,,1883,4.72,2757,0.111120288,1884,BOI,-,-,"Please name all of the ways you could use this object. Keep in mind that one object can have many uses. Separate your responses with a comma.",,y,8231,,,2926,7626,,,,"Train, talk to",1
5dae162804bd9b0016966f8c,ksqxekamfc,"Affordance Norms_Prolific",1,34,2023-01-06T19:49:18+00:00,5.1905119419098,63,"updated stim.csv",Version63.csv,"Version 63","List 63",noodle,,1874,6.24,1776,0.506850857,1875,BOI,-,-,"Please name all of the ways you could use this object. Keep in mind that one object can have many uses. Separate your responses with a comma.",,y,4498,,,2110,3855,,,,"Cook, eat",1
5dae162804bd9b0016966f8c,ksqxekamfc,"Affordance Norms_Prolific",1,35,2023-01-06T19:49:24+00:00,6.4432301521301,63,"updated stim.csv",Version63.csv,"Version 63","List 63",page,,1885,4.96,1844,0.804197914,1886,BOI,-,-,"Please name all of the ways you could use this object. Keep in mind that one object can have many uses. Separate your responses with a comma.",,y,5739,,,2704,4818,,,,"Look, read",1
5dae162804bd9b0016966f8c,ksqxekamfc,"Affordance Norms_Prolific",1,36,2023-01-06T19:49:34+00:00,10.179394960403,63,"updated stim.csv",Version63.csv,"Version 63","List 63",sledgehammer,,1881,5.916666667,2408,0.17242402,1882,BOI,-,-,"Please name all of the ways you could use this object. Keep in mind that one object can have many uses. Separate your responses with a comma.",,y,9495,,,2115,8955,,,,"Break, mive",1
5dae162804bd9b0016966f8c,ksqxekamfc,"Affordance Norms_Prolific",1,37,2023-01-06T19:49:40+00:00,5.7377750873566,63,"updated stim.csv",Version63.csv,"Version 63","List 63",cauliflower,,1863,5.269230769,466,0.493955035,1864,BOI,-,-,"Please name all of the ways you could use this object. Keep in mind that one object can have many uses. Separate your responses with a comma.",,y,5068,,,2281,4432,,,,"Eat, cook",1
5dae162804bd9b0016966f8c,ksqxekamfc,"Affordance Norms_Prolific",1,38,2023-01-06T19:49:50+00:00,9.5777399539948,63,"updated stim.csv",Version63.csv,"Version 63","List 63",parent,,1870,5.04,1875,0.676805663,1871,BOI,-,-,"Please name all of the ways you could use this object. Keep in mind that one object can have many uses. Separate your responses with a comma.",,y,8762,,,3140,8085,,,,"Talk, hug",1
5dae162804bd9b0016966f8c,ksqxekamfc,"Affordance Norms_Prolific",1,39,2023-01-06T19:49:56+00:00,6.5218980312347,63,"updated stim.csv",Version63.csv,"Version 63","List 63",dough,,1887,6.086956522,833,0.768311203,1888,BOI,-,-,"Please name all of the ways you could use this object. Keep in mind that one object can have many uses. Separate your responses with a comma.",,y,5790,,,2125,5103,,,,"Cook, make, eat",1
5dae162804bd9b0016966f8c,ksqxekamfc,"Affordance Norms_Prolific",1,40,2023-01-06T19:50:05+00:00,8.7802309989929,63,"updated stim.csv",Version63.csv,"Version 63","List 63",storybook,,1884,5.703703704,2554,0.400238446,1885,BOI,-,-,"Please name all of the ways you could use this object. Keep in mind that one object can have many uses. Separate your responses with a comma.",,y,8070,,,2074,6335,,,,"Read, write, listen",1
5dae162804bd9b0016966f8c,ksqxekamfc,"Affordance Norms_Prolific",1,41,2023-01-06T19:50:07+00:00,2.1940789222717,63,"updated stim.csv",Version63.csv,"Version 63","List 63",,,,,,,0,Instruct,,,"You will now be asked a few questions about your experience today.",,"Instruct 4",1810,,,-1,-1,,,,,1
