Username,ID,ExperimentName,Session,Trial,Date,TimeDif,"Condition Number","Stimuli File","Order File","Condition Description","Condition Notes",Stimuli*Cue,Stimuli*Answer,Stimuli*Shuffle,"Stimuli*Stimuli Notes",Stimuli*Value,Stimuli*Rand,Procedure*Item,"Procedure*Trial Type","Procedure*Max Time","Procedure*Min Time",Procedure*Text,"Procedure*Procedure Notes",Procedure*Shuffle,Response*RT,Response*Response,Response*Accuracy,Response*RTfirst,Response*RTlast,Response*strictAcc,Response*lenientAcc,Response*focus,Response*JOL,Response*Focus
5e2de408eebf94000a58e1b4,l024hz4ftt,"Affordance Norms_Prolific",1,1,2023-01-06T21:33:28+00:00,12.417906999588,5,"updated stim.csv",Version5.csv,"Version 5","List 5",,,,,,,0,Instruct,-,10,"In this section, you will be presented with a series of objects. Please name as many possible uses for this object as you can think of by typing them in the box below each object.",,Instruct1,11886,,,-1,-1,,,,,1
5e2de408eebf94000a58e1b4,l024hz4ftt,"Affordance Norms_Prolific",1,2,2023-01-06T21:33:42+00:00,14.373724937439,5,"updated stim.csv",Version5.csv,"Version 5","List 5",,,,,,,0,Instruct,-,10,"Please keep in mind that a single object will have more than one use. For example, a ball can be thrown or can be bounced or even stepped on. When listing multiple uses for one object, please separate each use with a comma (i.e., thrown, bounced, stepped on)",,Instruct2,13909,,,-1,-1,,,,,1
5e2de408eebf94000a58e1b4,l024hz4ftt,"Affordance Norms_Prolific",1,3,2023-01-06T21:33:47+00:00,4.8839859962463,5,"updated stim.csv",Version5.csv,"Version 5","List 5",,,,,,,0,Instruct,-,-,"Before starting the experiment, you will complete a short practice sesstion. Press ENTER when you are ready to begin.",,Instruct3,4478,,,-1,-1,,,,,1
5e2de408eebf94000a58e1b4,l024hz4ftt,"Affordance Norms_Prolific",1,4,2023-01-06T21:34:06+00:00,19.014310121536,5,"updated stim.csv",Version5.csv,"Version 5","List 5",paperwork,,3001,5.625,1866,0.124284162,3002,BOI,-,-,"Please name all of the ways you could use this object. Keep in mind that one object can have many uses. Separate your responses with a comma.",,n,18354,,,3585,15826,,,,"filing, writing, information, ",1
5e2de408eebf94000a58e1b4,l024hz4ftt,"Affordance Norms_Prolific",1,5,2023-01-06T21:34:24+00:00,18.048563957214,5,"updated stim.csv",Version5.csv,"Version 5","List 5",saucer,,3005,5.777777778,2249,0.304808074,3006,BOI,-,-,"Please name all of the ways you could use this object. Keep in mind that one object can have many uses. Separate your responses with a comma.",,n,17634,,,3441,16841,,,,"drinking, food, throwing, breaking, placing ",1
5e2de408eebf94000a58e1b4,l024hz4ftt,"Affordance Norms_Prolific",1,6,2023-01-06T21:34:37+00:00,13.51415514946,5,"updated stim.csv",Version5.csv,"Version 5","List 5",spaghetti,,3003,6,2461,0.090379998,3004,BOI,-,-,"Please name all of the ways you could use this object. Keep in mind that one object can have many uses. Separate your responses with a comma.",,n,13110,,,1402,10653,,,,"eating, throwing, cooking, ",1
5e2de408eebf94000a58e1b4,l024hz4ftt,"Affordance Norms_Prolific",1,7,2023-01-06T21:35:01+00:00,23.453437805176,5,"updated stim.csv",Version5.csv,"Version 5","List 5",grain,,3004,5.217391304,1143,0.226863762,3005,BOI,-,-,"Please name all of the ways you could use this object. Keep in mind that one object can have many uses. Separate your responses with a comma.",,n,22787,,,6631,21941,,,,"cooking, eating, decorating, throwing, blowing ",1
5e2de408eebf94000a58e1b4,l024hz4ftt,"Affordance Norms_Prolific",1,8,2023-01-06T21:35:16+00:00,15.302023172379,5,"updated stim.csv",Version5.csv,"Version 5","List 5",shortening,,3002,4.92,2358,0.604328482,3003,BOI,-,-,"Please name all of the ways you could use this object. Keep in mind that one object can have many uses. Separate your responses with a comma.",,n,14885,,,5470,13008,,,,squashing,1
5e2de408eebf94000a58e1b4,l024hz4ftt,"Affordance Norms_Prolific",1,9,2023-01-06T21:35:20+00:00,3.6396977901459,5,"updated stim.csv",Version5.csv,"Version 5","List 5",,,,,,,0,Instruct,-,-,"You have completed this section. Press ENTER to continue",,"Instruct 5",3207,,,-1,-1,,,,,1
5e2de408eebf94000a58e1b4,l024hz4ftt,"Affordance Norms_Prolific",1,10,2023-01-06T21:35:21+00:00,1.5360450744629,5,"updated stim.csv",Version5.csv,"Version 5","List 5",,,,,,,0,Instruct,-,-,"You will now start the full experiment. Press ENTER when you are ready to begin.",,,1144,,,-1,-1,,,,,1
5e2de408eebf94000a58e1b4,l024hz4ftt,"Affordance Norms_Prolific",1,11,2023-01-06T21:35:49+00:00,27.767908096313,5,"updated stim.csv",Version5.csv,"Version 5","List 5",copper,,124,4.833333333,638,0.549670749,125,BOI,-,-,"Please name all of the ways you could use this object. Keep in mind that one object can have many uses. Separate your responses with a comma.",,y,27118,,,3213,25248,,,,"piping, money, insulation, cooking, decorating ",1
5e2de408eebf94000a58e1b4,l024hz4ftt,"Affordance Norms_Prolific",1,12,2023-01-06T21:36:20+00:00,31.087025880814,5,"updated stim.csv",Version5.csv,"Version 5","List 5",figurine,,121,5.791666667,973,0.03998685,122,BOI,-,-,"Please name all of the ways you could use this object. Keep in mind that one object can have many uses. Separate your responses with a comma.",,y,30370,,,1884,26284,,,,"decoration, breaking, throwing",1
5e2de408eebf94000a58e1b4,l024hz4ftt,"Affordance Norms_Prolific",1,13,2023-01-06T21:36:45+00:00,24.543202161789,5,"updated stim.csv",Version5.csv,"Version 5","List 5",crutch,,149,5.8,717,0.131827503,150,BOI,-,-,"Please name all of the ways you could use this object. Keep in mind that one object can have many uses. Separate your responses with a comma.",,y,23869,,,1732,23037,,,,"walking, holding up, breaking, smashing, leaning, throwing",1
5e2de408eebf94000a58e1b4,l024hz4ftt,"Affordance Norms_Prolific",1,14,2023-01-06T21:37:10+00:00,24.827241897583,5,"updated stim.csv",Version5.csv,"Version 5","List 5",sandbank,,126,4.52,2234,0.16035416,127,BOI,-,-,"Please name all of the ways you could use this object. Keep in mind that one object can have many uses. Separate your responses with a comma.",,y,24179,,,3842,14451,,,,"stopping water, building, throwing, spilling",1
5e2de408eebf94000a58e1b4,l024hz4ftt,"Affordance Norms_Prolific",1,15,2023-01-06T21:37:40+00:00,30.090070962906,5,"updated stim.csv",Version5.csv,"Version 5","List 5",prosecutor,,146,4.64,2078,0.373078665,147,BOI,-,-,"Please name all of the ways you could use this object. Keep in mind that one object can have many uses. Separate your responses with a comma.",,y,29389,,,12969,28730,,,,"sentencing, legality",1
5e2de408eebf94000a58e1b4,l024hz4ftt,"Affordance Norms_Prolific",1,16,2023-01-06T21:38:08+00:00,28.421169996262,5,"updated stim.csv",Version5.csv,"Version 5","List 5",wristlet,,144,5.428571429,2984,0.95091675,145,BOI,-,-,"Please name all of the ways you could use this object. Keep in mind that one object can have many uses. Separate your responses with a comma.",,y,27753,,,1912,26157,,,,"wearing, holding together, decoration, throwing, catching, ",1
5e2de408eebf94000a58e1b4,l024hz4ftt,"Affordance Norms_Prolific",1,17,2023-01-06T21:38:25+00:00,16.637923955917,5,"updated stim.csv",Version5.csv,"Version 5","List 5",tranquilizers,,127,4.607142857,2761,0.821162254,128,BOI,-,-,"Please name all of the ways you could use this object. Keep in mind that one object can have many uses. Separate your responses with a comma.",,y,16232,,,2464,15199,,,,"knocking out, calming down, stopping pain",1
5e2de408eebf94000a58e1b4,l024hz4ftt,"Affordance Norms_Prolific",1,18,2023-01-06T21:38:55+00:00,29.945999145508,5,"updated stim.csv",Version5.csv,"Version 5","List 5",hoop,,134,5.296296296,1310,0.74583685,135,BOI,-,-,"Please name all of the ways you could use this object. Keep in mind that one object can have many uses. Separate your responses with a comma.",,y,29308,,,3803,28110,,,,"throwing, catching, rolling, exercise, lifting",1
5e2de408eebf94000a58e1b4,l024hz4ftt,"Affordance Norms_Prolific",1,19,2023-01-06T21:39:11+00:00,16.644063949585,5,"updated stim.csv",Version5.csv,"Version 5","List 5",powderpuff,,145,4.923076923,2055,0.604936304,146,BOI,-,-,"Please name all of the ways you could use this object. Keep in mind that one object can have many uses. Separate your responses with a comma.",,y,16228,,,3553,13784,,,,"makeup, drying, smoothening",1
5e2de408eebf94000a58e1b4,l024hz4ftt,"Affordance Norms_Prolific",1,20,2023-01-06T21:39:26+00:00,14.773387908936,5,"updated stim.csv",Version5.csv,"Version 5","List 5",keyhole,,136,5.44,1413,0.406137653,137,BOI,-,-,"Please name all of the ways you could use this object. Keep in mind that one object can have many uses. Separate your responses with a comma.",,y,14385,,,3124,11738,,,,"opening a door, looking through",1
5e2de408eebf94000a58e1b4,l024hz4ftt,"Affordance Norms_Prolific",1,21,2023-01-06T21:39:43+00:00,16.987301111221,5,"updated stim.csv",Version5.csv,"Version 5","List 5",eyepiece,,150,5.8,937,0.594546173,151,BOI,-,-,"Please name all of the ways you could use this object. Keep in mind that one object can have many uses. Separate your responses with a comma.",,y,16579,,,3597,14842,,,,"looking through, smashing, fashion, decoration",1
5e2de408eebf94000a58e1b4,l024hz4ftt,"Affordance Norms_Prolific",1,22,2023-01-06T21:40:07+00:00,24.205194950104,5,"updated stim.csv",Version5.csv,"Version 5","List 5",woodwork,,138,5.12,2966,0.663344397,139,BOI,-,-,"Please name all of the ways you could use this object. Keep in mind that one object can have many uses. Separate your responses with a comma.",,y,23572,,,1760,22987,,,,"building, decoration, breaking, throwing, sanding",1
5e2de408eebf94000a58e1b4,l024hz4ftt,"Affordance Norms_Prolific",1,23,2023-01-06T21:40:23+00:00,15.347437143326,5,"updated stim.csv",Version5.csv,"Version 5","List 5",waste,,123,4.318181818,2903,0.192088069,124,BOI,-,-,"Please name all of the ways you could use this object. Keep in mind that one object can have many uses. Separate your responses with a comma.",,y,14922,,,6191,12368,,,,"compost, recycling",1
5e2de408eebf94000a58e1b4,l024hz4ftt,"Affordance Norms_Prolific",1,24,2023-01-06T21:41:14+00:00,51.1324198246,5,"updated stim.csv",Version5.csv,"Version 5","List 5",laryngoscope,,135,4.411764706,1467,0.485337296,136,BOI,-,-,"Please name all of the ways you could use this object. Keep in mind that one object can have many uses. Separate your responses with a comma.",,y,50485,,,32436,50118,,,,"looking at throat, poking, investigating, peircing",1
5e2de408eebf94000a58e1b4,l024hz4ftt,"Affordance Norms_Prolific",1,25,2023-01-06T21:41:39+00:00,25.559080123901,5,"updated stim.csv",Version5.csv,"Version 5","List 5","Picture Frame",,130,,3002,0.356895476,131,BOI,-,-,"Please name all of the ways you could use this object. Keep in mind that one object can have many uses. Separate your responses with a comma.",,y,24923,,,1853,24448,,,,"displaying photos/certificates, decoration, throwing, breaking ",1
5e2de408eebf94000a58e1b4,l024hz4ftt,"Affordance Norms_Prolific",1,26,2023-01-06T21:42:07+00:00,28.121562004089,5,"updated stim.csv",Version5.csv,"Version 5","List 5",pomegranate,,139,5.391304348,2026,0.369576509,140,BOI,-,-,"Please name all of the ways you could use this object. Keep in mind that one object can have many uses. Separate your responses with a comma.",,y,27471,,,1330,26446,,,,"eating, decoration, dying, throwing, composting, drinking",1
5e2de408eebf94000a58e1b4,l024hz4ftt,"Affordance Norms_Prolific",1,27,2023-01-06T21:42:33+00:00,25.864801883698,5,"updated stim.csv",Version5.csv,"Version 5","List 5",sheepskin,,137,4.928571429,2330,0.621252368,138,BOI,-,-,"Please name all of the ways you could use this object. Keep in mind that one object can have many uses. Separate your responses with a comma.",,y,25219,,,1573,24632,,,,"wearing, insulating, covering, keeping warm, cleaning",1
5e2de408eebf94000a58e1b4,l024hz4ftt,"Affordance Norms_Prolific",1,28,2023-01-06T21:43:03+00:00,29.481482028961,5,"updated stim.csv",Version5.csv,"Version 5","List 5",paprika,,147,4.428571429,1867,0.923363889,148,BOI,-,-,"Please name all of the ways you could use this object. Keep in mind that one object can have many uses. Separate your responses with a comma.",,y,28811,,,2468,27882,,,,"cooking, eating, dying, painting, smelling, decoration",1
5e2de408eebf94000a58e1b4,l024hz4ftt,"Affordance Norms_Prolific",1,29,2023-01-06T21:43:23+00:00,20.355062961578,5,"updated stim.csv",Version5.csv,"Version 5","List 5",cabbage,,132,5.608695652,386,0.325095127,133,BOI,-,-,"Please name all of the ways you could use this object. Keep in mind that one object can have many uses. Separate your responses with a comma.",,y,19685,,,1212,18556,,,,"eating, composting, decoration, throwing, tearing ",1
5e2de408eebf94000a58e1b4,l024hz4ftt,"Affordance Norms_Prolific",1,30,2023-01-06T21:43:40+00:00,16.538993120193,5,"updated stim.csv",Version5.csv,"Version 5","List 5",antiques,,140,4.68,51,0.461950375,141,BOI,-,-,"Please name all of the ways you could use this object. Keep in mind that one object can have many uses. Separate your responses with a comma.",,y,15896,,,1551,8879,,,,"selling, admiring, decorating",1
5e2de408eebf94000a58e1b4,l024hz4ftt,"Affordance Norms_Prolific",1,31,2023-01-06T21:44:12+00:00,31.918992996216,5,"updated stim.csv",Version5.csv,"Version 5","List 5",playsuit,,131,5.36,2003,0.404603014,132,BOI,-,-,"Please name all of the ways you could use this object. Keep in mind that one object can have many uses. Separate your responses with a comma.",,y,31259,,,1393,30519,,,,"wearing, washing, decoration, fashion, cleaning, throwing, drying",1
5e2de408eebf94000a58e1b4,l024hz4ftt,"Affordance Norms_Prolific",1,32,2023-01-06T21:44:23+00:00,11.908195972443,5,"updated stim.csv",Version5.csv,"Version 5","List 5",watercress,,128,4.782608696,2910,0.65261601,129,BOI,-,-,"Please name all of the ways you could use this object. Keep in mind that one object can have many uses. Separate your responses with a comma.",,y,11459,,,1664,10382,,,,"eating, decoration, growing, composting",1
5e2de408eebf94000a58e1b4,l024hz4ftt,"Affordance Norms_Prolific",1,33,2023-01-06T21:44:46+00:00,22.01153588295,5,"updated stim.csv",Version5.csv,"Version 5","List 5",bazooka,,129,5.041666667,175,0.357199657,130,BOI,-,-,"Please name all of the ways you could use this object. Keep in mind that one object can have many uses. Separate your responses with a comma.",,y,21350,,,6772,20725,,,,"destruction, blowing up, killing",1
5e2de408eebf94000a58e1b4,l024hz4ftt,"Affordance Norms_Prolific",1,34,2023-01-06T21:44:56+00:00,10.014437198639,5,"updated stim.csv",Version5.csv,"Version 5","List 5",stableman,,141,4.375,2495,0.024282326,142,BOI,-,-,"Please name all of the ways you could use this object. Keep in mind that one object can have many uses. Separate your responses with a comma.",,y,9583,,,3616,8573,,,,"looking after",1
5e2de408eebf94000a58e1b4,l024hz4ftt,"Affordance Norms_Prolific",1,35,2023-01-06T21:45:16+00:00,20.176534891129,5,"updated stim.csv",Version5.csv,"Version 5","List 5",medication,,122,6.28,1637,0.689498349,123,BOI,-,-,"Please name all of the ways you could use this object. Keep in mind that one object can have many uses. Separate your responses with a comma.",,y,19773,,,2078,16355,,,,"healing, treating, throwing, taking, prescribing, ",1
5e2de408eebf94000a58e1b4,l024hz4ftt,"Affordance Norms_Prolific",1,36,2023-01-06T21:45:31+00:00,15.200289011002,5,"updated stim.csv",Version5.csv,"Version 5","List 5",doll,,148,6.434782609,814,0.883086008,149,BOI,-,-,"Please name all of the ways you could use this object. Keep in mind that one object can have many uses. Separate your responses with a comma.",,y,14801,,,1556,14263,,,,"playing, decoration, collecting, throwing, selling",1
5e2de408eebf94000a58e1b4,l024hz4ftt,"Affordance Norms_Prolific",1,37,2023-01-06T21:45:46+00:00,14.747107982635,5,"updated stim.csv",Version5.csv,"Version 5","List 5",postman,,142,4.913043478,2044,0.01460871,143,BOI,-,-,"Please name all of the ways you could use this object. Keep in mind that one object can have many uses. Separate your responses with a comma.",,y,14301,,,2161,13515,,,,"delivering letters, chatting, helping",1
5e2de408eebf94000a58e1b4,l024hz4ftt,"Affordance Norms_Prolific",1,38,2023-01-06T21:45:57+00:00,11.494313001633,5,"updated stim.csv",Version5.csv,"Version 5","List 5",worker,,133,5.086956522,2971,0.589394286,134,BOI,-,-,"Please name all of the ways you could use this object. Keep in mind that one object can have many uses. Separate your responses with a comma.",,y,11101,,,1604,7176,,,,"helping, tasks",1
5e2de408eebf94000a58e1b4,l024hz4ftt,"Affordance Norms_Prolific",1,39,2023-01-06T21:46:12+00:00,15.276304960251,5,"updated stim.csv",Version5.csv,"Version 5","List 5",pedal,,125,5.04,1900,0.012619648,126,BOI,-,-,"Please name all of the ways you could use this object. Keep in mind that one object can have many uses. Separate your responses with a comma.",,y,14888,,,1425,14468,,,,"pushing, going faster, stepping on",1
5e2de408eebf94000a58e1b4,l024hz4ftt,"Affordance Norms_Prolific",1,40,2023-01-06T21:46:32+00:00,19.951267004013,5,"updated stim.csv",Version5.csv,"Version 5","List 5",cedar,,143,4.583333333,470,0.107709949,144,BOI,-,-,"Please name all of the ways you could use this object. Keep in mind that one object can have many uses. Separate your responses with a comma.",,y,19512,,,4817,15358,,,,"looking at, material, building, crafting",1
5e2de408eebf94000a58e1b4,l024hz4ftt,"Affordance Norms_Prolific",1,41,2023-01-06T21:46:35+00:00,2.5498080253601,5,"updated stim.csv",Version5.csv,"Version 5","List 5",,,,,,,0,Instruct,,,"You will now be asked a few questions about your experience today.",,"Instruct 4",2149,,,-1,-1,,,,,1
