Username,ID,ExperimentName,Session,Trial,Date,TimeDif,"Condition Number","Stimuli File","Order File","Condition Description","Condition Notes",Stimuli*Cue,Stimuli*Answer,Stimuli*Shuffle,"Stimuli*Stimuli Notes",Stimuli*Value,Stimuli*Rand,Procedure*Item,"Procedure*Trial Type","Procedure*Max Time","Procedure*Min Time",Procedure*Text,"Procedure*Procedure Notes",Procedure*Shuffle,Response*RT,Response*Response,Response*Accuracy,Response*RTfirst,Response*RTlast,Response*strictAcc,Response*lenientAcc,Response*focus,Response*JOL,Response*Focus
5d45e85dd7d4b80015384b4e,nbszlrd2n1,"Affordance Norms_Prolific",1,1,2023-01-06T19:44:31+00:00,11.993195056915,66,"updated stim.csv",Version66.csv,"Version 66","List 66",,,,,,,0,Instruct,-,10,"In this section, you will be presented with a series of objects. Please name as many possible uses for this object as you can think of by typing them in the box below each object.",,Instruct1,10702,,,-1,-1,,,,,1
5d45e85dd7d4b80015384b4e,nbszlrd2n1,"Affordance Norms_Prolific",1,2,2023-01-06T19:45:31+00:00,60.242811918259,66,"updated stim.csv",Version66.csv,"Version 66","List 66",,,,,,,0,Instruct,-,10,"Please keep in mind that a single object will have more than one use. For example, a ball can be thrown or can be bounced or even stepped on. When listing multiple uses for one object, please separate each use with a comma (i.e., thrown, bounced, stepped on)",,Instruct2,58001,,,-1,-1,,,,,1
5d45e85dd7d4b80015384b4e,nbszlrd2n1,"Affordance Norms_Prolific",1,3,2023-01-06T19:45:35+00:00,3.563469171524,66,"updated stim.csv",Version66.csv,"Version 66","List 66",,,,,,,0,Instruct,-,-,"Before starting the experiment, you will complete a short practice sesstion. Press ENTER when you are ready to begin.",,Instruct3,2496,,,-1,-1,,,,,1
5d45e85dd7d4b80015384b4e,nbszlrd2n1,"Affordance Norms_Prolific",1,4,2023-01-06T19:46:17+00:00,42.504041910172,66,"updated stim.csv",Version66.csv,"Version 66","List 66",saucer,,3005,5.777777778,2249,0.304808074,3006,BOI,-,-,"Please name all of the ways you could use this object. Keep in mind that one object can have many uses. Separate your responses with a comma.",,n,41298,,,5247,40319,,,,"Food, Plant Pot, Display Piece, Balancing Trick, Sauces",1
5d45e85dd7d4b80015384b4e,nbszlrd2n1,"Affordance Norms_Prolific",1,5,2023-01-06T19:46:39+00:00,21.568942070007,66,"updated stim.csv",Version66.csv,"Version 66","List 66",shortening,,3002,4.92,2358,0.604328482,3003,BOI,-,-,"Please name all of the ways you could use this object. Keep in mind that one object can have many uses. Separate your responses with a comma.",,n,19595,,,7627,18377,,,,"Tape Measure, Clothes, Shortbread",1
5d45e85dd7d4b80015384b4e,nbszlrd2n1,"Affordance Norms_Prolific",1,6,2023-01-06T19:47:17+00:00,37.96887087822,66,"updated stim.csv",Version66.csv,"Version 66","List 66",grain,,3004,5.217391304,1143,0.226863762,3005,BOI,-,-,"Please name all of the ways you could use this object. Keep in mind that one object can have many uses. Separate your responses with a comma.",,n,36613,,,2042,34569,,,,"Bread, Rice, Pasta, Cake, Flour, Chicken Feed, Bird Feed",1
5d45e85dd7d4b80015384b4e,nbszlrd2n1,"Affordance Norms_Prolific",1,7,2023-01-06T19:47:44+00:00,26.815926074982,66,"updated stim.csv",Version66.csv,"Version 66","List 66",paperwork,,3001,5.625,1866,0.124284162,3002,BOI,-,-,"Please name all of the ways you could use this object. Keep in mind that one object can have many uses. Separate your responses with a comma.",,n,25296,,,2525,18805,,,,"Office Work, Dental Work, Hospital Work, Changing your Name",1
5d45e85dd7d4b80015384b4e,nbszlrd2n1,"Affordance Norms_Prolific",1,8,2023-01-06T19:48:26+00:00,42.379323005676,66,"updated stim.csv",Version66.csv,"Version 66","List 66",spaghetti,,3003,6,2461,0.090379998,3004,BOI,-,-,"Please name all of the ways you could use this object. Keep in mind that one object can have many uses. Separate your responses with a comma.",,n,40482,,,2695,35088,,,,"Spaghetti Bolognese, Spaghetti Carbonara, Squid Ink Spaghetti, Spaghetti and Meatballs, Plain Spaghetti",1
5d45e85dd7d4b80015384b4e,nbszlrd2n1,"Affordance Norms_Prolific",1,9,2023-01-06T19:50:18+00:00,111.57390999794,66,"updated stim.csv",Version66.csv,"Version 66","List 66",,,,,,,0,Instruct,-,-,"You have completed this section. Press ENTER to continue",,"Instruct 5",110285,,,-1,-1,,,,,1
5d45e85dd7d4b80015384b4e,nbszlrd2n1,"Affordance Norms_Prolific",1,10,2023-01-06T19:50:23+00:00,5.0767850875854,66,"updated stim.csv",Version66.csv,"Version 66","List 66",,,,,,,0,Instruct,-,-,"You will now start the full experiment. Press ENTER when you are ready to begin.",,,2805,,,-1,-1,,,,,1
5d45e85dd7d4b80015384b4e,nbszlrd2n1,"Affordance Norms_Prolific",1,11,2023-01-06T19:50:59+00:00,35.754376888275,66,"updated stim.csv",Version66.csv,"Version 66","List 66",object,,1967,6.416666667,1797,0.220063812,1968,BOI,-,-,"Please name all of the ways you could use this object. Keep in mind that one object can have many uses. Separate your responses with a comma.",,y,34383,,,6582,33213,,,,"Throw, Bounce, Eat, Kick, Step On, Drink, Drink from, Eat off, Hold food, hold flowers, carry things",1
5d45e85dd7d4b80015384b4e,nbszlrd2n1,"Affordance Norms_Prolific",1,12,2023-01-06T19:51:19+00:00,20.481204032898,66,"updated stim.csv",Version66.csv,"Version 66","List 66",azalea,,1954,5.263157895,109,0.862356309,1955,BOI,-,-,"Please name all of the ways you could use this object. Keep in mind that one object can have many uses. Separate your responses with a comma.",,y,19062,,,2356,17716,,,,"Put in a flower pot, put in a bouquet, plant in a garden, buy at a store",1
5d45e85dd7d4b80015384b4e,nbszlrd2n1,"Affordance Norms_Prolific",1,13,2023-01-06T19:51:44+00:00,25.015847921371,66,"updated stim.csv",Version66.csv,"Version 66","List 66",passionflower,,1966,4.782608696,1882,0.085226295,1967,BOI,-,-,"Please name all of the ways you could use this object. Keep in mind that one object can have many uses. Separate your responses with a comma.",,y,23749,,,11243,22666,,,,"Plant in a garden, put in a bouquet, put in a vase",1
5d45e85dd7d4b80015384b4e,nbszlrd2n1,"Affordance Norms_Prolific",1,14,2023-01-06T19:51:51+00:00,7.1355881690979,66,"updated stim.csv",Version66.csv,"Version 66","List 66",ballerina,,1980,4.695652174,129,0.859100962,1981,BOI,-,-,"Please name all of the ways you could use this object. Keep in mind that one object can have many uses. Separate your responses with a comma.",,y,5899,,,2169,4570,,,,"Dancing, Stage",1
5d45e85dd7d4b80015384b4e,nbszlrd2n1,"Affordance Norms_Prolific",1,15,2023-01-06T19:52:17+00:00,25.605700016022,66,"updated stim.csv",Version66.csv,"Version 66","List 66",ledger,,1978,4.583333333,1483,0.989077615,1979,BOI,-,-,"Please name all of the ways you could use this object. Keep in mind that one object can have many uses. Separate your responses with a comma.",,y,24308,,,22530,23010,,,,Read,1
5d45e85dd7d4b80015384b4e,nbszlrd2n1,"Affordance Norms_Prolific",1,16,2023-01-06T19:52:26+00:00,8.7673959732056,66,"updated stim.csv",Version66.csv,"Version 66","List 66",briefs,,1957,5.64,324,0.692208946,1958,BOI,-,-,"Please name all of the ways you could use this object. Keep in mind that one object can have many uses. Separate your responses with a comma.",,y,6706,,,2072,5568,,,,"Wear them, explain them",1
5d45e85dd7d4b80015384b4e,nbszlrd2n1,"Affordance Norms_Prolific",1,17,2023-01-06T19:52:35+00:00,9.7284879684448,66,"updated stim.csv",Version66.csv,"Version 66","List 66",biologist,,1951,4.48,219,0.95923704,1952,BOI,-,-,"Please name all of the ways you could use this object. Keep in mind that one object can have many uses. Separate your responses with a comma.",,y,7260,,,2049,5193,,,,"Marine Biologist",1
5d45e85dd7d4b80015384b4e,nbszlrd2n1,"Affordance Norms_Prolific",1,18,2023-01-06T19:52:42+00:00,6.635892868042,66,"updated stim.csv",Version66.csv,"Version 66","List 66",sledge,,1977,4.380952381,2407,0.047837836,1978,BOI,-,-,"Please name all of the ways you could use this object. Keep in mind that one object can have many uses. Separate your responses with a comma.",,y,4880,,,2877,3611,,,,Hammer,1
5d45e85dd7d4b80015384b4e,nbszlrd2n1,"Affordance Norms_Prolific",1,19,2023-01-06T19:52:51+00:00,8.9955849647522,66,"updated stim.csv",Version66.csv,"Version 66","List 66",viola,,1975,4.458333333,2864,0.604296654,1976,BOI,-,-,"Please name all of the ways you could use this object. Keep in mind that one object can have many uses. Separate your responses with a comma.",,y,7531,,,2426,6489,,,,"Play music, Concerts",1
5d45e85dd7d4b80015384b4e,nbszlrd2n1,"Affordance Norms_Prolific",1,20,2023-01-06T19:53:10+00:00,19.485850095749,66,"updated stim.csv",Version66.csv,"Version 66","List 66",handlebar,,1958,5.384615385,1240,0.29730471,1959,BOI,-,-,"Please name all of the ways you could use this object. Keep in mind that one object can have many uses. Separate your responses with a comma.",,y,18110,,,3116,17445,,,,"Hold onto, use on a bike, use on a scooter, a type of moustache",1
5d45e85dd7d4b80015384b4e,nbszlrd2n1,"Affordance Norms_Prolific",1,21,2023-01-06T19:53:17+00:00,6.9546720981598,66,"updated stim.csv",Version66.csv,"Version 66","List 66",sherbet,,1976,5.916666667,2337,0.513692297,1977,BOI,-,-,"Please name all of the ways you could use this object. Keep in mind that one object can have many uses. Separate your responses with a comma.",,y,4565,,,3092,3851,,,,"Eat it",1
5d45e85dd7d4b80015384b4e,nbszlrd2n1,"Affordance Norms_Prolific",1,22,2023-01-06T19:53:32+00:00,15.062481880188,66,"updated stim.csv",Version66.csv,"Version 66","List 66",grandpa,,1959,5.76,1151,0.812350573,1960,BOI,-,-,"Please name all of the ways you could use this object. Keep in mind that one object can have many uses. Separate your responses with a comma.",,y,12803,,,2872,11337,,,,"Play games with, spend time with, miss him",1
5d45e85dd7d4b80015384b4e,nbszlrd2n1,"Affordance Norms_Prolific",1,23,2023-01-06T19:53:38+00:00,5.9209110736847,66,"updated stim.csv",Version66.csv,"Version 66","List 66",apparatus,,1971,4.636363636,57,0.94258341,1972,BOI,-,-,"Please name all of the ways you could use this object. Keep in mind that one object can have many uses. Separate your responses with a comma.",,y,4687,,,2918,3598,,,,Study,1
5d45e85dd7d4b80015384b4e,nbszlrd2n1,"Affordance Norms_Prolific",1,24,2023-01-06T19:53:47+00:00,8.881108045578,66,"updated stim.csv",Version66.csv,"Version 66","List 66",council,,1973,4.321428571,662,0.656204019,1974,BOI,-,-,"Please name all of the ways you could use this object. Keep in mind that one object can have many uses. Separate your responses with a comma.",,y,7050,,,2487,5774,,,,"Decide on things, contact",1
5d45e85dd7d4b80015384b4e,nbszlrd2n1,"Affordance Norms_Prolific",1,25,2023-01-06T19:54:14+00:00,26.356868028641,66,"updated stim.csv",Version66.csv,"Version 66","List 66",manicurist,,1963,4.916666667,1591,0.377173957,1964,BOI,-,-,"Please name all of the ways you could use this object. Keep in mind that one object can have many uses. Separate your responses with a comma.",,y,23989,,,21723,23370,,,,"Do your nails",1
5d45e85dd7d4b80015384b4e,nbszlrd2n1,"Affordance Norms_Prolific",1,26,2023-01-06T19:54:20+00:00,5.9943299293518,66,"updated stim.csv",Version66.csv,"Version 66","List 66",veil,,1955,5.727272727,2844,0.451453347,1956,BOI,-,-,"Please name all of the ways you could use this object. Keep in mind that one object can have many uses. Separate your responses with a comma.",,y,4498,,,1849,3888,,,,"Wear, cover up",1
5d45e85dd7d4b80015384b4e,nbszlrd2n1,"Affordance Norms_Prolific",1,27,2023-01-06T19:54:26+00:00,6.1779019832611,66,"updated stim.csv",Version66.csv,"Version 66","List 66",afro,,1962,4.52,17,0.21185204,1963,BOI,-,-,"Please name all of the ways you could use this object. Keep in mind that one object can have many uses. Separate your responses with a comma.",,y,4783,,,2373,3725,,,,Hairstyle,1
5d45e85dd7d4b80015384b4e,nbszlrd2n1,"Affordance Norms_Prolific",1,28,2023-01-06T19:54:38+00:00,11.924036026001,66,"updated stim.csv",Version66.csv,"Version 66","List 66",pedestrian,,1969,4.962962963,1902,0.61539173,1970,BOI,-,-,"Please name all of the ways you could use this object. Keep in mind that one object can have many uses. Separate your responses with a comma.",,y,9422,,,2092,8124,,,,"Crossing, Don't Hit Them",1
5d45e85dd7d4b80015384b4e,nbszlrd2n1,"Affordance Norms_Prolific",1,29,2023-01-06T19:54:46+00:00,8.7057259082794,66,"updated stim.csv",Version66.csv,"Version 66","List 66",violin,,1956,6.043478261,2865,0.876428523,1957,BOI,-,-,"Please name all of the ways you could use this object. Keep in mind that one object can have many uses. Separate your responses with a comma.",,y,7022,,,1765,4836,,,,"Play music, Concerts",1
5d45e85dd7d4b80015384b4e,nbszlrd2n1,"Affordance Norms_Prolific",1,30,2023-01-06T19:54:54+00:00,7.5734310150146,66,"updated stim.csv",Version66.csv,"Version 66","List 66",sauerkraut,,1970,5.148148148,2250,0.911181688,1971,BOI,-,-,"Please name all of the ways you could use this object. Keep in mind that one object can have many uses. Separate your responses with a comma.",,y,4897,,,1981,3510,,,,"Eat it",1
5d45e85dd7d4b80015384b4e,nbszlrd2n1,"Affordance Norms_Prolific",1,31,2023-01-06T19:55:09+00:00,14.99151802063,66,"updated stim.csv",Version66.csv,"Version 66","List 66",fryer,,1968,5.541666667,1062,0.657996675,1969,BOI,-,-,"Please name all of the ways you could use this object. Keep in mind that one object can have many uses. Separate your responses with a comma.",,y,13465,,,1957,10939,,,,"Air fryer, french fries, McDonalds",1
5d45e85dd7d4b80015384b4e,nbszlrd2n1,"Affordance Norms_Prolific",1,32,2023-01-06T19:55:17+00:00,7.92640209198,66,"updated stim.csv",Version66.csv,"Version 66","List 66",boardinghouse,,1964,4.565217391,254,0.484524633,1965,BOI,-,-,"Please name all of the ways you could use this object. Keep in mind that one object can have many uses. Separate your responses with a comma.",,y,5519,,,3045,4195,,,,Boarding,1
5d45e85dd7d4b80015384b4e,nbszlrd2n1,"Affordance Norms_Prolific",1,33,2023-01-06T19:55:33+00:00,15.82385802269,66,"updated stim.csv",Version66.csv,"Version 66","List 66",pallet,,1961,4.36,1853,0.880793692,1962,BOI,-,-,"Please name all of the ways you could use this object. Keep in mind that one object can have many uses. Separate your responses with a comma.",,y,14606,,,2324,13707,,,,"Carry wood, carry paints",1
5d45e85dd7d4b80015384b4e,nbszlrd2n1,"Affordance Norms_Prolific",1,34,2023-01-06T19:55:53+00:00,20.011599779129,66,"updated stim.csv",Version66.csv,"Version 66","List 66",anvil,,1972,5.24,54,0.206360111,1973,BOI,-,-,"Please name all of the ways you could use this object. Keep in mind that one object can have many uses. Separate your responses with a comma.",,y,17774,,,4797,16364,,,,"Blacksmithing, fix tools, repair tools in Minecraft",1
5d45e85dd7d4b80015384b4e,nbszlrd2n1,"Affordance Norms_Prolific",1,35,2023-01-06T19:56:13+00:00,19.873231172562,66,"updated stim.csv",Version66.csv,"Version 66","List 66",photocopy,,1979,4.260869565,1943,0.576049314,1980,BOI,-,-,"Please name all of the ways you could use this object. Keep in mind that one object can have many uses. Separate your responses with a comma.",,y,18322,,,2072,17382,,,,"Copy photos, print copies, handouts, flyers",1
5d45e85dd7d4b80015384b4e,nbszlrd2n1,"Affordance Norms_Prolific",1,36,2023-01-06T19:56:48+00:00,35.180425882339,66,"updated stim.csv",Version66.csv,"Version 66","List 66",egg,,1952,6.068965517,892,0.78590374,1953,BOI,-,-,"Please name all of the ways you could use this object. Keep in mind that one object can have many uses. Separate your responses with a comma.",,y,30525,,,8604,29259,,,,"Fry, hard boil, soft boil, eat, cakes, omelette, scrambled, chicken, pranks",1
5d45e85dd7d4b80015384b4e,nbszlrd2n1,"Affordance Norms_Prolific",1,37,2023-01-06T19:56:57+00:00,9.4851880073547,66,"updated stim.csv",Version66.csv,"Version 66","List 66",surfboard,,1960,5.916666667,2594,0.932427214,1961,BOI,-,-,"Please name all of the ways you could use this object. Keep in mind that one object can have many uses. Separate your responses with a comma.",,y,6380,,,1873,5073,,,,"Surf, ride the waves",1
5d45e85dd7d4b80015384b4e,nbszlrd2n1,"Affordance Norms_Prolific",1,38,2023-01-06T19:57:12+00:00,14.297142028809,66,"updated stim.csv",Version66.csv,"Version 66","List 66",produce,,1953,5.565217391,2070,0.769192517,1954,BOI,-,-,"Please name all of the ways you could use this object. Keep in mind that one object can have many uses. Separate your responses with a comma.",,y,12384,,,2189,11236,,,,"Fruit, Vegetables, Meat, Fish, Milk",1
5d45e85dd7d4b80015384b4e,nbszlrd2n1,"Affordance Norms_Prolific",1,39,2023-01-06T19:57:25+00:00,13.498773097992,66,"updated stim.csv",Version66.csv,"Version 66","List 66",earth,,1965,5.555555556,882,0.938265585,1966,BOI,-,-,"Please name all of the ways you could use this object. Keep in mind that one object can have many uses. Separate your responses with a comma.",,y,12059,,,2096,10991,,,,"Planet, soil, planting, walking, dirt",1
5d45e85dd7d4b80015384b4e,nbszlrd2n1,"Affordance Norms_Prolific",1,40,2023-01-06T19:57:33+00:00,7.7246479988098,66,"updated stim.csv",Version66.csv,"Version 66","List 66",compasses,,1974,5.2,613,0.498350821,1975,BOI,-,-,"Please name all of the ways you could use this object. Keep in mind that one object can have many uses. Separate your responses with a comma.",,y,6066,,,2128,4671,,,,"Find your way",1
5d45e85dd7d4b80015384b4e,nbszlrd2n1,"Affordance Norms_Prolific",1,41,2023-01-06T19:57:35+00:00,2.5520169734955,66,"updated stim.csv",Version66.csv,"Version 66","List 66",,,,,,,0,Instruct,,,"You will now be asked a few questions about your experience today.",,"Instruct 4",1565,,,-1,-1,,,,,1
