Username,ID,ExperimentName,Session,Trial,Date,TimeDif,"Condition Number","Stimuli File","Order File","Condition Description","Condition Notes",Stimuli*Cue,Stimuli*Answer,Stimuli*Shuffle,"Stimuli*Stimuli Notes",Stimuli*Value,Procedure*Item,"Procedure*Trial Type","Procedure*Max Time","Procedure*Min Time",Procedure*Text,"Procedure*Procedure Notes",Procedure*Shuffle,Response*RT,Response*Response,Response*Accuracy,Response*RTfirst,Response*RTlast,Response*strictAcc,Response*lenientAcc,Response*focus,Response*JOL,Response*Focus
w10019176,shi8cvymcr,"BOI Norms",1,1,2022-05-03T07:21:48+00:00,11.447201967239,25,"updated stim.csv",Version25.csv,"Version 25","List 25",,,,,,0,Instruct,-,10,"In this section, you will be presented with a series of objects. Please name as many possible uses for this object as you can think of by typing them in the box below each object.",,Instruct1,11350,,,-1,-1,,,,,1
w10019176,shi8cvymcr,"BOI Norms",1,2,2022-05-03T07:21:59+00:00,11.069535017014,25,"updated stim.csv",Version25.csv,"Version 25","List 25",,,,,,0,Instruct,-,10,"Please keep in mind that a single object will have more than one use. For example, a ball can be thrown or can be bounced or even stepped on. When listing multiple uses for one object, please separate each use with a comma (i.e., thrown, bounced, stepped on)",,Instruct2,10933,,,-1,-1,,,,,1
w10019176,shi8cvymcr,"BOI Norms",1,3,2022-05-03T07:22:02+00:00,2.7758040428162,25,"updated stim.csv",Version25.csv,"Version 25","List 25",,,,,,0,Instruct,-,-,"Before starting the experiment, you will complete a short practice sesstion. Press ENTER when you are ready to begin.",,Instruct3,2668,,,-1,-1,,,,,1
w10019176,shi8cvymcr,"BOI Norms",1,4,2022-05-03T07:22:31+00:00,28.74531006813,25,"updated stim.csv",Version25.csv,"Version 25","List 25",shortening,,3002,4.92,2358,3003,BOI,-,-,"Please name all of the ways you could use this object. Keep in mind that one object can have many uses. Separate your responses with a comma.",,n,28604,,,10465,27527,,,,"cutting hair, cutting pieces of cloth, ",1
w10019176,shi8cvymcr,"BOI Norms",1,5,2022-05-03T07:22:53+00:00,21.935119867325,25,"updated stim.csv",Version25.csv,"Version 25","List 25",grain,,3004,5.217391304,1143,3005,BOI,-,-,"Please name all of the ways you could use this object. Keep in mind that one object can have many uses. Separate your responses with a comma.",,n,21777,,,2535,20518,,,,"bread, grains of salt, grains of rice, grains of wheat",1
w10019176,shi8cvymcr,"BOI Norms",1,6,2022-05-03T07:23:14+00:00,21.330183982849,25,"updated stim.csv",Version25.csv,"Version 25","List 25",saucer,,3005,5.777777778,2249,3006,BOI,-,-,"Please name all of the ways you could use this object. Keep in mind that one object can have many uses. Separate your responses with a comma.",,n,21191,,,3319,16893,,,,"frisbe, ",1
w10019176,shi8cvymcr,"BOI Norms",1,7,2022-05-03T07:23:45+00:00,30.500273942947,25,"updated stim.csv",Version25.csv,"Version 25","List 25",spaghetti,,3003,6,2461,3004,BOI,-,-,"Please name all of the ways you could use this object. Keep in mind that one object can have many uses. Separate your responses with a comma.",,n,30312,,,1738,27610,,,,"eating, cooking ,tasting , boiling, ",1
w10019176,shi8cvymcr,"BOI Norms",1,8,2022-05-03T07:24:23+00:00,38.67992401123,25,"updated stim.csv",Version25.csv,"Version 25","List 25",paperwork,,3001,5.625,1866,3002,BOI,-,-,"Please name all of the ways you could use this object. Keep in mind that one object can have many uses. Separate your responses with a comma.",,n,38522,,,1866,36006,,,,"filing paperwork, doing paperwork, submitting paperwork, overlooking paperwork",1
w10019176,shi8cvymcr,"BOI Norms",1,9,2022-05-03T07:24:25+00:00,1.7644200325012,25,"updated stim.csv",Version25.csv,"Version 25","List 25",,,,,,0,Instruct,-,-,"You have completed this section. Press ENTER to continue",,"Instruct 5",1649,,,-1,-1,,,,,1
w10019176,shi8cvymcr,"BOI Norms",1,10,2022-05-03T07:24:27+00:00,1.8549561500549,25,"updated stim.csv",Version25.csv,"Version 25","List 25",,,,,,0,Instruct,-,-,"You will now start the full experiment. Press ENTER when you are ready to begin.",,,1737,,,-1,-1,,,,,1
w10019176,shi8cvymcr,"BOI Norms",1,11,2022-05-03T07:25:04+00:00,37.372203826904,25,"updated stim.csv",Version25.csv,"Version 25","List 25",salmon,,748,4.454545455,2224,749,BOI,-,-,"Please name all of the ways you could use this object. Keep in mind that one object can have many uses. Separate your responses with a comma.",,y,37224,,,1306,36152,,,,"eating, cooking, frying, baking, catching, seasoning, cleaning, swimming salmon",1
w10019176,shi8cvymcr,"BOI Norms",1,12,2022-05-03T07:25:26+00:00,21.824828147888,25,"updated stim.csv",Version25.csv,"Version 25","List 25",seam,,727,4.44,2295,728,BOI,-,-,"Please name all of the ways you could use this object. Keep in mind that one object can have many uses. Separate your responses with a comma.",,y,21684,,,2540,18020,,,,"sew the seam, break the seam, ",1
w10019176,shi8cvymcr,"BOI Norms",1,13,2022-05-03T07:25:45+00:00,19.199407815933,25,"updated stim.csv",Version25.csv,"Version 25","List 25",capes,,730,4.481481481,425,731,BOI,-,-,"Please name all of the ways you could use this object. Keep in mind that one object can have many uses. Separate your responses with a comma.",,y,19004,,,1862,16796,,,,"wear the cape, letting the cape fly, decorating the cape, ",1
w10019176,shi8cvymcr,"BOI Norms",1,14,2022-05-03T07:26:11+00:00,25.924637079239,25,"updated stim.csv",Version25.csv,"Version 25","List 25",sheep,,736,4.5,2328,737,BOI,-,-,"Please name all of the ways you could use this object. Keep in mind that one object can have many uses. Separate your responses with a comma.",,y,25770,,,1607,24944,,,,"counting sheep, guiding sheep, feeding sheep, shaving sheep, cleaning sheep",1
w10019176,shi8cvymcr,"BOI Norms",1,15,2022-05-03T07:26:16+00:00,5.0217249393463,25,"updated stim.csv",Version25.csv,"Version 25","List 25",cutlet,,745,5.272727273,739,746,BOI,-,-,"Please name all of the ways you could use this object. Keep in mind that one object can have many uses. Separate your responses with a comma.",,y,4887,,,3133,3902,,,,steak,1
w10019176,shi8cvymcr,"BOI Norms",1,16,2022-05-03T07:26:38+00:00,21.165635108948,25,"updated stim.csv",Version25.csv,"Version 25","List 25",painkiller,,743,5.518518519,1846,744,BOI,-,-,"Please name all of the ways you could use this object. Keep in mind that one object can have many uses. Separate your responses with a comma.",,y,20798,,,1290,17192,,,,"take painkiller, snort painkiller, throw away the painkiller,",1
w10019176,shi8cvymcr,"BOI Norms",1,17,2022-05-03T07:26:54+00:00,16.066545963287,25,"updated stim.csv",Version25.csv,"Version 25","List 25",pickaxe,,746,5.333333333,1949,747,BOI,-,-,"Please name all of the ways you could use this object. Keep in mind that one object can have many uses. Separate your responses with a comma.",,y,15925,,,4104,11556,,,,"cutting trees, cutting branches, ",1
w10019176,shi8cvymcr,"BOI Norms",1,18,2022-05-03T07:27:19+00:00,25.367031097412,25,"updated stim.csv",Version25.csv,"Version 25","List 25",lock,,740,5.173913043,1535,741,BOI,-,-,"Please name all of the ways you could use this object. Keep in mind that one object can have many uses. Separate your responses with a comma.",,y,25193,,,3463,23384,,,,"locking the door, locking the window, putting the lock on a gate, ",1
w10019176,shi8cvymcr,"BOI Norms",1,19,2022-05-03T07:27:41+00:00,21.81384396553,25,"updated stim.csv",Version25.csv,"Version 25","List 25",snowflake,,723,5,2434,724,BOI,-,-,"Please name all of the ways you could use this object. Keep in mind that one object can have many uses. Separate your responses with a comma.",,y,21659,,,2365,20518,,,,"playing with snowflakes, letting snowflakes get on your hair, ",1
w10019176,shi8cvymcr,"BOI Norms",1,20,2022-05-03T07:27:56+00:00,14.876945972443,25,"updated stim.csv",Version25.csv,"Version 25","List 25",microphone,,726,6.043478261,1654,727,BOI,-,-,"Please name all of the ways you could use this object. Keep in mind that one object can have many uses. Separate your responses with a comma.",,y,14740,,,1398,11072,,,,"sing, dance, talk, rap, ",1
w10019176,shi8cvymcr,"BOI Norms",1,21,2022-05-03T07:28:48+00:00,52.276334047318,25,"updated stim.csv",Version25.csv,"Version 25","List 25",cornstarch,,729,5.043478261,650,730,BOI,-,-,"Please name all of the ways you could use this object. Keep in mind that one object can have many uses. Separate your responses with a comma.",,y,52109,,,3596,47025,,,,"cornbread, for gummy candy, thickening agent",1
w10019176,shi8cvymcr,"BOI Norms",1,22,2022-05-03T07:29:00+00:00,11.579749822617,25,"updated stim.csv",Version25.csv,"Version 25","List 25",toupee,,749,6.217391304,2743,750,BOI,-,-,"Please name all of the ways you could use this object. Keep in mind that one object can have many uses. Separate your responses with a comma.",,y,11421,,,3588,10167,,,,"wear, rip off head",1
w10019176,shi8cvymcr,"BOI Norms",1,23,2022-05-03T07:29:05+00:00,5.5825731754303,25,"updated stim.csv",Version25.csv,"Version 25","List 25",cod,,732,4.458333333,591,733,BOI,-,-,"Please name all of the ways you could use this object. Keep in mind that one object can have many uses. Separate your responses with a comma.",,y,5438,,,3485,3859,,,,eat,1
w10019176,shi8cvymcr,"BOI Norms",1,24,2022-05-03T07:29:21+00:00,15.698554039001,25,"updated stim.csv",Version25.csv,"Version 25","List 25",boxer,,737,4.608695652,295,738,BOI,-,-,"Please name all of the ways you could use this object. Keep in mind that one object can have many uses. Separate your responses with a comma.",,y,15543,,,2021,14701,,,,"wear, train to be a boxer",1
w10019176,shi8cvymcr,"BOI Norms",1,25,2022-05-03T07:29:39+00:00,17.817971944809,25,"updated stim.csv",Version25.csv,"Version 25","List 25",kindling,,747,4.583333333,1421,748,BOI,-,-,"Please name all of the ways you could use this object. Keep in mind that one object can have many uses. Separate your responses with a comma.",,y,17673,,,8980,16788,,,,"re-kindle a relationship",1
w10019176,shi8cvymcr,"BOI Norms",1,26,2022-05-03T07:29:42+00:00,3.733167886734,25,"updated stim.csv",Version25.csv,"Version 25","List 25",drunkard,,739,4.571428571,856,740,BOI,-,-,"Please name all of the ways you could use this object. Keep in mind that one object can have many uses. Separate your responses with a comma.",,y,3615,,,2507,2507,,,,?,1
w10019176,shi8cvymcr,"BOI Norms",1,27,2022-05-03T07:29:50+00:00,7.2898299694061,25,"updated stim.csv",Version25.csv,"Version 25","List 25",dude,,721,5,863,722,BOI,-,-,"Please name all of the ways you could use this object. Keep in mind that one object can have many uses. Separate your responses with a comma.",,y,7165,,,5240,6191,,,,friend,1
w10019176,shi8cvymcr,"BOI Norms",1,28,2022-05-03T07:29:53+00:00,3.542473077774,25,"updated stim.csv",Version25.csv,"Version 25","List 25",perspiration,,722,4.826086957,1931,723,BOI,-,-,"Please name all of the ways you could use this object. Keep in mind that one object can have many uses. Separate your responses with a comma.",,y,3407,,,-1,-1,,,,,1
w10019176,shi8cvymcr,"BOI Norms",1,29,2022-05-03T07:30:05+00:00,11.931432962418,25,"updated stim.csv",Version25.csv,"Version 25","List 25",sandcastle,,741,5.095238095,2236,742,BOI,-,-,"Please name all of the ways you could use this object. Keep in mind that one object can have many uses. Separate your responses with a comma.",,y,11796,,,1265,10861,,,,"build, play, knock down",1
w10019176,shi8cvymcr,"BOI Norms",1,30,2022-05-03T07:30:14+00:00,8.8940410614014,25,"updated stim.csv",Version25.csv,"Version 25","List 25",grape,,733,6.214285714,1156,734,BOI,-,-,"Please name all of the ways you could use this object. Keep in mind that one object can have many uses. Separate your responses with a comma.",,y,8764,,,1266,7593,,,,"eat, drink",1
w10019176,shi8cvymcr,"BOI Norms",1,31,2022-05-03T07:30:23+00:00,8.9087839126587,25,"updated stim.csv",Version25.csv,"Version 25","List 25",dice,,750,6.192307692,789,751,BOI,-,-,"Please name all of the ways you could use this object. Keep in mind that one object can have many uses. Separate your responses with a comma.",,y,8741,,,1234,7513,,,,"roll, shake, cut ",1
w10019176,shi8cvymcr,"BOI Norms",1,32,2022-05-03T07:30:26+00:00,3.1485021114349,25,"updated stim.csv",Version25.csv,"Version 25","List 25",polyester,,738,5.086956522,2025,739,BOI,-,-,"Please name all of the ways you could use this object. Keep in mind that one object can have many uses. Separate your responses with a comma.",,y,3039,,,1636,2116,,,,wear,1
w10019176,shi8cvymcr,"BOI Norms",1,33,2022-05-03T07:30:29+00:00,3.1368989944458,25,"updated stim.csv",Version25.csv,"Version 25","List 25",baton,,744,5.913043478,171,745,BOI,-,-,"Please name all of the ways you could use this object. Keep in mind that one object can have many uses. Separate your responses with a comma.",,y,3022,,,1751,2089,,,,hit,1
w10019176,shi8cvymcr,"BOI Norms",1,34,2022-05-03T07:30:33+00:00,3.7238528728485,25,"updated stim.csv",Version25.csv,"Version 25","List 25",spike,,742,4.615384615,2473,743,BOI,-,-,"Please name all of the ways you could use this object. Keep in mind that one object can have many uses. Separate your responses with a comma.",,y,3594,,,1430,2262,,,,"hit ",1
w10019176,shi8cvymcr,"BOI Norms",1,35,2022-05-03T07:30:39+00:00,5.6580190658569,25,"updated stim.csv",Version25.csv,"Version 25","List 25",sandbag,,734,5.25,2233,735,BOI,-,-,"Please name all of the ways you could use this object. Keep in mind that one object can have many uses. Separate your responses with a comma.",,y,5533,,,4217,4668,,,,sand,1
w10019176,shi8cvymcr,"BOI Norms",1,36,2022-05-03T07:30:44+00:00,5.1444549560547,25,"updated stim.csv",Version25.csv,"Version 25","List 25",carpet,,728,6.041666667,437,729,BOI,-,-,"Please name all of the ways you could use this object. Keep in mind that one object can have many uses. Separate your responses with a comma.",,y,5020,,,2416,3292,,,,"walk on",1
w10019176,shi8cvymcr,"BOI Norms",1,37,2022-05-03T07:30:49+00:00,5.7185161113739,25,"updated stim.csv",Version25.csv,"Version 25","List 25",housemaid,,724,4.84,1332,725,BOI,-,-,"Please name all of the ways you could use this object. Keep in mind that one object can have many uses. Separate your responses with a comma.",,y,5587,,,1800,4579,,,,"clean, aid",1
w10019176,shi8cvymcr,"BOI Norms",1,38,2022-05-03T07:31:01+00:00,11.090017080307,25,"updated stim.csv",Version25.csv,"Version 25","List 25",turntable,,725,5.347826087,2804,726,BOI,-,-,"Please name all of the ways you could use this object. Keep in mind that one object can have many uses. Separate your responses with a comma.",,y,10956,,,9835,10070,,,,dj,1
w10019176,shi8cvymcr,"BOI Norms",1,39,2022-05-03T07:31:06+00:00,5.7836668491364,25,"updated stim.csv",Version25.csv,"Version 25","List 25",railroad,,735,4.333333333,2128,736,BOI,-,-,"Please name all of the ways you could use this object. Keep in mind that one object can have many uses. Separate your responses with a comma.",,y,5651,,,3118,4829,,,,"ride a train",1
w10019176,shi8cvymcr,"BOI Norms",1,40,2022-05-03T07:31:13+00:00,6.362044095993,25,"updated stim.csv",Version25.csv,"Version 25","List 25",dryer,,731,5.56,857,732,BOI,-,-,"Please name all of the ways you could use this object. Keep in mind that one object can have many uses. Separate your responses with a comma.",,y,6232,,,2618,5545,,,,"clothes dryer ",1
w10019176,shi8cvymcr,"BOI Norms",1,41,2022-05-03T07:31:14+00:00,1.6462428569794,25,"updated stim.csv",Version25.csv,"Version 25","List 25",,,,,,0,Instruct,,,"You will now be asked a few questions about your experience today.",,"Instruct 4",1542,,,-1,-1,,,,,1
