Username,ID,ExperimentName,Session,Trial,Date,TimeDif,"Condition Number","Stimuli File","Order File","Condition Description","Condition Notes",Stimuli*Cue,Stimuli*Answer,Stimuli*Shuffle,"Stimuli*Stimuli Notes",Stimuli*Value,Procedure*Item,"Procedure*Trial Type","Procedure*Max Time","Procedure*Min Time",Procedure*Text,"Procedure*Procedure Notes",Procedure*Shuffle,Response*RT,Response*Response,Response*Accuracy,Response*RTfirst,Response*RTlast,Response*strictAcc,Response*lenientAcc,Response*focus,Response*JOL,Response*Focus
w10113471plm,jkil3p84mf,"BOI Norms",1,1,2022-04-07T00:54:13+00:00,11.10400390625,21,"updated stim.csv",Version21.csv,"Version 21","List 21",,,,,,0,Instruct,-,10,"In this section, you will be presented with a series of objects. Please name as many possible uses for this object as you can think of by typing them in the box below each object.",,Instruct1,11013,,,-1,-1,,,,,1
w10113471plm,jkil3p84mf,"BOI Norms",1,2,2022-04-07T00:54:24+00:00,11.112045049667,21,"updated stim.csv",Version21.csv,"Version 21","List 21",,,,,,0,Instruct,-,10,"Please keep in mind that a single object will have more than one use. For example, a ball can be thrown or can be bounced or even stepped on. When listing multiple uses for one object, please separate each use with a comma (i.e., thrown, bounced, stepped on)",,Instruct2,10975,,,-1,-1,,,,,1
w10113471plm,jkil3p84mf,"BOI Norms",1,3,2022-04-07T00:54:27+00:00,3.0781030654907,21,"updated stim.csv",Version21.csv,"Version 21","List 21",,,,,,0,Instruct,-,-,"Before starting the experiment, you will complete a short practice sesstion. Press ENTER when you are ready to begin.",,Instruct3,2959,,,-1,-1,,,,,1
w10113471plm,jkil3p84mf,"BOI Norms",1,4,2022-04-07T00:54:48+00:00,21.415035963058,21,"updated stim.csv",Version21.csv,"Version 21","List 21",spaghetti,,3003,6,2461,3004,BOI,-,-,"Please name all of the ways you could use this object. Keep in mind that one object can have many uses. Separate your responses with a comma.",,n,21298,,,1854,20007,,,,"food, crafts, toy, meal",1
w10113471plm,jkil3p84mf,"BOI Norms",1,5,2022-04-07T00:55:11+00:00,23.346705913544,21,"updated stim.csv",Version21.csv,"Version 21","List 21",shortening,,3002,4.92,2358,3003,BOI,-,-,"Please name all of the ways you could use this object. Keep in mind that one object can have many uses. Separate your responses with a comma.",,n,23212,,,2186,21109,,,,"baking, slicking, food",1
w10113471plm,jkil3p84mf,"BOI Norms",1,6,2022-04-07T00:55:32+00:00,20.161201953888,21,"updated stim.csv",Version21.csv,"Version 21","List 21",saucer,,3005,5.777777778,2249,3006,BOI,-,-,"Please name all of the ways you could use this object. Keep in mind that one object can have many uses. Separate your responses with a comma.",,n,20027,,,2566,18740,,,,"food, jewelry holder, crafts, tea, coaster ",1
w10113471plm,jkil3p84mf,"BOI Norms",1,7,2022-04-07T00:55:51+00:00,19.398470163345,21,"updated stim.csv",Version21.csv,"Version 21","List 21",paperwork,,3001,5.625,1866,3002,BOI,-,-,"Please name all of the ways you could use this object. Keep in mind that one object can have many uses. Separate your responses with a comma.",,n,19270,,,1683,18295,,,,"homework, office, job, exam, studying, notes",1
w10113471plm,jkil3p84mf,"BOI Norms",1,8,2022-04-07T00:56:07+00:00,16.398108005524,21,"updated stim.csv",Version21.csv,"Version 21","List 21",grain,,3004,5.217391304,1143,3005,BOI,-,-,"Please name all of the ways you could use this object. Keep in mind that one object can have many uses. Separate your responses with a comma.",,n,16265,,,2104,15396,,,,"wheat, food, tiny, pinch of something",1
w10113471plm,jkil3p84mf,"BOI Norms",1,9,2022-04-07T00:56:10+00:00,2.4619400501251,21,"updated stim.csv",Version21.csv,"Version 21","List 21",,,,,,0,Instruct,-,-,"You have completed this section. Press ENTER to continue",,"Instruct 5",2337,,,-1,-1,,,,,1
w10113471plm,jkil3p84mf,"BOI Norms",1,10,2022-04-07T00:56:12+00:00,1.6620697975159,21,"updated stim.csv",Version21.csv,"Version 21","List 21",,,,,,0,Instruct,-,-,"You will now start the full experiment. Press ENTER when you are ready to begin.",,,1547,,,-1,-1,,,,,1
w10113471plm,jkil3p84mf,"BOI Norms",1,11,2022-04-07T00:56:46+00:00,34.794200181961,21,"updated stim.csv",Version21.csv,"Version 21","List 21",ring,,624,6.130434783,2170,625,BOI,-,-,"Please name all of the ways you could use this object. Keep in mind that one object can have many uses. Separate your responses with a comma.",,y,34671,,,3634,33904,,,,"jewelry, sounding off, bell, wedding, accessories, tie something off, shake something, ",1
w10113471plm,jkil3p84mf,"BOI Norms",1,12,2022-04-07T00:57:08+00:00,21.427897930145,21,"updated stim.csv",Version21.csv,"Version 21","List 21",snowshoe,,605,5.541666667,2436,606,BOI,-,-,"Please name all of the ways you could use this object. Keep in mind that one object can have many uses. Separate your responses with a comma.",,y,21288,,,2398,20388,,,,"snowboarding, walking in the snow, skiing, hiking",1
w10113471plm,jkil3p84mf,"BOI Norms",1,13,2022-04-07T00:57:45+00:00,37.588455915451,21,"updated stim.csv",Version21.csv,"Version 21","List 21",checkerboard,,609,5.391304348,500,610,BOI,-,-,"Please name all of the ways you could use this object. Keep in mind that one object can have many uses. Separate your responses with a comma.",,y,37450,,,3879,36707,,,,"gaming, table, coaster, prop something up on it",1
w10113471plm,jkil3p84mf,"BOI Norms",1,14,2022-04-07T00:58:12+00:00,26.89307308197,21,"updated stim.csv",Version21.csv,"Version 21","List 21",schoolhouse,,612,5.291666667,2272,613,BOI,-,-,"Please name all of the ways you could use this object. Keep in mind that one object can have many uses. Separate your responses with a comma.",,y,26759,,,1969,14142,,,,"education, meeting place, job",1
w10113471plm,jkil3p84mf,"BOI Norms",1,15,2022-04-07T00:58:46+00:00,33.973171949387,21,"updated stim.csv",Version21.csv,"Version 21","List 21",splint,,618,4.958333333,2477,619,BOI,-,-,"Please name all of the ways you could use this object. Keep in mind that one object can have many uses. Separate your responses with a comma.",,y,33830,,,14052,30298,,,,"support for injury, healing",1
w10113471plm,jkil3p84mf,"BOI Norms",1,16,2022-04-07T00:59:31+00:00,45.246212005615,21,"updated stim.csv",Version21.csv,"Version 21","List 21",whore,,608,4.782608696,2933,609,BOI,-,-,"Please name all of the ways you could use this object. Keep in mind that one object can have many uses. Separate your responses with a comma.",,y,45116,,,24909,38640,,,,"sex, satisfaction, money",1
w10113471plm,jkil3p84mf,"BOI Norms",1,17,2022-04-07T01:00:25+00:00,53.397555112839,21,"updated stim.csv",Version21.csv,"Version 21","List 21",muffler,,616,4.75,1712,617,BOI,-,-,"Please name all of the ways you could use this object. Keep in mind that one object can have many uses. Separate your responses with a comma.",,y,53266,,,2287,52153,,,,"car parts, scarf, warming, quieting sound",1
w10113471plm,jkil3p84mf,"BOI Norms",1,18,2022-04-07T01:00:58+00:00,32.630932807922,21,"updated stim.csv",Version21.csv,"Version 21","List 21",bell,,614,5.76,196,615,BOI,-,-,"Please name all of the ways you could use this object. Keep in mind that one object can have many uses. Separate your responses with a comma.",,y,32518,,,3351,29377,,,,"announce something, gain attention, playing a game",1
w10113471plm,jkil3p84mf,"BOI Norms",1,19,2022-04-07T01:01:21+00:00,23.331831216812,21,"updated stim.csv",Version21.csv,"Version 21","List 21",spinach,,626,4.96,2474,627,BOI,-,-,"Please name all of the ways you could use this object. Keep in mind that one object can have many uses. Separate your responses with a comma.",,y,23173,,,1865,18087,,,,"cooking, adding nutrients, adding color",1
w10113471plm,jkil3p84mf,"BOI Norms",1,20,2022-04-07T01:01:40+00:00,19.446676969528,21,"updated stim.csv",Version21.csv,"Version 21","List 21",gumdrop,,628,5.875,1197,629,BOI,-,-,"Please name all of the ways you could use this object. Keep in mind that one object can have many uses. Separate your responses with a comma.",,y,19302,,,2310,18640,,,,"chewing, blowing bubbles, sweet treat, jaw exercise ",1
w10113471plm,jkil3p84mf,"BOI Norms",1,21,2022-04-07T01:01:53+00:00,13.166119813919,21,"updated stim.csv",Version21.csv,"Version 21","List 21",iguana,,617,5.166666667,1350,618,BOI,-,-,"Please name all of the ways you could use this object. Keep in mind that one object can have many uses. Separate your responses with a comma.",,y,13042,,,1856,12354,,,,"pet, eating bugs, company",1
w10113471plm,jkil3p84mf,"BOI Norms",1,22,2022-04-07T01:02:02+00:00,8.6480941772461,21,"updated stim.csv",Version21.csv,"Version 21","List 21",lizard,,606,4.925925926,1529,607,BOI,-,-,"Please name all of the ways you could use this object. Keep in mind that one object can have many uses. Separate your responses with a comma.",,y,8359,,,1555,7377,,,,"pet, eating bugs, company",1
w10113471plm,jkil3p84mf,"BOI Norms",1,23,2022-04-07T01:02:45+00:00,42.949573993683,21,"updated stim.csv",Version21.csv,"Version 21","List 21",cadillac,,621,5.12,395,622,BOI,-,-,"Please name all of the ways you could use this object. Keep in mind that one object can have many uses. Separate your responses with a comma.",,y,42808,,,2318,41832,,,,"transportation, photo prop, play music, lighting",1
w10113471plm,jkil3p84mf,"BOI Norms",1,24,2022-04-07T01:03:14+00:00,29.365784883499,21,"updated stim.csv",Version21.csv,"Version 21","List 21",can,,619,4.88,408,620,BOI,-,-,"Please name all of the ways you could use this object. Keep in mind that one object can have many uses. Separate your responses with a comma.",,y,29233,,,3024,27668,,,,"hold items, muffle sounds, crafts, preserve food",1
w10113471plm,jkil3p84mf,"BOI Norms",1,25,2022-04-07T01:03:31+00:00,16.874639987946,21,"updated stim.csv",Version21.csv,"Version 21","List 21",placenta,,629,4.28,1984,630,BOI,-,-,"Please name all of the ways you could use this object. Keep in mind that one object can have many uses. Separate your responses with a comma.",,y,16742,,,5283,15463,,,,"gain nutrients, provide nutrients",1
w10113471plm,jkil3p84mf,"BOI Norms",1,26,2022-04-07T01:03:49+00:00,17.840564966202,21,"updated stim.csv",Version21.csv,"Version 21","List 21",guesthouse,,627,4.913043478,1189,628,BOI,-,-,"Please name all of the ways you could use this object. Keep in mind that one object can have many uses. Separate your responses with a comma.",,y,17711,,,4923,15469,,,,"room for company, storage room, hobby room",1
w10113471plm,jkil3p84mf,"BOI Norms",1,27,2022-04-07T01:04:06+00:00,17.084886074066,21,"updated stim.csv",Version21.csv,"Version 21","List 21",piano,,630,6.166666667,1947,631,BOI,-,-,"Please name all of the ways you could use this object. Keep in mind that one object can have many uses. Separate your responses with a comma.",,y,16950,,,1497,14396,,,,"play music, photo prop, stage prop, decor",1
w10113471plm,jkil3p84mf,"BOI Norms",1,28,2022-04-07T01:04:32+00:00,25.862855911255,21,"updated stim.csv",Version21.csv,"Version 21","List 21",ammo,,603,5.32,34,604,BOI,-,-,"Please name all of the ways you could use this object. Keep in mind that one object can have many uses. Separate your responses with a comma.",,y,25605,,,5004,21532,,,,"shooting a target, harming someone, evidence",1
w10113471plm,jkil3p84mf,"BOI Norms",1,29,2022-04-07T01:05:04+00:00,31.421357154846,21,"updated stim.csv",Version21.csv,"Version 21","List 21",cutlery,,607,5.913043478,738,608,BOI,-,-,"Please name all of the ways you could use this object. Keep in mind that one object can have many uses. Separate your responses with a comma.",,y,31273,,,2659,30132,,,,"cutting food, table decor, kitchen decor, picking up food",1
w10113471plm,jkil3p84mf,"BOI Norms",1,30,2022-04-07T01:06:02+00:00,58.533676862717,21,"updated stim.csv",Version21.csv,"Version 21","List 21",bugle,,622,4.541666667,348,623,BOI,-,-,"Please name all of the ways you could use this object. Keep in mind that one object can have many uses. Separate your responses with a comma.",,y,58373,,,47740,55545,,,,"music playing, sound creation, decor",1
w10113471plm,jkil3p84mf,"BOI Norms",1,31,2022-04-07T01:06:29+00:00,26.655009031296,21,"updated stim.csv",Version21.csv,"Version 21","List 21",condominium,,620,4.678571429,623,621,BOI,-,-,"Please name all of the ways you could use this object. Keep in mind that one object can have many uses. Separate your responses with a comma.",,y,26522,,,2142,25391,,,,"living space, storage space, photo setting, film setting, tour it",1
w10113471plm,jkil3p84mf,"BOI Norms",1,32,2022-04-07T01:06:52+00:00,23.02348613739,21,"updated stim.csv",Version21.csv,"Version 21","List 21",frog,,604,5.125,1058,605,BOI,-,-,"Please name all of the ways you could use this object. Keep in mind that one object can have many uses. Separate your responses with a comma.",,y,22893,,,2762,20500,,,,"pet, bug catching, company",1
w10113471plm,jkil3p84mf,"BOI Norms",1,33,2022-04-07T01:07:29+00:00,37.523694992065,21,"updated stim.csv",Version21.csv,"Version 21","List 21",sunflower,,615,5.333333333,2587,616,BOI,-,-,"Please name all of the ways you could use this object. Keep in mind that one object can have many uses. Separate your responses with a comma.",,y,37392,,,1473,34858,,,,"smell it, put it in a vase, pick it, use the petals for decor",1
w10113471plm,jkil3p84mf,"BOI Norms",1,34,2022-04-07T01:08:32+00:00,62.812737941742,21,"updated stim.csv",Version21.csv,"Version 21","List 21",washroom,,625,5.037037037,2901,626,BOI,-,-,"Please name all of the ways you could use this object. Keep in mind that one object can have many uses. Separate your responses with a comma.",,y,62659,,,2568,61850,,,,"urinate, defecate, freshen up, wash hands, storage, photo setting ",1
w10113471plm,jkil3p84mf,"BOI Norms",1,35,2022-04-07T01:09:08+00:00,36.101139068604,21,"updated stim.csv",Version21.csv,"Version 21","List 21",toiletry,,602,5.222222222,2720,603,BOI,-,-,"Please name all of the ways you could use this object. Keep in mind that one object can have many uses. Separate your responses with a comma.",,y,35958,,,16349,31648,,,,"wash face, wash hair, wash body, makeup, hygiene products",1
w10113471plm,jkil3p84mf,"BOI Norms",1,36,2022-04-07T01:09:22+00:00,13.904619932175,21,"updated stim.csv",Version21.csv,"Version 21","List 21",quill,,613,4.565217391,2115,614,BOI,-,-,"Please name all of the ways you could use this object. Keep in mind that one object can have many uses. Separate your responses with a comma.",,y,13775,,,2273,12878,,,,"writing, stage prop, photo prop, decor",1
w10113471plm,jkil3p84mf,"BOI Norms",1,37,2022-04-07T01:09:42+00:00,20.372828006744,21,"updated stim.csv",Version21.csv,"Version 21","List 21",organ,,611,5.185185185,1820,612,BOI,-,-,"Please name all of the ways you could use this object. Keep in mind that one object can have many uses. Separate your responses with a comma.",,y,20239,,,4773,17931,,,,"donating to those in need, playing an instrument",1
w10113471plm,jkil3p84mf,"BOI Norms",1,38,2022-04-07T01:10:04+00:00,21.806580066681,21,"updated stim.csv",Version21.csv,"Version 21","List 21",steroids,,623,4.52,2532,624,BOI,-,-,"Please name all of the ways you could use this object. Keep in mind that one object can have many uses. Separate your responses with a comma.",,y,21673,,,3375,19530,,,,"beefing up muscles, beefing up immune systems, healing properties",1
w10113471plm,jkil3p84mf,"BOI Norms",1,39,2022-04-07T01:10:20+00:00,16.147017002106,21,"updated stim.csv",Version21.csv,"Version 21","List 21",seaweed,,610,4.458333333,2304,611,BOI,-,-,"Please name all of the ways you could use this object. Keep in mind that one object can have many uses. Separate your responses with a comma.",,y,16011,,,1696,14025,,,,"sushi, crunch, added flavor",1
w10113471plm,jkil3p84mf,"BOI Norms",1,40,2022-04-07T01:10:47+00:00,26.327085971832,21,"updated stim.csv",Version21.csv,"Version 21","List 21",gangster,,601,4.36,1072,602,BOI,-,-,"Please name all of the ways you could use this object. Keep in mind that one object can have many uses. Separate your responses with a comma.",,y,26193,,,14145,25372,,,,"drugs, friend, company",1
w10113471plm,jkil3p84mf,"BOI Norms",1,41,2022-04-07T01:10:49+00:00,1.7929878234863,21,"updated stim.csv",Version21.csv,"Version 21","List 21",,,,,,0,Instruct,,,"You will now be asked a few questions about your experience today.",,"Instruct 4",1661,,,-1,-1,,,,,1
