Username,ID,ExperimentName,Session,Trial,Date,TimeDif,"Condition Number","Stimuli File","Order File","Condition Description","Condition Notes",Stimuli*Cue,Stimuli*Answer,Stimuli*Shuffle,"Stimuli*Stimuli Notes",Stimuli*Value,Procedure*Item,"Procedure*Trial Type","Procedure*Max Time","Procedure*Min Time",Procedure*Text,"Procedure*Procedure Notes",Procedure*Shuffle,Response*RT,Response*Response,Response*Accuracy,Response*RTfirst,Response*RTlast,Response*strictAcc,Response*lenientAcc,Response*focus,Response*JOL,Response*Focus
w10075049_cgd,to2653zfdm,"BOI Norms",1,1,2022-04-21T02:14:47+00:00,16.994802951813,14,"updated stim.csv",Version14.csv,"Version 14","List 14",,,,,,0,Instruct,-,10,"In this section, you will be presented with a series of objects. Please name as many possible uses for this object as you can think of by typing them in the box below each object.",,Instruct1,16809,,,-1,-1,,,,,1
w10075049_cgd,to2653zfdm,"BOI Norms",1,2,2022-04-21T02:14:58+00:00,11.627313137054,14,"updated stim.csv",Version14.csv,"Version 14","List 14",,,,,,0,Instruct,-,10,"Please keep in mind that a single object will have more than one use. For example, a ball can be thrown or can be bounced or even stepped on. When listing multiple uses for one object, please separate each use with a comma (i.e., thrown, bounced, stepped on)",,Instruct2,11477,,,-1,-1,,,,,1
w10075049_cgd,to2653zfdm,"BOI Norms",1,3,2022-04-21T02:15:06+00:00,7.8981759548187,14,"updated stim.csv",Version14.csv,"Version 14","List 14",,,,,,0,Instruct,-,-,"Before starting the experiment, you will complete a short practice sesstion. Press ENTER when you are ready to begin.",,Instruct3,7747,,,-1,-1,,,,,1
w10075049_cgd,to2653zfdm,"BOI Norms",1,4,2022-04-21T02:15:28+00:00,21.375952959061,14,"updated stim.csv",Version14.csv,"Version 14","List 14",spaghetti,,3003,6,2461,3004,BOI,-,-,"Please name all of the ways you could use this object. Keep in mind that one object can have many uses. Separate your responses with a comma.",,n,21214,,,2700,16438,,,,"eat, play with, twirl",1
w10075049_cgd,to2653zfdm,"BOI Norms",1,5,2022-04-21T02:15:55+00:00,27.392246007919,14,"updated stim.csv",Version14.csv,"Version 14","List 14",grain,,3004,5.217391304,1143,3005,BOI,-,-,"Please name all of the ways you could use this object. Keep in mind that one object can have many uses. Separate your responses with a comma.",,n,27218,,,2290,26099,,,,"cook, crush, grind, boil",1
w10075049_cgd,to2653zfdm,"BOI Norms",1,6,2022-04-21T02:16:07+00:00,11.569164991379,14,"updated stim.csv",Version14.csv,"Version 14","List 14",saucer,,3005,5.777777778,2249,3006,BOI,-,-,"Please name all of the ways you could use this object. Keep in mind that one object can have many uses. Separate your responses with a comma.",,n,11406,,,6654,9854,,,,"hold liquids",1
w10075049_cgd,to2653zfdm,"BOI Norms",1,7,2022-04-21T02:16:22+00:00,15.026412963867,14,"updated stim.csv",Version14.csv,"Version 14","List 14",shortening,,3002,4.92,2358,3003,BOI,-,-,"Please name all of the ways you could use this object. Keep in mind that one object can have many uses. Separate your responses with a comma.",,n,14860,,,3175,13817,,,,"mix, scoop, cut, bake",1
w10075049_cgd,to2653zfdm,"BOI Norms",1,8,2022-04-21T02:16:37+00:00,15.340711116791,14,"updated stim.csv",Version14.csv,"Version 14","List 14",paperwork,,3001,5.625,1866,3002,BOI,-,-,"Please name all of the ways you could use this object. Keep in mind that one object can have many uses. Separate your responses with a comma.",,n,15164,,,2336,10036,,,,"file, shred, fold",1
w10075049_cgd,to2653zfdm,"BOI Norms",1,9,2022-04-21T02:16:41+00:00,3.6051199436188,14,"updated stim.csv",Version14.csv,"Version 14","List 14",,,,,,0,Instruct,-,-,"You have completed this section. Press ENTER to continue",,"Instruct 5",3474,,,-1,-1,,,,,1
w10075049_cgd,to2653zfdm,"BOI Norms",1,10,2022-04-21T02:16:44+00:00,3.653468132019,14,"updated stim.csv",Version14.csv,"Version 14","List 14",,,,,,0,Instruct,-,-,"You will now start the full experiment. Press ENTER when you are ready to begin.",,,3536,,,-1,-1,,,,,1
w10075049_cgd,to2653zfdm,"BOI Norms",1,11,2022-04-21T02:17:05+00:00,21.167623996735,14,"updated stim.csv",Version14.csv,"Version 14","List 14",crayon,,394,6.36,687,395,BOI,-,-,"Please name all of the ways you could use this object. Keep in mind that one object can have many uses. Separate your responses with a comma.",,y,21007,,,1797,20089,,,,"draw, write, scribble, break in half, sharpen, peel",1
w10075049_cgd,to2653zfdm,"BOI Norms",1,12,2022-04-21T02:17:22+00:00,16.840567827225,14,"updated stim.csv",Version14.csv,"Version 14","List 14",seasoning,,411,4.47826087,2300,412,BOI,-,-,"Please name all of the ways you could use this object. Keep in mind that one object can have many uses. Separate your responses with a comma.",,y,16671,,,1644,15470,,,,"mix, spread, grind, sprinkle",1
w10075049_cgd,to2653zfdm,"BOI Norms",1,13,2022-04-21T02:17:41+00:00,18.40913105011,14,"updated stim.csv",Version14.csv,"Version 14","List 14",earring,,405,6.428571429,881,406,BOI,-,-,"Please name all of the ways you could use this object. Keep in mind that one object can have many uses. Separate your responses with a comma.",,y,18222,,,5702,15690,,,,"wear, accessorize",1
w10075049_cgd,to2653zfdm,"BOI Norms",1,14,2022-04-21T02:18:11+00:00,30.348459005356,14,"updated stim.csv",Version14.csv,"Version 14","List 14",hutch,,400,4.708333333,1342,401,BOI,-,-,"Please name all of the ways you could use this object. Keep in mind that one object can have many uses. Separate your responses with a comma.",,y,30177,,,21728,28688,,,,"build, take apart, break",1
w10075049_cgd,to2653zfdm,"BOI Norms",1,15,2022-04-21T02:18:58+00:00,47.221334934235,14,"updated stim.csv",Version14.csv,"Version 14","List 14",granddaughter,,392,5,1146,393,BOI,-,-,"Please name all of the ways you could use this object. Keep in mind that one object can have many uses. Separate your responses with a comma.",,y,47043,,,3369,45946,,,,"spoil, feed, clothe, give money to, watch, play with",1
w10075049_cgd,to2653zfdm,"BOI Norms",1,16,2022-04-21T02:19:09+00:00,10.790692090988,14,"updated stim.csv",Version14.csv,"Version 14","List 14",cleat,,407,4.5,552,408,BOI,-,-,"Please name all of the ways you could use this object. Keep in mind that one object can have many uses. Separate your responses with a comma.",,y,10625,,,1945,8360,,,,"put on, run on, kick with",1
w10075049_cgd,to2653zfdm,"BOI Norms",1,17,2022-04-21T02:19:32+00:00,23.21784901619,14,"updated stim.csv",Version14.csv,"Version 14","List 14",booth,,403,4.92,282,404,BOI,-,-,"Please name all of the ways you could use this object. Keep in mind that one object can have many uses. Separate your responses with a comma.",,y,23043,,,1715,16827,,,,"sit in, stand in, climb into, scoot into",1
w10075049_cgd,to2653zfdm,"BOI Norms",1,18,2022-04-21T02:19:46+00:00,13.562916040421,14,"updated stim.csv",Version14.csv,"Version 14","List 14",author,,398,4.4,99,399,BOI,-,-,"Please name all of the ways you could use this object. Keep in mind that one object can have many uses. Separate your responses with a comma.",,y,13394,,,9357,12001,,,,"write with",1
w10075049_cgd,to2653zfdm,"BOI Norms",1,19,2022-04-21T02:20:16+00:00,30.017086982727,14,"updated stim.csv",Version14.csv,"Version 14","List 14",driftwood,,395,5.416666667,847,396,BOI,-,-,"Please name all of the ways you could use this object. Keep in mind that one object can have many uses. Separate your responses with a comma.",,y,29813,,,2098,16907,,,,"drill, hammer, saw, break, cut",1
w10075049_cgd,to2653zfdm,"BOI Norms",1,20,2022-04-21T02:20:42+00:00,26.730484962463,14,"updated stim.csv",Version14.csv,"Version 14","List 14",pellet,,416,4.296296296,1910,417,BOI,-,-,"Please name all of the ways you could use this object. Keep in mind that one object can have many uses. Separate your responses with a comma.",,y,26560,,,6048,6751,,,,throw,1
w10075049_cgd,to2653zfdm,"BOI Norms",1,21,2022-04-21T02:21:02+00:00,19.377077102661,14,"updated stim.csv",Version14.csv,"Version 14","List 14",suede,,391,5,2579,392,BOI,-,-,"Please name all of the ways you could use this object. Keep in mind that one object can have many uses. Separate your responses with a comma.",,y,19182,,,7498,18130,,,,"wear, cover, sew, stitch",1
w10075049_cgd,to2653zfdm,"BOI Norms",1,22,2022-04-21T02:21:12+00:00,10.629653930664,14,"updated stim.csv",Version14.csv,"Version 14","List 14",tuba,,401,5.130434783,2790,402,BOI,-,-,"Please name all of the ways you could use this object. Keep in mind that one object can have many uses. Separate your responses with a comma.",,y,10455,,,2279,5366,,,,"blow into, play",1
w10075049_cgd,to2653zfdm,"BOI Norms",1,23,2022-04-21T02:21:17+00:00,4.2007720470428,14,"updated stim.csv",Version14.csv,"Version 14","List 14",fisherman,,418,4.851851852,991,419,BOI,-,-,"Please name all of the ways you could use this object. Keep in mind that one object can have many uses. Separate your responses with a comma.",,y,4044,,,1723,3174,,,,"fish with",1
w10075049_cgd,to2653zfdm,"BOI Norms",1,24,2022-04-21T02:21:42+00:00,25.116873979568,14,"updated stim.csv",Version14.csv,"Version 14","List 14",turnip,,412,6.12,2802,413,BOI,-,-,"Please name all of the ways you could use this object. Keep in mind that one object can have many uses. Separate your responses with a comma.",,y,24955,,,2244,22392,,,,"cut, boil, grill, bake, mince, pull up",1
w10075049_cgd,to2653zfdm,"BOI Norms",1,25,2022-04-21T02:21:57+00:00,15.38064789772,14,"updated stim.csv",Version14.csv,"Version 14","List 14",doctor,,417,5.68,809,418,BOI,-,-,"Please name all of the ways you could use this object. Keep in mind that one object can have many uses. Separate your responses with a comma.",,y,15221,,,2154,13871,,,,"pay, listen to, confide in, ask questions",1
w10075049_cgd,to2653zfdm,"BOI Norms",1,26,2022-04-21T02:22:12+00:00,14.908348083496,14,"updated stim.csv",Version14.csv,"Version 14","List 14",cocktail,,415,5.481481481,588,416,BOI,-,-,"Please name all of the ways you could use this object. Keep in mind that one object can have many uses. Separate your responses with a comma.",,y,14740,,,1375,12927,,,,"drink, throw, pour, spill",1
w10075049_cgd,to2653zfdm,"BOI Norms",1,27,2022-04-21T02:22:51+00:00,38.634724855423,14,"updated stim.csv",Version14.csv,"Version 14","List 14",tonic,,414,5.086956522,2729,415,BOI,-,-,"Please name all of the ways you could use this object. Keep in mind that one object can have many uses. Separate your responses with a comma.",,y,38461,,,31384,35941,,,,"drink, pour, spill",1
w10075049_cgd,to2653zfdm,"BOI Norms",1,28,2022-04-21T02:23:23+00:00,31.935027122498,14,"updated stim.csv",Version14.csv,"Version 14","List 14",broker,,404,4.464285714,330,405,BOI,-,-,"Please name all of the ways you could use this object. Keep in mind that one object can have many uses. Separate your responses with a comma.",,y,31756,,,27872,30623,,,,"talk to, pay",1
w10075049_cgd,to2653zfdm,"BOI Norms",1,29,2022-04-21T02:23:49+00:00,26.499289989471,14,"updated stim.csv",Version14.csv,"Version 14","List 14",clip,,406,4.833333333,560,407,BOI,-,-,"Please name all of the ways you could use this object. Keep in mind that one object can have many uses. Separate your responses with a comma.",,y,26330,,,3050,7832,,,,"hold papers, throw",1
w10075049_cgd,to2653zfdm,"BOI Norms",1,30,2022-04-21T02:24:06+00:00,17.039931058884,14,"updated stim.csv",Version14.csv,"Version 14","List 14",hamstring,,408,5.08,1227,409,BOI,-,-,"Please name all of the ways you could use this object. Keep in mind that one object can have many uses. Separate your responses with a comma.",,y,16863,,,2637,15861,,,,"pull, stretch, massage",1
w10075049_cgd,to2653zfdm,"BOI Norms",1,31,2022-04-21T02:24:28+00:00,21.972817897797,14,"updated stim.csv",Version14.csv,"Version 14","List 14",doorstep,,396,5.333333333,828,397,BOI,-,-,"Please name all of the ways you could use this object. Keep in mind that one object can have many uses. Separate your responses with a comma.",,y,21798,,,1246,20078,,,,"step one, step over, paint, trip over, cover",1
w10075049_cgd,to2653zfdm,"BOI Norms",1,32,2022-04-21T02:24:48+00:00,19.352852106094,14,"updated stim.csv",Version14.csv,"Version 14","List 14",pedestal,,419,4.88,1901,420,BOI,-,-,"Please name all of the ways you could use this object. Keep in mind that one object can have many uses. Separate your responses with a comma.",,y,19171,,,17655,18233,,,,paint,1
w10075049_cgd,to2653zfdm,"BOI Norms",1,33,2022-04-21T02:26:05+00:00,77.267119884491,14,"updated stim.csv",Version14.csv,"Version 14","List 14",vagina,,399,6.041666667,2832,400,BOI,-,-,"Please name all of the ways you could use this object. Keep in mind that one object can have many uses. Separate your responses with a comma.",,y,77094,,,4351,66722,,,,"play with, shave, massage, wax, tickle",1
w10075049_cgd,to2653zfdm,"BOI Norms",1,34,2022-04-21T02:26:39+00:00,34.64740395546,14,"updated stim.csv",Version14.csv,"Version 14","List 14",paperhanger,,410,4.625,1864,411,BOI,-,-,"Please name all of the ways you could use this object. Keep in mind that one object can have many uses. Separate your responses with a comma.",,y,34459,,,33034,33405,,,,pay,1
w10075049_cgd,to2653zfdm,"BOI Norms",1,35,2022-04-21T02:27:06+00:00,26.792793035507,14,"updated stim.csv",Version14.csv,"Version 14","List 14",flannels,,413,5.681818182,999,414,BOI,-,-,"Please name all of the ways you could use this object. Keep in mind that one object can have many uses. Separate your responses with a comma.",,y,26616,,,1406,25502,,,,"wear, sew, decorate with, stitch, accessorize with, cover something",1
w10075049_cgd,to2653zfdm,"BOI Norms",1,36,2022-04-21T02:27:22+00:00,15.764270067215,14,"updated stim.csv",Version14.csv,"Version 14","List 14",milkshake,,393,6.4,1661,394,BOI,-,-,"Please name all of the ways you could use this object. Keep in mind that one object can have many uses. Separate your responses with a comma.",,y,15557,,,1664,14286,,,,"shake, drink, pour, throw, freeze",1
w10075049_cgd,to2653zfdm,"BOI Norms",1,37,2022-04-21T02:27:45+00:00,22.583731889725,14,"updated stim.csv",Version14.csv,"Version 14","List 14",brassiere,,409,5.666666667,306,410,BOI,-,-,"Please name all of the ways you could use this object. Keep in mind that one object can have many uses. Separate your responses with a comma.",,y,22412,,,1665,20447,,,,"wear, sling shot, throw, wash",1
w10075049_cgd,to2653zfdm,"BOI Norms",1,38,2022-04-21T02:27:50+00:00,5.6539070606232,14,"updated stim.csv",Version14.csv,"Version 14","List 14",hairpin,,397,6.125,1216,398,BOI,-,-,"Please name all of the ways you could use this object. Keep in mind that one object can have many uses. Separate your responses with a comma.",,y,5481,,,2167,4119,,,,"put in hair",1
w10075049_cgd,to2653zfdm,"BOI Norms",1,39,2022-04-21T02:28:42+00:00,51.348544120789,14,"updated stim.csv",Version14.csv,"Version 14","List 14",Cheeseburger,,402,,3001,403,BOI,-,-,"Please name all of the ways you could use this object. Keep in mind that one object can have many uses. Separate your responses with a comma.",,y,51180,,,1510,31822,,,,"eat, microwave, refrigerate, cut, tear",1
w10075049_cgd,to2653zfdm,"BOI Norms",1,40,2022-04-21T02:28:57+00:00,15.877643823624,14,"updated stim.csv",Version14.csv,"Version 14","List 14",cord,,420,6.103448276,640,421,BOI,-,-,"Please name all of the ways you could use this object. Keep in mind that one object can have many uses. Separate your responses with a comma.",,y,15704,,,3466,14385,,,,"coil, stretch, plug into wall",1
w10075049_cgd,to2653zfdm,"BOI Norms",1,41,2022-04-21T02:29:01+00:00,3.6895070075989,14,"updated stim.csv",Version14.csv,"Version 14","List 14",,,,,,0,Instruct,,,"You will now be asked a few questions about your experience today.",,"Instruct 4",3565,,,-1,-1,,,,,1
