Username,ID,ExperimentName,Session,Trial,Date,TimeDif,"Condition Number","Stimuli File","Order File","Condition Description","Condition Notes",Stimuli*Cue,Stimuli*Answer,Stimuli*Shuffle,"Stimuli*Stimuli Notes",Stimuli*Value,Stimuli*Rand,Procedure*Item,"Procedure*Trial Type","Procedure*Max Time","Procedure*Min Time",Procedure*Text,"Procedure*Procedure Notes",Procedure*Shuffle,Response*RT,Response*Response,Response*Accuracy,Response*RTfirst,Response*RTlast,Response*strictAcc,Response*lenientAcc,Response*focus,Response*JOL,Response*Focus
637f7c9a658dbd7bcdd9e1ad,3n3io2s9wr,"Affordance Norms_Prolific",1,1,2023-01-06T16:02:51+00:00,18.059006929398,95,"updated stim.csv",Version95.csv,"Version 95","List 95",,,,,,,0,Instruct,-,10,"In this section, you will be presented with a series of objects. Please name as many possible uses for this object as you can think of by typing them in the box below each object.",,Instruct1,17832,,,-1,-1,,,,,1
637f7c9a658dbd7bcdd9e1ad,3n3io2s9wr,"Affordance Norms_Prolific",1,2,2023-01-06T16:03:11+00:00,19.699278116226,95,"updated stim.csv",Version95.csv,"Version 95","List 95",,,,,,,0,Instruct,-,10,"Please keep in mind that a single object will have more than one use. For example, a ball can be thrown or can be bounced or even stepped on. When listing multiple uses for one object, please separate each use with a comma (i.e., thrown, bounced, stepped on)",,Instruct2,19296,,,-1,-1,,,,,1
637f7c9a658dbd7bcdd9e1ad,3n3io2s9wr,"Affordance Norms_Prolific",1,3,2023-01-06T16:03:17+00:00,6.1201279163361,95,"updated stim.csv",Version95.csv,"Version 95","List 95",,,,,,,0,Instruct,-,-,"Before starting the experiment, you will complete a short practice sesstion. Press ENTER when you are ready to begin.",,Instruct3,5757,,,-1,-1,,,,,1
637f7c9a658dbd7bcdd9e1ad,3n3io2s9wr,"Affordance Norms_Prolific",1,4,2023-01-06T16:03:37+00:00,19.501686096191,95,"updated stim.csv",Version95.csv,"Version 95","List 95",shortening,,3002,4.92,2358,0.604328482,3003,BOI,-,-,"Please name all of the ways you could use this object. Keep in mind that one object can have many uses. Separate your responses with a comma.",,n,19129,,,11987,18259,,,,"pastry, cake",1
637f7c9a658dbd7bcdd9e1ad,3n3io2s9wr,"Affordance Norms_Prolific",1,5,2023-01-06T16:04:05+00:00,28.965255975723,95,"updated stim.csv",Version95.csv,"Version 95","List 95",paperwork,,3001,5.625,1866,0.124284162,3002,BOI,-,-,"Please name all of the ways you could use this object. Keep in mind that one object can have many uses. Separate your responses with a comma.",,n,28570,,,12762,27333,,,,"bills, fire, toilet",1
637f7c9a658dbd7bcdd9e1ad,3n3io2s9wr,"Affordance Norms_Prolific",1,6,2023-01-06T16:04:25+00:00,19.821305036545,95,"updated stim.csv",Version95.csv,"Version 95","List 95",grain,,3004,5.217391304,1143,0.226863762,3005,BOI,-,-,"Please name all of the ways you could use this object. Keep in mind that one object can have many uses. Separate your responses with a comma.",,n,19454,,,3599,18896,,,,"whisky, flour, animal feed",1
637f7c9a658dbd7bcdd9e1ad,3n3io2s9wr,"Affordance Norms_Prolific",1,7,2023-01-06T16:04:43+00:00,17.703209877014,95,"updated stim.csv",Version95.csv,"Version 95","List 95",spaghetti,,3003,6,2461,0.090379998,3004,BOI,-,-,"Please name all of the ways you could use this object. Keep in mind that one object can have many uses. Separate your responses with a comma.",,n,17296,,,4803,16976,,,,"bologanse, carbonara",1
637f7c9a658dbd7bcdd9e1ad,3n3io2s9wr,"Affordance Norms_Prolific",1,8,2023-01-06T16:05:08+00:00,25.258423089981,95,"updated stim.csv",Version95.csv,"Version 95","List 95",saucer,,3005,5.777777778,2249,0.304808074,3006,BOI,-,-,"Please name all of the ways you could use this object. Keep in mind that one object can have many uses. Separate your responses with a comma.",,n,24851,,,7329,23112,,,,"put under cup, small plate, feed cat",1
637f7c9a658dbd7bcdd9e1ad,3n3io2s9wr,"Affordance Norms_Prolific",1,9,2023-01-06T16:05:12+00:00,3.575423002243,95,"updated stim.csv",Version95.csv,"Version 95","List 95",,,,,,,0,Instruct,-,-,"You have completed this section. Press ENTER to continue",,"Instruct 5",3203,,,-1,-1,,,,,1
637f7c9a658dbd7bcdd9e1ad,3n3io2s9wr,"Affordance Norms_Prolific",1,10,2023-01-06T16:05:15+00:00,3.3231039047241,95,"updated stim.csv",Version95.csv,"Version 95","List 95",,,,,,,0,Instruct,-,-,"You will now start the full experiment. Press ENTER when you are ready to begin.",,,2946,,,-1,-1,,,,,1
637f7c9a658dbd7bcdd9e1ad,3n3io2s9wr,"Affordance Norms_Prolific",1,11,2023-01-06T16:05:42+00:00,26.865275144577,95,"updated stim.csv",Version95.csv,"Version 95","List 95",politician,,2831,4.409090909,2024,0.401487238,2832,BOI,-,-,"Please name all of the ways you could use this object. Keep in mind that one object can have many uses. Separate your responses with a comma.",,y,26485,,,10929,19294,,,,"raise concerns, lobby, ",1
637f7c9a658dbd7bcdd9e1ad,3n3io2s9wr,"Affordance Norms_Prolific",1,12,2023-01-06T16:06:14+00:00,32.273244857788,95,"updated stim.csv",Version95.csv,"Version 95","List 95",farm,,2834,5.035714286,946,0.618075518,2835,BOI,-,-,"Please name all of the ways you could use this object. Keep in mind that one object can have many uses. Separate your responses with a comma.",,y,31855,,,2927,26891,,,,"raise animals, grow crops, collect wind energy",1
637f7c9a658dbd7bcdd9e1ad,3n3io2s9wr,"Affordance Norms_Prolific",1,13,2023-01-06T16:06:30+00:00,15.388624191284,95,"updated stim.csv",Version95.csv,"Version 95","List 95",pitcher,,2843,5.259259259,1980,0.37527782,2844,BOI,-,-,"Please name all of the ways you could use this object. Keep in mind that one object can have many uses. Separate your responses with a comma.",,y,15011,,,3186,13686,,,,"hold liquids, ",1
637f7c9a658dbd7bcdd9e1ad,3n3io2s9wr,"Affordance Norms_Prolific",1,14,2023-01-06T16:07:03+00:00,33.287507772446,95,"updated stim.csv",Version95.csv,"Version 95","List 95",cardboard,,2833,5.739130435,431,0.868045014,2834,BOI,-,-,"Please name all of the ways you could use this object. Keep in mind that one object can have many uses. Separate your responses with a comma.",,y,32885,,,5687,31230,,,,"pack items, container for goods, insulate",1
637f7c9a658dbd7bcdd9e1ad,3n3io2s9wr,"Affordance Norms_Prolific",1,15,2023-01-06T16:07:35+00:00,32.348489999771,95,"updated stim.csv",Version95.csv,"Version 95","List 95",handgun,,2830,5.761904762,1236,0.798867093,2831,BOI,-,-,"Please name all of the ways you could use this object. Keep in mind that one object can have many uses. Separate your responses with a comma.",,y,31967,,,4618,31619,,,,"start a race, threaten, kill, target practice",1
637f7c9a658dbd7bcdd9e1ad,3n3io2s9wr,"Affordance Norms_Prolific",1,16,2023-01-06T16:07:59+00:00,23.53399014473,95,"updated stim.csv",Version95.csv,"Version 95","List 95",guidebook,,2822,5.791666667,1191,0.682587012,2823,BOI,-,-,"Please name all of the ways you could use this object. Keep in mind that one object can have many uses. Separate your responses with a comma.",,y,23143,,,3563,22633,,,,"learn, explain something, find your way",1
637f7c9a658dbd7bcdd9e1ad,3n3io2s9wr,"Affordance Norms_Prolific",1,17,2023-01-06T16:08:36+00:00,37.16392993927,95,"updated stim.csv",Version95.csv,"Version 95","List 95",gadget,,2832,5.52,1069,0.476791818,2833,BOI,-,-,"Please name all of the ways you could use this object. Keep in mind that one object can have many uses. Separate your responses with a comma.",,y,36753,,,10584,33072,,,,"save time, store data, tool for specific purpose, ",1
637f7c9a658dbd7bcdd9e1ad,3n3io2s9wr,"Affordance Norms_Prolific",1,18,2023-01-06T16:09:09+00:00,33.144851922989,95,"updated stim.csv",Version95.csv,"Version 95","List 95",petal,,2841,5.75,1933,0.208572878,2842,BOI,-,-,"Please name all of the ways you could use this object. Keep in mind that one object can have many uses. Separate your responses with a comma.",,y,32738,,,4804,32255,,,,"enjoy the smell, make perfume, bathe with",1
637f7c9a658dbd7bcdd9e1ad,3n3io2s9wr,"Affordance Norms_Prolific",1,19,2023-01-06T16:09:56+00:00,46.582634210587,95,"updated stim.csv",Version95.csv,"Version 95","List 95",machine,,2823,5.791666667,1567,0.139052338,2824,BOI,-,-,"Please name all of the ways you could use this object. Keep in mind that one object can have many uses. Separate your responses with a comma.",,y,46155,,,13968,45777,,,,"make things, reduce manual labour, ensure percision",1
637f7c9a658dbd7bcdd9e1ad,3n3io2s9wr,"Affordance Norms_Prolific",1,20,2023-01-06T16:10:24+00:00,28.428529977798,95,"updated stim.csv",Version95.csv,"Version 95","List 95",cashier,,2845,4.888888889,449,0.920953757,2846,BOI,-,-,"Please name all of the ways you could use this object. Keep in mind that one object can have many uses. Separate your responses with a comma.",,y,28028,,,2973,27603,,,,"pay for goods or service, withdraw money from bank",1
637f7c9a658dbd7bcdd9e1ad,3n3io2s9wr,"Affordance Norms_Prolific",1,21,2023-01-06T16:11:12+00:00,47.437086820602,95,"updated stim.csv",Version95.csv,"Version 95","List 95",javelin,,2844,5.833333333,1375,0.671141287,2845,BOI,-,-,"Please name all of the ways you could use this object. Keep in mind that one object can have many uses. Separate your responses with a comma.",,y,47053,,,7592,43741,,,,"throw, use as a marker, threaten,",1
637f7c9a658dbd7bcdd9e1ad,3n3io2s9wr,"Affordance Norms_Prolific",1,22,2023-01-06T16:11:42+00:00,30.663039207458,95,"updated stim.csv",Version95.csv,"Version 95","List 95",custodian,,2827,4.481481481,735,0.012794715,2828,BOI,-,-,"Please name all of the ways you could use this object. Keep in mind that one object can have many uses. Separate your responses with a comma.",,y,30272,,,14710,26859,,,,"trust with safe keeping, ",1
637f7c9a658dbd7bcdd9e1ad,3n3io2s9wr,"Affordance Norms_Prolific",1,23,2023-01-06T16:12:21+00:00,38.229311943054,95,"updated stim.csv",Version95.csv,"Version 95","List 95",corkscrew,,2835,6.04,643,0.923622871,2836,BOI,-,-,"Please name all of the ways you could use this object. Keep in mind that one object can have many uses. Separate your responses with a comma.",,y,37856,,,1886,37568,,,,"open wine, self defence, make a hole, clean fingernails",1
637f7c9a658dbd7bcdd9e1ad,3n3io2s9wr,"Affordance Norms_Prolific",1,24,2023-01-06T16:12:49+00:00,28.363209962845,95,"updated stim.csv",Version95.csv,"Version 95","List 95",nutmeg,,2848,4.608695652,1792,0.215590085,2849,BOI,-,-,"Please name all of the ways you could use this object. Keep in mind that one object can have many uses. Separate your responses with a comma.",,y,27982,,,6278,27401,,,,"add to food, use as a drug",1
637f7c9a658dbd7bcdd9e1ad,3n3io2s9wr,"Affordance Norms_Prolific",1,25,2023-01-06T16:13:28+00:00,38.81894493103,95,"updated stim.csv",Version95.csv,"Version 95","List 95",lemon,,2828,6.08,1489,0.902022384,2829,BOI,-,-,"Please name all of the ways you could use this object. Keep in mind that one object can have many uses. Separate your responses with a comma.",,y,38430,,,4974,36474,,,,"bake cake, squeeze juice for foods or drinks, use for cleaning",1
637f7c9a658dbd7bcdd9e1ad,3n3io2s9wr,"Affordance Norms_Prolific",1,26,2023-01-06T16:14:00+00:00,32.425131082535,95,"updated stim.csv",Version95.csv,"Version 95","List 95",dinnerware,,2850,5.916666667,796,0.8361605,2851,BOI,-,-,"Please name all of the ways you could use this object. Keep in mind that one object can have many uses. Separate your responses with a comma.",,y,32026,,,8764,31649,,,,"eat from, throw as a game",1
637f7c9a658dbd7bcdd9e1ad,3n3io2s9wr,"Affordance Norms_Prolific",1,27,2023-01-06T16:14:28+00:00,27.434082984924,95,"updated stim.csv",Version95.csv,"Version 95","List 95",duffel,,2821,4.380952381,864,0.87423404,2822,BOI,-,-,"Please name all of the ways you could use this object. Keep in mind that one object can have many uses. Separate your responses with a comma.",,y,27022,,,12168,23994,,,,"wrap something or someone",1
637f7c9a658dbd7bcdd9e1ad,3n3io2s9wr,"Affordance Norms_Prolific",1,28,2023-01-06T16:14:28+00:00,0.47867107391357,95,"updated stim.csv",Version95.csv,"Version 95","List 95",munitions,,2836,4.80952381,1720,0.175849145,2837,BOI,-,-,"Please name all of the ways you could use this object. Keep in mind that one object can have many uses. Separate your responses with a comma.",,y,121,,,-1,-1,,,,,1
637f7c9a658dbd7bcdd9e1ad,3n3io2s9wr,"Affordance Norms_Prolific",1,29,2023-01-06T16:14:47+00:00,19.108237981796,95,"updated stim.csv",Version95.csv,"Version 95","List 95",pony,,2829,5.375,2030,0.00357547,2830,BOI,-,-,"Please name all of the ways you could use this object. Keep in mind that one object can have many uses. Separate your responses with a comma.",,y,18743,,,2677,17787,,,,"ride, groom, pat, feed",1
637f7c9a658dbd7bcdd9e1ad,3n3io2s9wr,"Affordance Norms_Prolific",1,30,2023-01-06T16:14:55+00:00,7.3764138221741,95,"updated stim.csv",Version95.csv,"Version 95","List 95",jurist,,2837,4.380952381,1397,0.674726468,2838,BOI,-,-,"Please name all of the ways you could use this object. Keep in mind that one object can have many uses. Separate your responses with a comma.",,y,6969,,,-1,-1,,,,,1
637f7c9a658dbd7bcdd9e1ad,3n3io2s9wr,"Affordance Norms_Prolific",1,31,2023-01-06T16:15:34+00:00,39.598628997803,95,"updated stim.csv",Version95.csv,"Version 95","List 95",pajamas,,2839,6.222222222,1851,0.751031146,2840,BOI,-,-,"Please name all of the ways you could use this object. Keep in mind that one object can have many uses. Separate your responses with a comma.",,y,39185,,,1837,37037,,,,"wear, polishing cloth, ",1
637f7c9a658dbd7bcdd9e1ad,3n3io2s9wr,"Affordance Norms_Prolific",1,32,2023-01-06T16:16:07+00:00,32.505474090576,95,"updated stim.csv",Version95.csv,"Version 95","List 95",farmer,,2840,5.08,947,0.307237157,2841,BOI,-,-,"Please name all of the ways you could use this object. Keep in mind that one object can have many uses. Separate your responses with a comma.",,y,32085,,,23399,29987,,,,"produce food,",1
637f7c9a658dbd7bcdd9e1ad,3n3io2s9wr,"Affordance Norms_Prolific",1,33,2023-01-06T16:17:15+00:00,68.315304994583,95,"updated stim.csv",Version95.csv,"Version 95","List 95",glider,,2824,4.5,1114,0.391306611,2825,BOI,-,-,"Please name all of the ways you could use this object. Keep in mind that one object can have many uses. Separate your responses with a comma.",,y,67599,,,10044,67180,,,,"travel, observe landscape",1
637f7c9a658dbd7bcdd9e1ad,3n3io2s9wr,"Affordance Norms_Prolific",1,34,2023-01-06T16:17:29+00:00,14.527985095978,95,"updated stim.csv",Version95.csv,"Version 95","List 95",guillotine,,2847,4.52173913,1192,0.895691665,2848,BOI,-,-,"Please name all of the ways you could use this object. Keep in mind that one object can have many uses. Separate your responses with a comma.",,y,14100,,,2602,13287,,,,"cut paper, execute",1
637f7c9a658dbd7bcdd9e1ad,3n3io2s9wr,"Affordance Norms_Prolific",1,35,2023-01-06T16:18:17+00:00,47.519189834595,95,"updated stim.csv",Version95.csv,"Version 95","List 95",cone,,2838,4.608695652,625,0.78702333,2839,BOI,-,-,"Please name all of the ways you could use this object. Keep in mind that one object can have many uses. Separate your responses with a comma.",,y,47106,,,19967,40716,,,,"traffic safety, add ice cream",1
637f7c9a658dbd7bcdd9e1ad,3n3io2s9wr,"Affordance Norms_Prolific",1,36,2023-01-06T16:18:55+00:00,38.186233043671,95,"updated stim.csv",Version95.csv,"Version 95","List 95",cross,,2825,5,703,0.436202882,2826,BOI,-,-,"Please name all of the ways you could use this object. Keep in mind that one object can have many uses. Separate your responses with a comma.",,y,37794,,,28141,32004,,,,"decorate, ",1
637f7c9a658dbd7bcdd9e1ad,3n3io2s9wr,"Affordance Norms_Prolific",1,37,2023-01-06T16:20:16+00:00,80.763802051544,95,"updated stim.csv",Version95.csv,"Version 95","List 95",streets,,2842,4.769230769,2565,0.781954291,2843,BOI,-,-,"Please name all of the ways you could use this object. Keep in mind that one object can have many uses. Separate your responses with a comma.",,y,80033,,,2731,78997,,,,"live, build homes, park cars",1
637f7c9a658dbd7bcdd9e1ad,3n3io2s9wr,"Affordance Norms_Prolific",1,38,2023-01-06T16:20:39+00:00,23.053060054779,95,"updated stim.csv",Version95.csv,"Version 95","List 95",nightshirt,,2849,6.291666667,1773,0.667532644,2850,BOI,-,-,"Please name all of the ways you could use this object. Keep in mind that one object can have many uses. Separate your responses with a comma.",,y,22499,,,14617,19642,,,,"wear, ",1
637f7c9a658dbd7bcdd9e1ad,3n3io2s9wr,"Affordance Norms_Prolific",1,39,2023-01-06T16:20:52+00:00,13.36487698555,95,"updated stim.csv",Version95.csv,"Version 95","List 95",Taco,,2826,,3005,0.811321361,2827,BOI,-,-,"Please name all of the ways you could use this object. Keep in mind that one object can have many uses. Separate your responses with a comma.",,y,12936,,,1587,11675,,,,"eat, feed animal",1
637f7c9a658dbd7bcdd9e1ad,3n3io2s9wr,"Affordance Norms_Prolific",1,40,2023-01-06T16:20:55+00:00,2.6207389831543,95,"updated stim.csv",Version95.csv,"Version 95","List 95",bullfrog,,2846,4.884615385,355,0.509788133,2847,BOI,-,-,"Please name all of the ways you could use this object. Keep in mind that one object can have many uses. Separate your responses with a comma.",,y,2201,,,-1,-1,,,,,1
637f7c9a658dbd7bcdd9e1ad,3n3io2s9wr,"Affordance Norms_Prolific",1,41,2023-01-06T16:20:58+00:00,3.057373046875,95,"updated stim.csv",Version95.csv,"Version 95","List 95",,,,,,,0,Instruct,,,"You will now be asked a few questions about your experience today.",,"Instruct 4",2650,,,-1,-1,,,,,1
