Username,ID,ExperimentName,Session,Trial,Date,TimeDif,"Condition Number","Stimuli File","Order File","Condition Description","Condition Notes",Stimuli*Cue,Stimuli*Answer,Stimuli*Shuffle,"Stimuli*Stimuli Notes",Stimuli*Value,Stimuli*Rand,Procedure*Item,"Procedure*Trial Type","Procedure*Max Time","Procedure*Min Time",Procedure*Text,"Procedure*Procedure Notes",Procedure*Shuffle,Response*RT,Response*Response,Response*Accuracy,Response*RTfirst,Response*RTlast,Response*strictAcc,Response*lenientAcc,Response*focus,Response*JOL,Response*Focus
594abd98215cbd000146debc,fz7476obq8,"Affordance Norms_Prolific",1,1,2023-01-11T20:56:31+00:00,12.115576028824,14,"updated stim.csv",Version14.csv,"Version 14","List 14",,,,,,,0,Instruct,-,10,"In this section, you will be presented with a series of objects. Please name as many possible uses for this object as you can think of by typing them in the box below each object.",,Instruct1,11583,,,-1,-1,,,,,1
594abd98215cbd000146debc,fz7476obq8,"Affordance Norms_Prolific",1,2,2023-01-11T20:56:47+00:00,16.003007888794,14,"updated stim.csv",Version14.csv,"Version 14","List 14",,,,,,,0,Instruct,-,10,"Please keep in mind that a single object will have more than one use. For example, a ball can be thrown or can be bounced or even stepped on. When listing multiple uses for one object, please separate each use with a comma (i.e., thrown, bounced, stepped on)",,Instruct2,15361,,,-1,-1,,,,,1
594abd98215cbd000146debc,fz7476obq8,"Affordance Norms_Prolific",1,3,2023-01-11T20:56:55+00:00,7.5676290988922,14,"updated stim.csv",Version14.csv,"Version 14","List 14",,,,,,,0,Instruct,-,-,"Before starting the experiment, you will complete a short practice sesstion. Press ENTER when you are ready to begin.",,Instruct3,6948,,,-1,-1,,,,,1
594abd98215cbd000146debc,fz7476obq8,"Affordance Norms_Prolific",1,4,2023-01-11T20:57:56+00:00,61.553745031357,14,"updated stim.csv",Version14.csv,"Version 14","List 14",paperwork,,3001,5.625,1866,0.124284162,3002,BOI,-,-,"Please name all of the ways you could use this object. Keep in mind that one object can have many uses. Separate your responses with a comma.",,n,60915,,,4015,56153,,,,"filed, recycled, shuffled, read",1
594abd98215cbd000146debc,fz7476obq8,"Affordance Norms_Prolific",1,5,2023-01-11T20:58:52+00:00,55.584853887558,14,"updated stim.csv",Version14.csv,"Version 14","List 14",grain,,3004,5.217391304,1143,0.226863762,3005,BOI,-,-,"Please name all of the ways you could use this object. Keep in mind that one object can have many uses. Separate your responses with a comma.",,n,54947,,,4039,53373,,,,"eaten, stored, baked, harvested",1
594abd98215cbd000146debc,fz7476obq8,"Affordance Norms_Prolific",1,6,2023-01-11T21:00:04+00:00,71.9325299263,14,"updated stim.csv",Version14.csv,"Version 14","List 14",spaghetti,,3003,6,2461,0.090379998,3004,BOI,-,-,"Please name all of the ways you could use this object. Keep in mind that one object can have many uses. Separate your responses with a comma.",,n,71295,,,2829,69353,,,,"cook, eat, boil,",1
594abd98215cbd000146debc,fz7476obq8,"Affordance Norms_Prolific",1,7,2023-01-11T21:01:09+00:00,65.40999007225,14,"updated stim.csv",Version14.csv,"Version 14","List 14",shortening,,3002,4.92,2358,0.604328482,3003,BOI,-,-,"Please name all of the ways you could use this object. Keep in mind that one object can have many uses. Separate your responses with a comma.",,n,64763,,,21820,29204,,,,"length, fall, ",1
594abd98215cbd000146debc,fz7476obq8,"Affordance Norms_Prolific",1,8,2023-01-11T21:02:17+00:00,68.115243911743,14,"updated stim.csv",Version14.csv,"Version 14","List 14",saucer,,3005,5.777777778,2249,0.304808074,3006,BOI,-,-,"Please name all of the ways you could use this object. Keep in mind that one object can have many uses. Separate your responses with a comma.",,n,67470,,,4991,64782,,,,"break, drop, stack",1
594abd98215cbd000146debc,fz7476obq8,"Affordance Norms_Prolific",1,9,2023-01-11T21:02:20+00:00,3.1808290481567,14,"updated stim.csv",Version14.csv,"Version 14","List 14",,,,,,,0,Instruct,-,-,"You have completed this section. Press ENTER to continue",,"Instruct 5",2809,,,-1,-1,,,,,1
594abd98215cbd000146debc,fz7476obq8,"Affordance Norms_Prolific",1,10,2023-01-11T21:02:23+00:00,2.9082231521606,14,"updated stim.csv",Version14.csv,"Version 14","List 14",,,,,,,0,Instruct,-,-,"You will now start the full experiment. Press ENTER when you are ready to begin.",,,2546,,,-1,-1,,,,,1
594abd98215cbd000146debc,fz7476obq8,"Affordance Norms_Prolific",1,11,2023-01-11T21:03:05+00:00,41.286520957947,14,"updated stim.csv",Version14.csv,"Version 14","List 14",brassiere,,409,5.666666667,306,0.051810651,410,BOI,-,-,"Please name all of the ways you could use this object. Keep in mind that one object can have many uses. Separate your responses with a comma.",,y,40648,,,5485,39372,,,,"wear, throw, wrap",1
594abd98215cbd000146debc,fz7476obq8,"Affordance Norms_Prolific",1,12,2023-01-11T21:03:56+00:00,51.863534927368,14,"updated stim.csv",Version14.csv,"Version 14","List 14",doorstep,,396,5.333333333,828,0.890046073,397,BOI,-,-,"Please name all of the ways you could use this object. Keep in mind that one object can have many uses. Separate your responses with a comma.",,y,51222,,,4582,48110,,,,"stand, heighten",1
594abd98215cbd000146debc,fz7476obq8,"Affordance Norms_Prolific",1,13,2023-01-11T21:04:45+00:00,48.832077026367,14,"updated stim.csv",Version14.csv,"Version 14","List 14",cleat,,407,4.5,552,0.773806135,408,BOI,-,-,"Please name all of the ways you could use this object. Keep in mind that one object can have many uses. Separate your responses with a comma.",,y,48193,,,3925,46437,,,,"protect, kick, throw",1
594abd98215cbd000146debc,fz7476obq8,"Affordance Norms_Prolific",1,14,2023-01-11T21:05:14+00:00,29.076865911484,14,"updated stim.csv",Version14.csv,"Version 14","List 14",Cheeseburger,,402,,3001,0.984642943,403,BOI,-,-,"Please name all of the ways you could use this object. Keep in mind that one object can have many uses. Separate your responses with a comma.",,y,28426,,,3755,24168,,,,"eat, cook, make, fling, ",1
594abd98215cbd000146debc,fz7476obq8,"Affordance Norms_Prolific",1,15,2023-01-11T21:05:39+00:00,24.666104078293,14,"updated stim.csv",Version14.csv,"Version 14","List 14",paperhanger,,410,4.625,1864,0.502533879,411,BOI,-,-,"Please name all of the ways you could use this object. Keep in mind that one object can have many uses. Separate your responses with a comma.",,y,24020,,,6439,22669,,,,"file, seperate, hold, pick",1
594abd98215cbd000146debc,fz7476obq8,"Affordance Norms_Prolific",1,16,2023-01-11T21:06:29+00:00,49.534289121628,14,"updated stim.csv",Version14.csv,"Version 14","List 14",author,,398,4.4,99,0.200635735,399,BOI,-,-,"Please name all of the ways you could use this object. Keep in mind that one object can have many uses. Separate your responses with a comma.",,y,48896,,,17255,47597,,,,"write, speak, read",1
594abd98215cbd000146debc,fz7476obq8,"Affordance Norms_Prolific",1,17,2023-01-11T21:06:47+00:00,18.523544788361,14,"updated stim.csv",Version14.csv,"Version 14","List 14",granddaughter,,392,5,1146,0.297785625,393,BOI,-,-,"Please name all of the ways you could use this object. Keep in mind that one object can have many uses. Separate your responses with a comma.",,y,17889,,,2650,16421,,,,"hug, kiss, play,",1
594abd98215cbd000146debc,fz7476obq8,"Affordance Norms_Prolific",1,18,2023-01-11T21:07:21+00:00,33.976649999619,14,"updated stim.csv",Version14.csv,"Version 14","List 14",seasoning,,411,4.47826087,2300,0.716339829,412,BOI,-,-,"Please name all of the ways you could use this object. Keep in mind that one object can have many uses. Separate your responses with a comma.",,y,33342,,,6666,32293,,,,"add, spill, sprinkle, taste",1
594abd98215cbd000146debc,fz7476obq8,"Affordance Norms_Prolific",1,19,2023-01-11T21:07:43+00:00,21.573881149292,14,"updated stim.csv",Version14.csv,"Version 14","List 14",tonic,,414,5.086956522,2729,0.364464127,415,BOI,-,-,"Please name all of the ways you could use this object. Keep in mind that one object can have many uses. Separate your responses with a comma.",,y,20945,,,3513,20131,,,,"mix, spill, drink,",1
594abd98215cbd000146debc,fz7476obq8,"Affordance Norms_Prolific",1,20,2023-01-11T21:08:07+00:00,24.315567016602,14,"updated stim.csv",Version14.csv,"Version 14","List 14",earring,,405,6.428571429,881,0.521190906,406,BOI,-,-,"Please name all of the ways you could use this object. Keep in mind that one object can have many uses. Separate your responses with a comma.",,y,23663,,,2060,22239,,,,"wear, lose, gift",1
594abd98215cbd000146debc,fz7476obq8,"Affordance Norms_Prolific",1,21,2023-01-11T21:08:47+00:00,39.736013889313,14,"updated stim.csv",Version14.csv,"Version 14","List 14",flannels,,413,5.681818182,999,0.343571271,414,BOI,-,-,"Please name all of the ways you could use this object. Keep in mind that one object can have many uses. Separate your responses with a comma.",,y,39103,,,2388,20004,,,,"wash, dry, drop, ",1
594abd98215cbd000146debc,fz7476obq8,"Affordance Norms_Prolific",1,22,2023-01-11T21:09:08+00:00,21.043636083603,14,"updated stim.csv",Version14.csv,"Version 14","List 14",pedestal,,419,4.88,1901,0.811557585,420,BOI,-,-,"Please name all of the ways you could use this object. Keep in mind that one object can have many uses. Separate your responses with a comma.",,y,20387,,,4072,18782,,,,"hold, protect, smash,",1
594abd98215cbd000146debc,fz7476obq8,"Affordance Norms_Prolific",1,23,2023-01-11T21:09:50+00:00,42.70939207077,14,"updated stim.csv",Version14.csv,"Version 14","List 14",pellet,,416,4.296296296,1910,0.819706786,417,BOI,-,-,"Please name all of the ways you could use this object. Keep in mind that one object can have many uses. Separate your responses with a comma.",,y,42073,,,11260,40439,,,,"poison, flush, feed,",1
594abd98215cbd000146debc,fz7476obq8,"Affordance Norms_Prolific",1,24,2023-01-11T21:10:06+00:00,15.698256969452,14,"updated stim.csv",Version14.csv,"Version 14","List 14",fisherman,,418,4.851851852,991,0.998556078,419,BOI,-,-,"Please name all of the ways you could use this object. Keep in mind that one object can have many uses. Separate your responses with a comma.",,y,15067,,,3700,13327,,,,"fish, food, travel",1
594abd98215cbd000146debc,fz7476obq8,"Affordance Norms_Prolific",1,25,2023-01-11T21:10:23+00:00,17.170753002167,14,"updated stim.csv",Version14.csv,"Version 14","List 14",hairpin,,397,6.125,1216,0.666214022,398,BOI,-,-,"Please name all of the ways you could use this object. Keep in mind that one object can have many uses. Separate your responses with a comma.",,y,16536,,,3197,15254,,,,"hold, grip, pick",1
594abd98215cbd000146debc,fz7476obq8,"Affordance Norms_Prolific",1,26,2023-01-11T21:11:10+00:00,46.503172874451,14,"updated stim.csv",Version14.csv,"Version 14","List 14",broker,,404,4.464285714,330,0.943244842,405,BOI,-,-,"Please name all of the ways you could use this object. Keep in mind that one object can have many uses. Separate your responses with a comma.",,y,45805,,,3515,44308,,,,"advice, money, talk",1
594abd98215cbd000146debc,fz7476obq8,"Affordance Norms_Prolific",1,27,2023-01-11T21:11:31+00:00,21.383322000504,14,"updated stim.csv",Version14.csv,"Version 14","List 14",cocktail,,415,5.481481481,588,0.859802123,416,BOI,-,-,"Please name all of the ways you could use this object. Keep in mind that one object can have many uses. Separate your responses with a comma.",,y,20687,,,3007,19264,,,,"drink, make, shake, spill, mix",1
594abd98215cbd000146debc,fz7476obq8,"Affordance Norms_Prolific",1,28,2023-01-11T21:12:04+00:00,32.67743897438,14,"updated stim.csv",Version14.csv,"Version 14","List 14",hutch,,400,4.708333333,1342,0.734778001,401,BOI,-,-,"Please name all of the ways you could use this object. Keep in mind that one object can have many uses. Separate your responses with a comma.",,y,32017,,,7696,30301,,,,"keep, kick, sit, house",1
594abd98215cbd000146debc,fz7476obq8,"Affordance Norms_Prolific",1,29,2023-01-11T21:12:30+00:00,26.546998977661,14,"updated stim.csv",Version14.csv,"Version 14","List 14",crayon,,394,6.36,687,0.757072392,395,BOI,-,-,"Please name all of the ways you could use this object. Keep in mind that one object can have many uses. Separate your responses with a comma.",,y,25876,,,3549,24321,,,,"mark, colour, break, drop",1
594abd98215cbd000146debc,fz7476obq8,"Affordance Norms_Prolific",1,30,2023-01-11T21:12:58+00:00,27.091220140457,14,"updated stim.csv",Version14.csv,"Version 14","List 14",doctor,,417,5.68,809,0.103957311,418,BOI,-,-,"Please name all of the ways you could use this object. Keep in mind that one object can have many uses. Separate your responses with a comma.",,y,26450,,,2285,25175,,,,"help, advice, care, talk",1
594abd98215cbd000146debc,fz7476obq8,"Affordance Norms_Prolific",1,31,2023-01-11T21:13:20+00:00,22.917095899582,14,"updated stim.csv",Version14.csv,"Version 14","List 14",suede,,391,5,2579,0.789364521,392,BOI,-,-,"Please name all of the ways you could use this object. Keep in mind that one object can have many uses. Separate your responses with a comma.",,y,22217,,,3828,20771,,,,"touch, make, rip, tear",1
594abd98215cbd000146debc,fz7476obq8,"Affordance Norms_Prolific",1,32,2023-01-11T21:13:40+00:00,19.442917108536,14,"updated stim.csv",Version14.csv,"Version 14","List 14",driftwood,,395,5.416666667,847,0.062436585,396,BOI,-,-,"Please name all of the ways you could use this object. Keep in mind that one object can have many uses. Separate your responses with a comma.",,y,18806,,,2524,17658,,,,"float, drift, table, seat",1
594abd98215cbd000146debc,fz7476obq8,"Affordance Norms_Prolific",1,33,2023-01-11T21:14:01+00:00,21.619477987289,14,"updated stim.csv",Version14.csv,"Version 14","List 14",clip,,406,4.833333333,560,0.891548733,407,BOI,-,-,"Please name all of the ways you could use this object. Keep in mind that one object can have many uses. Separate your responses with a comma.",,y,20979,,,3327,19667,,,,"hold, contain, break",1
594abd98215cbd000146debc,fz7476obq8,"Affordance Norms_Prolific",1,34,2023-01-11T21:14:23+00:00,21.688726902008,14,"updated stim.csv",Version14.csv,"Version 14","List 14",tuba,,401,5.130434783,2790,0.842475897,402,BOI,-,-,"Please name all of the ways you could use this object. Keep in mind that one object can have many uses. Separate your responses with a comma.",,y,21048,,,3165,19865,,,,"blow, hold, crack",1
594abd98215cbd000146debc,fz7476obq8,"Affordance Norms_Prolific",1,35,2023-01-11T21:14:43+00:00,19.545495033264,14,"updated stim.csv",Version14.csv,"Version 14","List 14",turnip,,412,6.12,2802,0.422574159,413,BOI,-,-,"Please name all of the ways you could use this object. Keep in mind that one object can have many uses. Separate your responses with a comma.",,y,18897,,,3412,14333,,,,"grow, cook, mash, ",1
594abd98215cbd000146debc,fz7476obq8,"Affordance Norms_Prolific",1,36,2023-01-11T21:15:12+00:00,29.256938934326,14,"updated stim.csv",Version14.csv,"Version 14","List 14",vagina,,399,6.041666667,2832,0.891669639,400,BOI,-,-,"Please name all of the ways you could use this object. Keep in mind that one object can have many uses. Separate your responses with a comma.",,y,28630,,,6604,27164,,,,"rub, wash, sex, masterbation",1
594abd98215cbd000146debc,fz7476obq8,"Affordance Norms_Prolific",1,37,2023-01-11T21:15:37+00:00,25.385720014572,14,"updated stim.csv",Version14.csv,"Version 14","List 14",cord,,420,6.103448276,640,0.523772766,421,BOI,-,-,"Please name all of the ways you could use this object. Keep in mind that one object can have many uses. Separate your responses with a comma.",,y,24741,,,2145,23302,,,,"tie, hold, knot, wrap",1
594abd98215cbd000146debc,fz7476obq8,"Affordance Norms_Prolific",1,38,2023-01-11T21:15:52+00:00,14.899300098419,14,"updated stim.csv",Version14.csv,"Version 14","List 14",hamstring,,408,5.08,1227,0.328162604,409,BOI,-,-,"Please name all of the ways you could use this object. Keep in mind that one object can have many uses. Separate your responses with a comma.",,y,14242,,,2443,12194,,,,"pull, rub, run",1
594abd98215cbd000146debc,fz7476obq8,"Affordance Norms_Prolific",1,39,2023-01-11T21:16:10+00:00,18.117546081543,14,"updated stim.csv",Version14.csv,"Version 14","List 14",booth,,403,4.92,282,0.969318496,404,BOI,-,-,"Please name all of the ways you could use this object. Keep in mind that one object can have many uses. Separate your responses with a comma.",,y,17480,,,1876,15997,,,,"sit, stand, relax, heat",1
594abd98215cbd000146debc,fz7476obq8,"Affordance Norms_Prolific",1,40,2023-01-11T21:16:24+00:00,13.289437770844,14,"updated stim.csv",Version14.csv,"Version 14","List 14",milkshake,,393,6.4,1661,0.405807635,394,BOI,-,-,"Please name all of the ways you could use this object. Keep in mind that one object can have many uses. Separate your responses with a comma.",,y,12639,,,2158,11799,,,,"drink, spill, mix, make",1
594abd98215cbd000146debc,fz7476obq8,"Affordance Norms_Prolific",1,41,2023-01-11T21:16:26+00:00,2.7490971088409,14,"updated stim.csv",Version14.csv,"Version 14","List 14",,,,,,,0,Instruct,,,"You will now be asked a few questions about your experience today.",,"Instruct 4",2379,,,-1,-1,,,,,1
