Username,ID,ExperimentName,Session,Trial,Date,TimeDif,"Condition Number","Stimuli File","Order File","Condition Description","Condition Notes",Stimuli*Cue,Stimuli*Answer,Stimuli*Shuffle,"Stimuli*Stimuli Notes",Stimuli*Value,Stimuli*Rand,Procedure*Item,"Procedure*Trial Type","Procedure*Max Time","Procedure*Min Time",Procedure*Text,"Procedure*Procedure Notes",Procedure*Shuffle,Response*RT,Response*Response,Response*Accuracy,Response*RTfirst,Response*RTlast,Response*strictAcc,Response*lenientAcc,Response*focus,Response*JOL,Response*Focus
61656042f505fd7fa53e8628,iu323xa07l,"Affordance Norms_Prolific",1,1,2023-01-09T18:22:12+00:00,12.114911079407,30,"updated stim.csv",Version30.csv,"Version 30","List 30",,,,,,,0,Instruct,-,10,"In this section, you will be presented with a series of objects. Please name as many possible uses for this object as you can think of by typing them in the box below each object.",,Instruct1,11610,,,-1,-1,,,,,1
61656042f505fd7fa53e8628,iu323xa07l,"Affordance Norms_Prolific",1,2,2023-01-09T18:22:25+00:00,12.415697097778,30,"updated stim.csv",Version30.csv,"Version 30","List 30",,,,,,,0,Instruct,-,10,"Please keep in mind that a single object will have more than one use. For example, a ball can be thrown or can be bounced or even stepped on. When listing multiple uses for one object, please separate each use with a comma (i.e., thrown, bounced, stepped on)",,Instruct2,11771,,,-1,-1,,,,,1
61656042f505fd7fa53e8628,iu323xa07l,"Affordance Norms_Prolific",1,3,2023-01-09T18:22:31+00:00,6.5691030025482,30,"updated stim.csv",Version30.csv,"Version 30","List 30",,,,,,,0,Instruct,-,-,"Before starting the experiment, you will complete a short practice sesstion. Press ENTER when you are ready to begin.",,Instruct3,5940,,,-1,-1,,,,,1
61656042f505fd7fa53e8628,iu323xa07l,"Affordance Norms_Prolific",1,4,2023-01-09T18:22:48+00:00,16.501132965088,30,"updated stim.csv",Version30.csv,"Version 30","List 30",spaghetti,,3003,6,2461,0.090379998,3004,BOI,-,-,"Please name all of the ways you could use this object. Keep in mind that one object can have many uses. Separate your responses with a comma.",,n,15883,,,2695,14281,,,,"cook, eat, make dried hair, ",1
61656042f505fd7fa53e8628,iu323xa07l,"Affordance Norms_Prolific",1,5,2023-01-09T18:22:57+00:00,9.0824239253998,30,"updated stim.csv",Version30.csv,"Version 30","List 30",paperwork,,3001,5.625,1866,0.124284162,3002,BOI,-,-,"Please name all of the ways you could use this object. Keep in mind that one object can have many uses. Separate your responses with a comma.",,n,8433,,,2647,6363,,,,"read, write, file, ",1
61656042f505fd7fa53e8628,iu323xa07l,"Affordance Norms_Prolific",1,6,2023-01-09T18:23:08+00:00,10.784820079803,30,"updated stim.csv",Version30.csv,"Version 30","List 30",shortening,,3002,4.92,2358,0.604328482,3003,BOI,-,-,"Please name all of the ways you could use this object. Keep in mind that one object can have many uses. Separate your responses with a comma.",,n,10125,,,3033,8859,,,,"hair, clothes, nails, ",1
61656042f505fd7fa53e8628,iu323xa07l,"Affordance Norms_Prolific",1,7,2023-01-09T18:23:28+00:00,20.268687009811,30,"updated stim.csv",Version30.csv,"Version 30","List 30",grain,,3004,5.217391304,1143,0.226863762,3005,BOI,-,-,"Please name all of the ways you could use this object. Keep in mind that one object can have many uses. Separate your responses with a comma.",,n,19585,,,4553,18073,,,,"of salt, grain of rice",1
61656042f505fd7fa53e8628,iu323xa07l,"Affordance Norms_Prolific",1,8,2023-01-09T18:23:45+00:00,17.374102830887,30,"updated stim.csv",Version30.csv,"Version 30","List 30",saucer,,3005,5.777777778,2249,0.304808074,3006,BOI,-,-,"Please name all of the ways you could use this object. Keep in mind that one object can have many uses. Separate your responses with a comma.",,n,16716,,,4702,15909,,,,"for a cup, for a bowl of milk, for a plant",1
61656042f505fd7fa53e8628,iu323xa07l,"Affordance Norms_Prolific",1,9,2023-01-09T18:23:48+00:00,3.0259561538696,30,"updated stim.csv",Version30.csv,"Version 30","List 30",,,,,,,0,Instruct,-,-,"You have completed this section. Press ENTER to continue",,"Instruct 5",2378,,,-1,-1,,,,,1
61656042f505fd7fa53e8628,iu323xa07l,"Affordance Norms_Prolific",1,10,2023-01-09T18:23:52+00:00,3.9339680671692,30,"updated stim.csv",Version30.csv,"Version 30","List 30",,,,,,,0,Instruct,-,-,"You will now start the full experiment. Press ENTER when you are ready to begin.",,,3534,,,-1,-1,,,,,1
61656042f505fd7fa53e8628,iu323xa07l,"Affordance Norms_Prolific",1,11,2023-01-09T18:24:06+00:00,14.026553869247,30,"updated stim.csv",Version30.csv,"Version 30","List 30",birdseed,,880,5.739130435,222,0.956785172,881,BOI,-,-,"Please name all of the ways you could use this object. Keep in mind that one object can have many uses. Separate your responses with a comma.",,y,13372,,,2553,11626,,,,"to feed bird, to feed wildlife, ",1
61656042f505fd7fa53e8628,iu323xa07l,"Affordance Norms_Prolific",1,12,2023-01-09T18:24:23+00:00,17.0564661026,30,"updated stim.csv",Version30.csv,"Version 30","List 30",trumpet,,900,6.291666667,2787,0.850134998,901,BOI,-,-,"Please name all of the ways you could use this object. Keep in mind that one object can have many uses. Separate your responses with a comma.",,y,16399,,,1792,15546,,,,"to play, to listen to, to teach with",1
61656042f505fd7fa53e8628,iu323xa07l,"Affordance Norms_Prolific",1,13,2023-01-09T18:24:42+00:00,18.759603023529,30,"updated stim.csv",Version30.csv,"Version 30","List 30",shore,,894,4.333333333,2355,0.660049672,895,BOI,-,-,"Please name all of the ways you could use this object. Keep in mind that one object can have many uses. Separate your responses with a comma.",,y,18092,,,10514,17244,,,,"lay on, get wet on, subath on",1
61656042f505fd7fa53e8628,iu323xa07l,"Affordance Norms_Prolific",1,14,2023-01-09T18:25:01+00:00,18.999737977982,30,"updated stim.csv",Version30.csv,"Version 30","List 30",factory,,879,4.44,941,0.280926781,880,BOI,-,-,"Please name all of the ways you could use this object. Keep in mind that one object can have many uses. Separate your responses with a comma.",,y,18341,,,4152,14270,,,,"to store things, to work in, ",1
61656042f505fd7fa53e8628,iu323xa07l,"Affordance Norms_Prolific",1,15,2023-01-09T18:25:15+00:00,13.603408813477,30,"updated stim.csv",Version30.csv,"Version 30","List 30",checkbook,,871,5.666666667,499,0.425587681,872,BOI,-,-,"Please name all of the ways you could use this object. Keep in mind that one object can have many uses. Separate your responses with a comma.",,y,12939,,,2189,12332,,,,"to write checks, to file for reference",1
61656042f505fd7fa53e8628,iu323xa07l,"Affordance Norms_Prolific",1,16,2023-01-09T18:25:34+00:00,19.251097202301,30,"updated stim.csv",Version30.csv,"Version 30","List 30",underwear,,887,6.52173913,2825,0.017337358,888,BOI,-,-,"Please name all of the ways you could use this object. Keep in mind that one object can have many uses. Separate your responses with a comma.",,y,18575,,,1336,17031,,,,"to wear, to wash, to put on toys, ",1
61656042f505fd7fa53e8628,iu323xa07l,"Affordance Norms_Prolific",1,17,2023-01-09T18:25:52+00:00,18.256129980087,30,"updated stim.csv",Version30.csv,"Version 30","List 30",collie,,897,5.730769231,603,0.293042848,898,BOI,-,-,"Please name all of the ways you could use this object. Keep in mind that one object can have many uses. Separate your responses with a comma.",,y,17612,,,6551,17012,,,,"to pat, to take for a walk, to play with, to feed",1
61656042f505fd7fa53e8628,iu323xa07l,"Affordance Norms_Prolific",1,18,2023-01-09T18:26:01+00:00,8.3230919837952,30,"updated stim.csv",Version30.csv,"Version 30","List 30",gum,,899,6.36,1195,0.973333942,900,BOI,-,-,"Please name all of the ways you could use this object. Keep in mind that one object can have many uses. Separate your responses with a comma.",,y,7660,,,1335,6848,,,,"to chew, to suck",1
61656042f505fd7fa53e8628,iu323xa07l,"Affordance Norms_Prolific",1,19,2023-01-09T18:26:14+00:00,13.584602832794,30,"updated stim.csv",Version30.csv,"Version 30","List 30",bolt,,888,4.925925926,263,0.225405371,889,BOI,-,-,"Please name all of the ways you could use this object. Keep in mind that one object can have many uses. Separate your responses with a comma.",,y,12931,,,1442,10889,,,,"to lock door, to lock shed, to lock gate and to unlock",1
61656042f505fd7fa53e8628,iu323xa07l,"Affordance Norms_Prolific",1,20,2023-01-09T18:26:25+00:00,10.50209903717,30,"updated stim.csv",Version30.csv,"Version 30","List 30",letter,,889,5.259259259,1495,0.658010365,890,BOI,-,-,"Please name all of the ways you could use this object. Keep in mind that one object can have many uses. Separate your responses with a comma.",,y,9830,,,1313,8982,,,,"to write one, to read one, to post one ",1
61656042f505fd7fa53e8628,iu323xa07l,"Affordance Norms_Prolific",1,21,2023-01-09T18:26:40+00:00,15.070186138153,30,"updated stim.csv",Version30.csv,"Version 30","List 30",compost,,891,5.041666667,614,0.722895407,892,BOI,-,-,"Please name all of the ways you could use this object. Keep in mind that one object can have many uses. Separate your responses with a comma.",,y,14413,,,1647,13694,,,,"to soil plants, to soil trees, to bed animals",1
61656042f505fd7fa53e8628,iu323xa07l,"Affordance Norms_Prolific",1,22,2023-01-09T18:26:55+00:00,15.185487031937,30,"updated stim.csv",Version30.csv,"Version 30","List 30",blade,,872,5.833333333,231,0.917373742,873,BOI,-,-,"Please name all of the ways you could use this object. Keep in mind that one object can have many uses. Separate your responses with a comma.",,y,14525,,,1914,13943,,,,"to sharpen, to cut, to shave",1
61656042f505fd7fa53e8628,iu323xa07l,"Affordance Norms_Prolific",1,23,2023-01-09T18:27:15+00:00,19.886584997177,30,"updated stim.csv",Version30.csv,"Version 30","List 30",schoolboy,,885,4.92,2270,0.08999478,886,BOI,-,-,"Please name all of the ways you could use this object. Keep in mind that one object can have many uses. Separate your responses with a comma.",,y,19227,,,2506,18318,,,,"to play, to go to school, to read, to learn ",1
61656042f505fd7fa53e8628,iu323xa07l,"Affordance Norms_Prolific",1,24,2023-01-09T18:27:27+00:00,12.619426965714,30,"updated stim.csv",Version30.csv,"Version 30","List 30",peashooter,,886,4.84,1897,0.915812698,887,BOI,-,-,"Please name all of the ways you could use this object. Keep in mind that one object can have many uses. Separate your responses with a comma.",,y,11959,,,2083,11204,,,,"to shoot peas, to play with, to make a sound",1
61656042f505fd7fa53e8628,iu323xa07l,"Affordance Norms_Prolific",1,25,2023-01-09T18:27:40+00:00,12.429749011993,30,"updated stim.csv",Version30.csv,"Version 30","List 30",singer,,896,4.821428571,2384,0.068776343,897,BOI,-,-,"Please name all of the ways you could use this object. Keep in mind that one object can have many uses. Separate your responses with a comma.",,y,11777,,,1885,11014,,,,"to listen to, to entertain, to teach",1
61656042f505fd7fa53e8628,iu323xa07l,"Affordance Norms_Prolific",1,26,2023-01-09T18:27:53+00:00,13.54146194458,30,"updated stim.csv",Version30.csv,"Version 30","List 30",buffalo,,893,4.692307692,345,0.582569981,894,BOI,-,-,"Please name all of the ways you could use this object. Keep in mind that one object can have many uses. Separate your responses with a comma.",,y,12888,,,3952,12107,,,,"to look at, to watch, to fight",1
61656042f505fd7fa53e8628,iu323xa07l,"Affordance Norms_Prolific",1,27,2023-01-09T18:28:06+00:00,12.998349905014,30,"updated stim.csv",Version30.csv,"Version 30","List 30",copier,,892,5.136363636,636,0.426192694,893,BOI,-,-,"Please name all of the ways you could use this object. Keep in mind that one object can have many uses. Separate your responses with a comma.",,y,12339,,,2271,11220,,,,"to copy paper, to scan documents, to print",1
61656042f505fd7fa53e8628,iu323xa07l,"Affordance Norms_Prolific",1,28,2023-01-09T18:28:25+00:00,18.28862118721,30,"updated stim.csv",Version30.csv,"Version 30","List 30",lipstick,,878,5.928571429,1522,0.577896771,879,BOI,-,-,"Please name all of the ways you could use this object. Keep in mind that one object can have many uses. Separate your responses with a comma.",,y,17635,,,1162,4197,,,,"to wear, to write, to ",1
61656042f505fd7fa53e8628,iu323xa07l,"Affordance Norms_Prolific",1,29,2023-01-09T18:28:38+00:00,13.554363965988,30,"updated stim.csv",Version30.csv,"Version 30","List 30",sign,,876,4.666666667,2379,0.601479612,877,BOI,-,-,"Please name all of the ways you could use this object. Keep in mind that one object can have many uses. Separate your responses with a comma.",,y,12875,,,2007,12157,,,,"to sign your signature, to write one, to drawn one",1
61656042f505fd7fa53e8628,iu323xa07l,"Affordance Norms_Prolific",1,30,2023-01-09T18:28:55+00:00,16.379542827606,30,"updated stim.csv",Version30.csv,"Version 30","List 30",locksmith,,874,4.8,1538,0.890036782,875,BOI,-,-,"Please name all of the ways you could use this object. Keep in mind that one object can have many uses. Separate your responses with a comma.",,y,15726,,,2015,10930,,,,"to lock doors, to do shoehorses, ",1
61656042f505fd7fa53e8628,iu323xa07l,"Affordance Norms_Prolific",1,31,2023-01-09T18:29:18+00:00,23.663577079773,30,"updated stim.csv",Version30.csv,"Version 30","List 30",cockatoo,,877,4.666666667,587,0.224004944,878,BOI,-,-,"Please name all of the ways you could use this object. Keep in mind that one object can have many uses. Separate your responses with a comma.",,y,22989,,,2077,22193,,,,"to make a tune, to make apet, to talk",1
61656042f505fd7fa53e8628,iu323xa07l,"Affordance Norms_Prolific",1,32,2023-01-09T18:29:29+00:00,10.784823894501,30,"updated stim.csv",Version30.csv,"Version 30","List 30",syrup,,898,5.16,2614,0.480576969,899,BOI,-,-,"Please name all of the ways you could use this object. Keep in mind that one object can have many uses. Separate your responses with a comma.",,y,10115,,,2365,9326,,,,"to go in pudding, to use on food",1
61656042f505fd7fa53e8628,iu323xa07l,"Affordance Norms_Prolific",1,33,2023-01-09T18:29:45+00:00,15.423856019974,30,"updated stim.csv",Version30.csv,"Version 30","List 30",sarong,,890,5.357142857,2243,0.398804468,891,BOI,-,-,"Please name all of the ways you could use this object. Keep in mind that one object can have many uses. Separate your responses with a comma.",,y,14742,,,1824,14332,,,,"to wear as dress, to wear as a cover",1
61656042f505fd7fa53e8628,iu323xa07l,"Affordance Norms_Prolific",1,34,2023-01-09T18:30:14+00:00,29.022572040558,30,"updated stim.csv",Version30.csv,"Version 30","List 30",brother,,873,5.043478261,335,0.432435812,874,BOI,-,-,"Please name all of the ways you could use this object. Keep in mind that one object can have many uses. Separate your responses with a comma.",,y,28347,,,19037,27803,,,,"a brother, a friend, a relative",1
61656042f505fd7fa53e8628,iu323xa07l,"Affordance Norms_Prolific",1,35,2023-01-09T18:30:21+00:00,7.5670449733734,30,"updated stim.csv",Version30.csv,"Version 30","List 30",tiller,,875,4.541666667,2698,0.164354826,876,BOI,-,-,"Please name all of the ways you could use this object. Keep in mind that one object can have many uses. Separate your responses with a comma.",,y,6901,,,3337,6117,,,,"to cash money",1
61656042f505fd7fa53e8628,iu323xa07l,"Affordance Norms_Prolific",1,36,2023-01-09T18:30:36+00:00,15.251448154449,30,"updated stim.csv",Version30.csv,"Version 30","List 30",chart,,883,4.428571429,497,0.942108793,884,BOI,-,-,"Please name all of the ways you could use this object. Keep in mind that one object can have many uses. Separate your responses with a comma.",,y,14560,,,2005,13703,,,,"to display graphs, to display holidays, to display anything ",1
61656042f505fd7fa53e8628,iu323xa07l,"Affordance Norms_Prolific",1,37,2023-01-09T18:30:49+00:00,13.006705999374,30,"updated stim.csv",Version30.csv,"Version 30","List 30",proofreader,,884,4.36,2073,0.78063647,885,BOI,-,-,"Please name all of the ways you could use this object. Keep in mind that one object can have many uses. Separate your responses with a comma.",,y,12345,,,2944,11008,,,,"to check work, to check figures, to check numbers",1
61656042f505fd7fa53e8628,iu323xa07l,"Affordance Norms_Prolific",1,38,2023-01-09T18:31:02+00:00,12.697345018387,30,"updated stim.csv",Version30.csv,"Version 30","List 30",album,,895,5.791666667,23,0.231355188,896,BOI,-,-,"Please name all of the ways you could use this object. Keep in mind that one object can have many uses. Separate your responses with a comma.",,y,12052,,,3257,11182,,,,"to file, to keep, to play music",1
61656042f505fd7fa53e8628,iu323xa07l,"Affordance Norms_Prolific",1,39,2023-01-09T18:31:13+00:00,10.677680969238,30,"updated stim.csv",Version30.csv,"Version 30","List 30",woodblock,,881,5.4,2957,0.000911535,882,BOI,-,-,"Please name all of the ways you could use this object. Keep in mind that one object can have many uses. Separate your responses with a comma.",,y,9993,,,2130,9293,,,,"to chop, to write on, to keep, to burn",1
61656042f505fd7fa53e8628,iu323xa07l,"Affordance Norms_Prolific",1,40,2023-01-09T18:31:27+00:00,13.862877845764,30,"updated stim.csv",Version30.csv,"Version 30","List 30",fairground,,882,4.608695652,943,0.254444575,883,BOI,-,-,"Please name all of the ways you could use this object. Keep in mind that one object can have many uses. Separate your responses with a comma.",,y,13195,,,2023,12353,,,,"to ride, to watch, to listen to entertain",1
61656042f505fd7fa53e8628,iu323xa07l,"Affordance Norms_Prolific",1,41,2023-01-09T18:31:30+00:00,3.4137971401215,30,"updated stim.csv",Version30.csv,"Version 30","List 30",,,,,,,0,Instruct,,,"You will now be asked a few questions about your experience today.",,"Instruct 4",2772,,,-1,-1,,,,,1
