Username,ID,ExperimentName,Session,Trial,Date,TimeDif,"Condition Number","Stimuli File","Order File","Condition Description","Condition Notes",Stimuli*Cue,Stimuli*Answer,Stimuli*Shuffle,"Stimuli*Stimuli Notes",Stimuli*Value,Stimuli*Rand,Procedure*Item,"Procedure*Trial Type","Procedure*Max Time","Procedure*Min Time",Procedure*Text,"Procedure*Procedure Notes",Procedure*Shuffle,Response*RT,Response*Response,Response*Accuracy,Response*RTfirst,Response*RTlast,Response*strictAcc,Response*lenientAcc,Response*focus,Response*JOL,Response*Focus
5bef31aa059b3200010715dc,vbu7wojxdf,"Affordance Norms_Prolific",1,1,2023-01-13T01:09:55+00:00,11.935956954956,55,"updated stim.csv",Version55.csv,"Version 55","List 55",,,,,,,0,Instruct,-,10,"In this section, you will be presented with a series of objects. Please name as many possible uses for this object as you can think of by typing them in the box below each object.",,Instruct1,11288,,,-1,-1,,,,,0.789
5bef31aa059b3200010715dc,vbu7wojxdf,"Affordance Norms_Prolific",1,2,2023-01-13T01:10:13+00:00,17.628765106201,55,"updated stim.csv",Version55.csv,"Version 55","List 55",,,,,,,0,Instruct,-,10,"Please keep in mind that a single object will have more than one use. For example, a ball can be thrown or can be bounced or even stepped on. When listing multiple uses for one object, please separate each use with a comma (i.e., thrown, bounced, stepped on)",,Instruct2,16804,,,-1,-1,,,,,0.845
5bef31aa059b3200010715dc,vbu7wojxdf,"Affordance Norms_Prolific",1,3,2023-01-13T01:10:24+00:00,11.225676774979,55,"updated stim.csv",Version55.csv,"Version 55","List 55",,,,,,,0,Instruct,-,-,"Before starting the experiment, you will complete a short practice sesstion. Press ENTER when you are ready to begin.",,Instruct3,10419,,,-1,-1,,,,,0.774
5bef31aa059b3200010715dc,vbu7wojxdf,"Affordance Norms_Prolific",1,4,2023-01-13T01:11:31+00:00,67.664270162582,55,"updated stim.csv",Version55.csv,"Version 55","List 55",grain,,3004,5.217391304,1143,0.226863762,3005,BOI,-,-,"Please name all of the ways you could use this object. Keep in mind that one object can have many uses. Separate your responses with a comma.",,n,66837,,,10161,17833,,,,"eat, grind, ",0.955
5bef31aa059b3200010715dc,vbu7wojxdf,"Affordance Norms_Prolific",1,5,2023-01-13T01:12:19+00:00,47.994569063187,55,"updated stim.csv",Version55.csv,"Version 55","List 55",saucer,,3005,5.777777778,2249,0.304808074,3006,BOI,-,-,"Please name all of the ways you could use this object. Keep in mind that one object can have many uses. Separate your responses with a comma.",,n,47167,,,6733,41877,,,,"place things on it, put liquids in it, use as a lid",0.936
5bef31aa059b3200010715dc,vbu7wojxdf,"Affordance Norms_Prolific",1,6,2023-01-13T01:13:26+00:00,66.286978960037,55,"updated stim.csv",Version55.csv,"Version 55","List 55",shortening,,3002,4.92,2358,0.604328482,3003,BOI,-,-,"Please name all of the ways you could use this object. Keep in mind that one object can have many uses. Separate your responses with a comma.",,n,65478,,,60870,63760,,,,"eat, fry, melt",0.589
5bef31aa059b3200010715dc,vbu7wojxdf,"Affordance Norms_Prolific",1,7,2023-01-13T01:14:10+00:00,43.995985031128,55,"updated stim.csv",Version55.csv,"Version 55","List 55",spaghetti,,3003,6,2461,0.090379998,3004,BOI,-,-,"Please name all of the ways you could use this object. Keep in mind that one object can have many uses. Separate your responses with a comma.",,n,43146,,,4323,35395,,,,"cook, eat, use in arts and crafts",0.944
5bef31aa059b3200010715dc,vbu7wojxdf,"Affordance Norms_Prolific",1,8,2023-01-13T01:14:51+00:00,41.284277915955,55,"updated stim.csv",Version55.csv,"Version 55","List 55",paperwork,,3001,5.625,1866,0.124284162,3002,BOI,-,-,"Please name all of the ways you could use this object. Keep in mind that one object can have many uses. Separate your responses with a comma.",,n,40452,,,6822,37339,,,,"write on it, burn it, file it, read it,",1
5bef31aa059b3200010715dc,vbu7wojxdf,"Affordance Norms_Prolific",1,9,2023-01-13T01:14:54+00:00,2.4919209480286,55,"updated stim.csv",Version55.csv,"Version 55","List 55",,,,,,,0,Instruct,-,-,"You have completed this section. Press ENTER to continue",,"Instruct 5",1977,,,-1,-1,,,,,1
5bef31aa059b3200010715dc,vbu7wojxdf,"Affordance Norms_Prolific",1,10,2023-01-13T01:14:56+00:00,2.9025220870972,55,"updated stim.csv",Version55.csv,"Version 55","List 55",,,,,,,0,Instruct,-,-,"You will now start the full experiment. Press ENTER when you are ready to begin.",,,2370,,,-1,-1,,,,,1
5bef31aa059b3200010715dc,vbu7wojxdf,"Affordance Norms_Prolific",1,11,2023-01-13T01:15:36+00:00,39.565181970596,55,"updated stim.csv",Version55.csv,"Version 55","List 55",rook,,1636,4.772727273,2188,0.638035316,1637,BOI,-,-,"Please name all of the ways you could use this object. Keep in mind that one object can have many uses. Separate your responses with a comma.",,y,38720,,,28864,33741,,,,"pick it up, move it, knock it over",0.838
5bef31aa059b3200010715dc,vbu7wojxdf,"Affordance Norms_Prolific",1,12,2023-01-13T01:16:10+00:00,33.844443082809,55,"updated stim.csv",Version55.csv,"Version 55","List 55",leash,,1645,5.708333333,1479,0.828447137,1646,BOI,-,-,"Please name all of the ways you could use this object. Keep in mind that one object can have many uses. Separate your responses with a comma.",,y,33008,,,2195,30670,,,,"hold it, clip it to something, tie it, pull it",1
5bef31aa059b3200010715dc,vbu7wojxdf,"Affordance Norms_Prolific",1,13,2023-01-13T01:17:15+00:00,65.291764974594,55,"updated stim.csv",Version55.csv,"Version 55","List 55",entertainer,,1623,4.964285714,910,0.222930463,1624,BOI,-,-,"Please name all of the ways you could use this object. Keep in mind that one object can have many uses. Separate your responses with a comma.",,y,64472,,,26388,58315,,,,"entertain people, keeps kids quiet, distracts people",0.822
5bef31aa059b3200010715dc,vbu7wojxdf,"Affordance Norms_Prolific",1,14,2023-01-13T01:18:11+00:00,56.307983875275,55,"updated stim.csv",Version55.csv,"Version 55","List 55",computer,,1627,6.714285714,616,0.861812353,1628,BOI,-,-,"Please name all of the ways you could use this object. Keep in mind that one object can have many uses. Separate your responses with a comma.",,y,55492,,,2034,35639,,,,"turn it on, browse the net, watch videos, listen to music, read, type up documents, send emails, play games",1
5bef31aa059b3200010715dc,vbu7wojxdf,"Affordance Norms_Prolific",1,15,2023-01-13T01:18:53+00:00,41.343253135681,55,"updated stim.csv",Version55.csv,"Version 55","List 55",altar,,1639,4.782608696,30,0.447537372,1640,BOI,-,-,"Please name all of the ways you could use this object. Keep in mind that one object can have many uses. Separate your responses with a comma.",,y,40539,,,1879,28266,,,,"pray, get married, hold funerals, sacrifice",0.787
5bef31aa059b3200010715dc,vbu7wojxdf,"Affordance Norms_Prolific",1,16,2023-01-13T01:19:25+00:00,32.424374818802,55,"updated stim.csv",Version55.csv,"Version 55","List 55",stationery,,1644,4.608695652,2511,0.93204988,1645,BOI,-,-,"Please name all of the ways you could use this object. Keep in mind that one object can have many uses. Separate your responses with a comma.",,y,31603,,,1610,20078,,,,"write, draw, cut, colour in, design, create things",0.791
5bef31aa059b3200010715dc,vbu7wojxdf,"Affordance Norms_Prolific",1,17,2023-01-13T01:20:12+00:00,47.065733194351,55,"updated stim.csv",Version55.csv,"Version 55","List 55",pouch,,1648,5.178571429,2052,0.791524024,1649,BOI,-,-,"Please name all of the ways you could use this object. Keep in mind that one object can have many uses. Separate your responses with a comma.",,y,46257,,,12208,34188,,,,"hold it, catch it, place things in it, throw it",0.871
5bef31aa059b3200010715dc,vbu7wojxdf,"Affordance Norms_Prolific",1,18,2023-01-13T01:21:01+00:00,48.633071899414,55,"updated stim.csv",Version55.csv,"Version 55","List 55",fawn,,1634,4.535714286,954,0.353209191,1635,BOI,-,-,"Please name all of the ways you could use this object. Keep in mind that one object can have many uses. Separate your responses with a comma.",,y,47815,,,17421,42998,,,,"watch it, pet it, feed it, record it, talk to it",0.806
5bef31aa059b3200010715dc,vbu7wojxdf,"Affordance Norms_Prolific",1,19,2023-01-13T01:21:46+00:00,45.231549978256,55,"updated stim.csv",Version55.csv,"Version 55","List 55",teammate,,1624,5.074074074,2648,0.310089302,1625,BOI,-,-,"Please name all of the ways you could use this object. Keep in mind that one object can have many uses. Separate your responses with a comma.",,y,44394,,,24542,34111,,,,"work together, chat, play, bond",0.869
5bef31aa059b3200010715dc,vbu7wojxdf,"Affordance Norms_Prolific",1,20,2023-01-13T01:22:11+00:00,24.711297988892,55,"updated stim.csv",Version55.csv,"Version 55","List 55",breeches,,1622,4.666666667,316,0.707038796,1623,BOI,-,-,"Please name all of the ways you could use this object. Keep in mind that one object can have many uses. Separate your responses with a comma.",,y,23895,,,16121,17003,,,,"wear them",0.542
5bef31aa059b3200010715dc,vbu7wojxdf,"Affordance Norms_Prolific",1,21,2023-01-13T01:22:55+00:00,44.633163928986,55,"updated stim.csv",Version55.csv,"Version 55","List 55",colt,,1650,4.916666667,605,0.679699256,1651,BOI,-,-,"Please name all of the ways you could use this object. Keep in mind that one object can have many uses. Separate your responses with a comma.",,y,43821,,,11741,31546,,,,"pet it, feed it, train it, talk to it, watch it, record it",0.789
5bef31aa059b3200010715dc,vbu7wojxdf,"Affordance Norms_Prolific",1,22,2023-01-13T01:24:04+00:00,68.317261219025,55,"updated stim.csv",Version55.csv,"Version 55","List 55",soy,,1647,4.785714286,2457,0.717932566,1648,BOI,-,-,"Please name all of the ways you could use this object. Keep in mind that one object can have many uses. Separate your responses with a comma.",,y,67495,,,53547,59048,,,,"eat it, grind it, feed to livestock",0.503
5bef31aa059b3200010715dc,vbu7wojxdf,"Affordance Norms_Prolific",1,23,2023-01-13T01:24:59+00:00,55.124943971634,55,"updated stim.csv",Version55.csv,"Version 55","List 55",chicken,,1630,5.5,517,0.800908164,1631,BOI,-,-,"Please name all of the ways you could use this object. Keep in mind that one object can have many uses. Separate your responses with a comma.",,y,54275,,,3038,44367,,,,"pet it, eat it, look after it, talk to it, cook it, pluck it, feed it",0.89
5bef31aa059b3200010715dc,vbu7wojxdf,"Affordance Norms_Prolific",1,24,2023-01-13T01:25:23+00:00,24.026952981949,55,"updated stim.csv",Version55.csv,"Version 55","List 55",shrimp,,1625,4.909090909,2366,0.536142911,1626,BOI,-,-,"Please name all of the ways you could use this object. Keep in mind that one object can have many uses. Separate your responses with a comma.",,y,23181,,,2673,14513,,,,"eat it, cook it, de-shell it",0.802
5bef31aa059b3200010715dc,vbu7wojxdf,"Affordance Norms_Prolific",1,25,2023-01-13T01:25:51+00:00,27.59371304512,55,"updated stim.csv",Version55.csv,"Version 55","List 55",pearl,,1621,5.555555556,1896,0.834012142,1622,BOI,-,-,"Please name all of the ways you could use this object. Keep in mind that one object can have many uses. Separate your responses with a comma.",,y,26752,,,2346,15558,,,,"wear them, collect them, sell them, make jewellery",0.754
5bef31aa059b3200010715dc,vbu7wojxdf,"Affordance Norms_Prolific",1,26,2023-01-13T01:26:05+00:00,14.177285909653,55,"updated stim.csv",Version55.csv,"Version 55","List 55",chowder,,1633,4.96,537,0.304652791,1634,BOI,-,-,"Please name all of the ways you could use this object. Keep in mind that one object can have many uses. Separate your responses with a comma.",,y,13347,,,3287,3865,,,,"eat it",0.746
5bef31aa059b3200010715dc,vbu7wojxdf,"Affordance Norms_Prolific",1,27,2023-01-13T01:26:36+00:00,31.48338508606,55,"updated stim.csv",Version55.csv,"Version 55","List 55",customer,,1642,5.541666667,736,0.863158116,1643,BOI,-,-,"Please name all of the ways you could use this object. Keep in mind that one object can have many uses. Separate your responses with a comma.",,y,30688,,,1844,9009,,,,"talk to them, help them, serve them",0.844
5bef31aa059b3200010715dc,vbu7wojxdf,"Affordance Norms_Prolific",1,28,2023-01-13T01:27:02+00:00,25.469738960266,55,"updated stim.csv",Version55.csv,"Version 55","List 55",valve,,1628,4.869565217,2835,0.325160975,1629,BOI,-,-,"Please name all of the ways you could use this object. Keep in mind that one object can have many uses. Separate your responses with a comma.",,y,24628,,,3026,13852,,,,"tighten, turn, loosen, twist",0.839
5bef31aa059b3200010715dc,vbu7wojxdf,"Affordance Norms_Prolific",1,29,2023-01-13T01:27:31+00:00,29.348440885544,55,"updated stim.csv",Version55.csv,"Version 55","List 55",dishwater,,1638,5.2,804,0.827602043,1639,BOI,-,-,"Please name all of the ways you could use this object. Keep in mind that one object can have many uses. Separate your responses with a comma.",,y,28529,,,3780,19484,,,,"clean things, empty",0.685
5bef31aa059b3200010715dc,vbu7wojxdf,"Affordance Norms_Prolific",1,30,2023-01-13T01:28:28+00:00,57.491661071777,55,"updated stim.csv",Version55.csv,"Version 55","List 55",steel,,1649,4.884615385,2517,0.89061818,1650,BOI,-,-,"Please name all of the ways you could use this object. Keep in mind that one object can have many uses. Separate your responses with a comma.",,y,56660,,,1778,47096,,,,"bend it, make cars, make white goods, used in construction",0.819
5bef31aa059b3200010715dc,vbu7wojxdf,"Affordance Norms_Prolific",1,31,2023-01-13T01:28:55+00:00,26.38501906395,55,"updated stim.csv",Version55.csv,"Version 55","List 55",basement,,1637,4.6,159,0.024851843,1638,BOI,-,-,"Please name all of the ways you could use this object. Keep in mind that one object can have many uses. Separate your responses with a comma.",,y,25559,,,3928,16720,,,,"use for storage, use as a gym, turn into a bedroom, rent it out",0.773
5bef31aa059b3200010715dc,vbu7wojxdf,"Affordance Norms_Prolific",1,32,2023-01-13T01:29:34+00:00,39.551294803619,55,"updated stim.csv",Version55.csv,"Version 55","List 55",shuffleboard,,1646,5.130434783,2370,0.546648692,1647,BOI,-,-,"Please name all of the ways you could use this object. Keep in mind that one object can have many uses. Separate your responses with a comma.",,y,38709,,,31425,32897,,,,"push pucks",0.563
5bef31aa059b3200010715dc,vbu7wojxdf,"Affordance Norms_Prolific",1,33,2023-01-13T01:30:01+00:00,26.994605064392,55,"updated stim.csv",Version55.csv,"Version 55","List 55",library,,1629,4.391304348,1499,0.659670778,1630,BOI,-,-,"Please name all of the ways you could use this object. Keep in mind that one object can have many uses. Separate your responses with a comma.",,y,26149,,,2003,12742,,,,"read, learn, relax, study",0.885
5bef31aa059b3200010715dc,vbu7wojxdf,"Affordance Norms_Prolific",1,34,2023-01-13T01:30:54+00:00,52.477374076843,55,"updated stim.csv",Version55.csv,"Version 55","List 55",appendage,,1640,5,59,0.16886872,1641,BOI,-,-,"Please name all of the ways you could use this object. Keep in mind that one object can have many uses. Separate your responses with a comma.",,y,51662,,,29220,36286,,,,"bend it, pick things up, move things,",0.64
5bef31aa059b3200010715dc,vbu7wojxdf,"Affordance Norms_Prolific",1,35,2023-01-13T01:31:21+00:00,26.599247932434,55,"updated stim.csv",Version55.csv,"Version 55","List 55",bunion,,1641,4.36,359,0.693366125,1642,BOI,-,-,"Please name all of the ways you could use this object. Keep in mind that one object can have many uses. Separate your responses with a comma.",,y,25783,,,19976,21191,,,,"remove it",0.662
5bef31aa059b3200010715dc,vbu7wojxdf,"Affordance Norms_Prolific",1,36,2023-01-13T01:31:47+00:00,25.995060920715,55,"updated stim.csv",Version55.csv,"Version 55","List 55",frankfurter,,1626,5.708333333,1054,0.958335229,1627,BOI,-,-,"Please name all of the ways you could use this object. Keep in mind that one object can have many uses. Separate your responses with a comma.",,y,25156,,,1432,15050,,,,"eat it, cook it, put it in a roll, cut it, chew it",0.738
5bef31aa059b3200010715dc,vbu7wojxdf,"Affordance Norms_Prolific",1,37,2023-01-13T01:32:36+00:00,49.890547037125,55,"updated stim.csv",Version55.csv,"Version 55","List 55",brandy,,1632,5.64,304,0.909487313,1633,BOI,-,-,"Please name all of the ways you could use this object. Keep in mind that one object can have many uses. Separate your responses with a comma.",,y,49061,,,1831,45286,,,,"pour it, drink it, use to clean things, distill it, cook with it",0.772
5bef31aa059b3200010715dc,vbu7wojxdf,"Affordance Norms_Prolific",1,38,2023-01-13T01:32:53+00:00,16.650521993637,55,"updated stim.csv",Version55.csv,"Version 55","List 55",scab,,1631,4.958333333,2258,0.920222267,1632,BOI,-,-,"Please name all of the ways you could use this object. Keep in mind that one object can have many uses. Separate your responses with a comma.",,y,15796,,,3822,8030,,,,"pick it, leave it alone",0.835
5bef31aa059b3200010715dc,vbu7wojxdf,"Affordance Norms_Prolific",1,39,2023-01-13T01:33:20+00:00,27.350486040115,55,"updated stim.csv",Version55.csv,"Version 55","List 55",stairs,,1643,5.88,2501,0.741447389,1644,BOI,-,-,"Please name all of the ways you could use this object. Keep in mind that one object can have many uses. Separate your responses with a comma.",,y,26500,,,1445,12520,,,,"climb them, walk down them, crawl down them, run up them",0.602
5bef31aa059b3200010715dc,vbu7wojxdf,"Affordance Norms_Prolific",1,40,2023-01-13T01:33:49+00:00,28.532491922379,55,"updated stim.csv",Version55.csv,"Version 55","List 55",ship,,1635,5.2,2343,0.773124168,1636,BOI,-,-,"Please name all of the ways you could use this object. Keep in mind that one object can have many uses. Separate your responses with a comma.",,y,27706,,,1961,16722,,,,"sail it, drive onto it, sit in it, relax on it, travel",0.712
5bef31aa059b3200010715dc,vbu7wojxdf,"Affordance Norms_Prolific",1,41,2023-01-13T01:33:52+00:00,2.7813150882721,55,"updated stim.csv",Version55.csv,"Version 55","List 55",,,,,,,0,Instruct,,,"You will now be asked a few questions about your experience today.",,"Instruct 4",2260,,,-1,-1,,,,,1
