Username,ID,ExperimentName,Session,Trial,Date,TimeDif,"Condition Number","Stimuli File","Order File","Condition Description","Condition Notes",Stimuli*Cue,Stimuli*Answer,Stimuli*Shuffle,"Stimuli*Stimuli Notes",Stimuli*Value,Stimuli*Rand,Procedure*Item,"Procedure*Trial Type","Procedure*Max Time","Procedure*Min Time",Procedure*Text,"Procedure*Procedure Notes",Procedure*Shuffle,Response*RT,Response*Response,Response*Accuracy,Response*RTfirst,Response*RTlast,Response*strictAcc,Response*lenientAcc,Response*focus,Response*JOL,Response*Focus
630385b5137ceb691eed0cd1,4owju15gms,"Affordance Norms_Prolific",1,1,2023-01-11T00:42:09+00:00,12.592368125916,77,"updated stim.csv",Version77.csv,"Version 77","List 77",,,,,,,0,Instruct,-,10,"In this section, you will be presented with a series of objects. Please name as many possible uses for this object as you can think of by typing them in the box below each object.",,Instruct1,12370,,,-1,-1,,,,,1
630385b5137ceb691eed0cd1,4owju15gms,"Affordance Norms_Prolific",1,2,2023-01-11T00:42:25+00:00,15.578831911087,77,"updated stim.csv",Version77.csv,"Version 77","List 77",,,,,,,0,Instruct,-,10,"Please keep in mind that a single object will have more than one use. For example, a ball can be thrown or can be bounced or even stepped on. When listing multiple uses for one object, please separate each use with a comma (i.e., thrown, bounced, stepped on)",,Instruct2,15227,,,-1,-1,,,,,1
630385b5137ceb691eed0cd1,4owju15gms,"Affordance Norms_Prolific",1,3,2023-01-11T00:42:31+00:00,6.571671962738,77,"updated stim.csv",Version77.csv,"Version 77","List 77",,,,,,,0,Instruct,-,-,"Before starting the experiment, you will complete a short practice sesstion. Press ENTER when you are ready to begin.",,Instruct3,6254,,,-1,-1,,,,,1
630385b5137ceb691eed0cd1,4owju15gms,"Affordance Norms_Prolific",1,4,2023-01-11T00:43:17+00:00,45.31162405014,77,"updated stim.csv",Version77.csv,"Version 77","List 77",shortening,,3002,4.92,2358,0.604328482,3003,BOI,-,-,"Please name all of the ways you could use this object. Keep in mind that one object can have many uses. Separate your responses with a comma.",,n,44696,,,8254,16377,,,,"length, time",1
630385b5137ceb691eed0cd1,4owju15gms,"Affordance Norms_Prolific",1,5,2023-01-11T00:44:00+00:00,43.652879953384,77,"updated stim.csv",Version77.csv,"Version 77","List 77",spaghetti,,3003,6,2461,0.090379998,3004,BOI,-,-,"Please name all of the ways you could use this object. Keep in mind that one object can have many uses. Separate your responses with a comma.",,n,43028,,,3424,21578,,,,"eat, cook, boil, twirl",1
630385b5137ceb691eed0cd1,4owju15gms,"Affordance Norms_Prolific",1,6,2023-01-11T00:45:24+00:00,83.348716974258,77,"updated stim.csv",Version77.csv,"Version 77","List 77",saucer,,3005,5.777777778,2249,0.304808074,3006,BOI,-,-,"Please name all of the ways you could use this object. Keep in mind that one object can have many uses. Separate your responses with a comma.",,n,82718,,,17965,77703,,,,"hold on to, drink from, draw round, ",1
630385b5137ceb691eed0cd1,4owju15gms,"Affordance Norms_Prolific",1,7,2023-01-11T00:46:28+00:00,64.564476966858,77,"updated stim.csv",Version77.csv,"Version 77","List 77",paperwork,,3001,5.625,1866,0.124284162,3002,BOI,-,-,"Please name all of the ways you could use this object. Keep in mind that one object can have many uses. Separate your responses with a comma.",,n,64209,,,2147,61520,,,,"complete, file away, destroy, read, alter, inform people, sign",1
630385b5137ceb691eed0cd1,4owju15gms,"Affordance Norms_Prolific",1,8,2023-01-11T00:48:03+00:00,95.22914814949,77,"updated stim.csv",Version77.csv,"Version 77","List 77",grain,,3004,5.217391304,1143,0.226863762,3005,BOI,-,-,"Please name all of the ways you could use this object. Keep in mind that one object can have many uses. Separate your responses with a comma.",,n,94611,,,63505,87098,,,,"eat, feel",0.59
630385b5137ceb691eed0cd1,4owju15gms,"Affordance Norms_Prolific",1,9,2023-01-11T00:48:06+00:00,2.3732688426971,77,"updated stim.csv",Version77.csv,"Version 77","List 77",,,,,,,0,Instruct,-,-,"You have completed this section. Press ENTER to continue",,"Instruct 5",2018,,,-1,-1,,,,,1
630385b5137ceb691eed0cd1,4owju15gms,"Affordance Norms_Prolific",1,10,2023-01-11T00:48:10+00:00,3.7402470111847,77,"updated stim.csv",Version77.csv,"Version 77","List 77",,,,,,,0,Instruct,-,-,"You will now start the full experiment. Press ENTER when you are ready to begin.",,,3396,,,-1,-1,,,,,1
630385b5137ceb691eed0cd1,4owju15gms,"Affordance Norms_Prolific",1,11,2023-01-11T00:50:25+00:00,135.66516113281,77,"updated stim.csv",Version77.csv,"Version 77","List 77",thumbnail,,2284,4.88,2688,0.81261151,2285,BOI,-,-,"Please name all of the ways you could use this object. Keep in mind that one object can have many uses. Separate your responses with a comma.",,y,135291,,,6947,128967,,,,"to see an example picture, to scratch things, test nail varnish, ",0.625
630385b5137ceb691eed0cd1,4owju15gms,"Affordance Norms_Prolific",1,12,2023-01-11T00:52:04+00:00,98.574514865875,77,"updated stim.csv",Version77.csv,"Version 77","List 77",photograph,,2295,5.875,1944,0.499544897,2296,BOI,-,-,"Please name all of the ways you could use this object. Keep in mind that one object can have many uses. Separate your responses with a comma.",,y,97942,,,5344,95174,,,,"capture memories, relive memories, give ideas, decoration, evidence, give ideas, give examples",1
630385b5137ceb691eed0cd1,4owju15gms,"Affordance Norms_Prolific",1,13,2023-01-11T00:53:50+00:00,106.4921810627,77,"updated stim.csv",Version77.csv,"Version 77","List 77",pumpkin,,2305,5.708333333,2098,0.556957008,2306,BOI,-,-,"Please name all of the ways you could use this object. Keep in mind that one object can have many uses. Separate your responses with a comma.",,y,105865,,,1988,105060,,,,"eat, make juice, decorate, carve, drink, use in lotions and body gels, improve the smell of things",1
630385b5137ceb691eed0cd1,4owju15gms,"Affordance Norms_Prolific",1,14,2023-01-11T00:55:31+00:00,100.3941681385,77,"updated stim.csv",Version77.csv,"Version 77","List 77",shingles,,2288,4.64,2342,0.135310454,2289,BOI,-,-,"Please name all of the ways you could use this object. Keep in mind that one object can have many uses. Separate your responses with a comma.",,y,99772,,,3605,98190,,,,"to protect roofs, to irritate the skin, cause scars",0.515
630385b5137ceb691eed0cd1,4owju15gms,"Affordance Norms_Prolific",1,15,2023-01-11T00:56:27+00:00,56.64920091629,77,"updated stim.csv",Version77.csv,"Version 77","List 77",ketchup,,2282,6.304347826,1408,0.69061795,2283,BOI,-,-,"Please name all of the ways you could use this object. Keep in mind that one object can have many uses. Separate your responses with a comma.",,y,55898,,,5069,48451,,,,"to eat, to clean, to flavour. to provide fluids to dry food, to provide taste to food, ",1
630385b5137ceb691eed0cd1,4owju15gms,"Affordance Norms_Prolific",1,16,2023-01-11T00:57:15+00:00,47.338442087173,77,"updated stim.csv",Version77.csv,"Version 77","List 77",pigtail,,2290,4.958333333,1957,0.279996744,2291,BOI,-,-,"Please name all of the ways you could use this object. Keep in mind that one object can have many uses. Separate your responses with a comma.",,y,46698,,,4896,29645,,,,"to pull back hair from the face, to pull on",1
630385b5137ceb691eed0cd1,4owju15gms,"Affordance Norms_Prolific",1,17,2023-01-11T00:58:05+00:00,50.24688076973,77,"updated stim.csv",Version77.csv,"Version 77","List 77",headset,,2304,6,1273,0.270544624,2305,BOI,-,-,"Please name all of the ways you could use this object. Keep in mind that one object can have many uses. Separate your responses with a comma.",,y,49627,,,1670,43612,,,,"to listen through, to make sounds clearer, to wear, to block sounds",1
630385b5137ceb691eed0cd1,4owju15gms,"Affordance Norms_Prolific",1,18,2023-01-11T00:59:15+00:00,70.110076189041,77,"updated stim.csv",Version77.csv,"Version 77","List 77",pimento,,2303,4.769230769,1965,0.507057082,2304,BOI,-,-,"Please name all of the ways you could use this object. Keep in mind that one object can have many uses. Separate your responses with a comma.",,y,69760,,,33616,48968,,,,"to eat, provide colour and flavour to food",0.51
630385b5137ceb691eed0cd1,4owju15gms,"Affordance Norms_Prolific",1,19,2023-01-11T01:01:18+00:00,123.13515090942,77,"updated stim.csv",Version77.csv,"Version 77","List 77",bamboo,,2294,5.68,135,0.722244319,2295,BOI,-,-,"Please name all of the ways you could use this object. Keep in mind that one object can have many uses. Separate your responses with a comma.",,y,122798,,,2215,117299,,,,"to eat, to use in stationery for writing, storing objects, to build shelter, to run liquids through, to provide support through a cane",0.974
630385b5137ceb691eed0cd1,4owju15gms,"Affordance Norms_Prolific",1,20,2023-01-11T01:01:56+00:00,37.950117111206,77,"updated stim.csv",Version77.csv,"Version 77","List 77",mop,,2292,6.192307692,1683,0.558748995,2293,BOI,-,-,"Please name all of the ways you could use this object. Keep in mind that one object can have many uses. Separate your responses with a comma.",,y,37061,,,1713,17459,,,,"to clean, absorb liquids, ",1
630385b5137ceb691eed0cd1,4owju15gms,"Affordance Norms_Prolific",1,21,2023-01-11T01:02:54+00:00,58.298407793045,77,"updated stim.csv",Version77.csv,"Version 77","List 77",homemaker,,2285,5.285714286,1300,0.714048159,2286,BOI,-,-,"Please name all of the ways you could use this object. Keep in mind that one object can have many uses. Separate your responses with a comma.",,y,57707,,,8066,34092,,,,"to cook, clean, provide for themselves and others",0.896
630385b5137ceb691eed0cd1,4owju15gms,"Affordance Norms_Prolific",1,22,2023-01-11T01:04:10+00:00,75.402144193649,77,"updated stim.csv",Version77.csv,"Version 77","List 77",mouthwash,,2302,6.230769231,1707,0.741694171,2303,BOI,-,-,"Please name all of the ways you could use this object. Keep in mind that one object can have many uses. Separate your responses with a comma.",,y,75078,,,3073,72638,,,,"to clean your mouth, protect your teeth, freshen breath, gargle,",0.955
630385b5137ceb691eed0cd1,4owju15gms,"Affordance Norms_Prolific",1,23,2023-01-11T01:05:05+00:00,54.928977012634,77,"updated stim.csv",Version77.csv,"Version 77","List 77",jukebox,,2283,5.8,1394,0.361433356,2284,BOI,-,-,"Please name all of the ways you could use this object. Keep in mind that one object can have many uses. Separate your responses with a comma.",,y,54324,,,1911,51997,,,,"to listen to music, to reminisce, to choose songs, to be decorative and bright ",1
630385b5137ceb691eed0cd1,4owju15gms,"Affordance Norms_Prolific",1,24,2023-01-11T01:07:53+00:00,168.34959983826,77,"updated stim.csv",Version77.csv,"Version 77","List 77",nail,,2286,5.541666667,1732,0.346092245,2287,BOI,-,-,"Please name all of the ways you could use this object. Keep in mind that one object can have many uses. Separate your responses with a comma.",,y,167766,,,2602,126576,,,,"to secure items, paint and decorate to approve appearance, to chew on, scratch things, ",1
630385b5137ceb691eed0cd1,4owju15gms,"Affordance Norms_Prolific",1,25,2023-01-11T01:08:04+00:00,10.814242124557,77,"updated stim.csv",Version77.csv,"Version 77","List 77",brisket,,2299,5.291666667,325,0.069506208,2300,BOI,-,-,"Please name all of the ways you could use this object. Keep in mind that one object can have many uses. Separate your responses with a comma.",,y,10476,,,2324,4409,,,,"to eat",1
630385b5137ceb691eed0cd1,4owju15gms,"Affordance Norms_Prolific",1,26,2023-01-11T01:09:21+00:00,76.999389886856,77,"updated stim.csv",Version77.csv,"Version 77","List 77",iron,,2296,5.538461538,1368,0.150073096,2297,BOI,-,-,"Please name all of the ways you could use this object. Keep in mind that one object can have many uses. Separate your responses with a comma.",,y,76630,,,4484,67584,,,,"heat up, remove creases, straighten hair, melt items, burn things, steam clothes",1
630385b5137ceb691eed0cd1,4owju15gms,"Affordance Norms_Prolific",1,27,2023-01-11T01:10:02+00:00,40.704887151718,77,"updated stim.csv",Version77.csv,"Version 77","List 77",clergy,,2281,4.48,555,0.878509037,2282,BOI,-,-,"Please name all of the ways you could use this object. Keep in mind that one object can have many uses. Separate your responses with a comma.",,y,40049,,,6696,39085,,,,"inform people, offer guidance and support, be impartial ",1
630385b5137ceb691eed0cd1,4owju15gms,"Affordance Norms_Prolific",1,28,2023-01-11T01:10:31+00:00,28.942234992981,77,"updated stim.csv",Version77.csv,"Version 77","List 77",marksman,,2310,4.291666667,1609,0.795054583,2311,BOI,-,-,"Please name all of the ways you could use this object. Keep in mind that one object can have many uses. Separate your responses with a comma.",,y,28320,,,5028,20312,,,,"to shoot, aim well, hit targets",1
630385b5137ceb691eed0cd1,4owju15gms,"Affordance Norms_Prolific",1,29,2023-01-11T01:11:01+00:00,30.350663900375,77,"updated stim.csv",Version77.csv,"Version 77","List 77",nun,,2287,4.666666667,1785,0.191118905,2288,BOI,-,-,"Please name all of the ways you could use this object. Keep in mind that one object can have many uses. Separate your responses with a comma.",,y,29716,,,2678,28967,,,,"to provide support, offer assistance, help others, spread the word",1
630385b5137ceb691eed0cd1,4owju15gms,"Affordance Norms_Prolific",1,30,2023-01-11T01:12:55+00:00,113.69834303856,77,"updated stim.csv",Version77.csv,"Version 77","List 77",bank,,2297,4.72,142,0.655859191,2298,BOI,-,-,"Please name all of the ways you could use this object. Keep in mind that one object can have many uses. Separate your responses with a comma.",,y,113063,,,5517,99697,,,,"lend money, protect finances, hold money, inform people about their finances, offer advice, provide support, ",1
630385b5137ceb691eed0cd1,4owju15gms,"Affordance Norms_Prolific",1,31,2023-01-11T01:13:41+00:00,46.293792963028,77,"updated stim.csv",Version77.csv,"Version 77","List 77",portrait,,2307,4.272727273,2040,0.20237058,2308,BOI,-,-,"Please name all of the ways you could use this object. Keep in mind that one object can have many uses. Separate your responses with a comma.",,y,45677,,,6878,45013,,,,"to remember people, to show off to others, decorate rooms",1
630385b5137ceb691eed0cd1,4owju15gms,"Affordance Norms_Prolific",1,32,2023-01-11T01:14:26+00:00,45.027512073517,77,"updated stim.csv",Version77.csv,"Version 77","List 77",crotch,,2306,5.6,708,0.201475129,2307,BOI,-,-,"Please name all of the ways you could use this object. Keep in mind that one object can have many uses. Separate your responses with a comma.",,y,44350,,,23314,40720,,,,"to expel waste, to provide life",0.808
630385b5137ceb691eed0cd1,4owju15gms,"Affordance Norms_Prolific",1,33,2023-01-11T01:14:54+00:00,27.673210859299,77,"updated stim.csv",Version77.csv,"Version 77","List 77",nameplate,,2300,4.84,1733,0.285294908,2301,BOI,-,-,"Please name all of the ways you could use this object. Keep in mind that one object can have many uses. Separate your responses with a comma.",,y,27005,,,8181,26007,,,,"help people remember your name, inform people",1
630385b5137ceb691eed0cd1,4owju15gms,"Affordance Norms_Prolific",1,34,2023-01-11T01:15:40+00:00,46.826462030411,77,"updated stim.csv",Version77.csv,"Version 77","List 77",bookend,,2301,5.291666667,273,0.312975867,2302,BOI,-,-,"Please name all of the ways you could use this object. Keep in mind that one object can have many uses. Separate your responses with a comma.",,y,46215,,,3888,44522,,,,"prevent damage to books, make an area look tidy, decorate",1
630385b5137ceb691eed0cd1,4owju15gms,"Affordance Norms_Prolific",1,35,2023-01-11T01:16:16+00:00,35.470855951309,77,"updated stim.csv",Version77.csv,"Version 77","List 77",punchbowl,,2308,5.25,2099,0.856341144,2309,BOI,-,-,"Please name all of the ways you could use this object. Keep in mind that one object can have many uses. Separate your responses with a comma.",,y,34846,,,6147,31719,,,,"to serve many drinks, put food in, put plants in",1
630385b5137ceb691eed0cd1,4owju15gms,"Affordance Norms_Prolific",1,36,2023-01-11T01:17:17+00:00,60.955703020096,77,"updated stim.csv",Version77.csv,"Version 77","List 77",costumer,,2293,4.434782609,658,0.301090223,2294,BOI,-,-,"Please name all of the ways you could use this object. Keep in mind that one object can have many uses. Separate your responses with a comma.",,y,60612,,,6358,59870,,,,"make people look good for film/tv, improve appearances, design and make outfits",1
630385b5137ceb691eed0cd1,4owju15gms,"Affordance Norms_Prolific",1,37,2023-01-11T01:17:58+00:00,41.026484012604,77,"updated stim.csv",Version77.csv,"Version 77","List 77",scallion,,2291,5.173913043,2260,0.870106883,2292,BOI,-,-,"Please name all of the ways you could use this object. Keep in mind that one object can have many uses. Separate your responses with a comma.",,y,40445,,,14468,38959,,,,"eat, garnish, improve taste, give colour",0.926
630385b5137ceb691eed0cd1,4owju15gms,"Affordance Norms_Prolific",1,38,2023-01-11T01:18:02+00:00,4.4258329868317,77,"updated stim.csv",Version77.csv,"Version 77","List 77",foodstuff,,2309,4.846153846,1028,0.05515596,2310,BOI,-,-,"Please name all of the ways you could use this object. Keep in mind that one object can have many uses. Separate your responses with a comma.",,y,4080,,,1894,2881,,,,eat,1
630385b5137ceb691eed0cd1,4owju15gms,"Affordance Norms_Prolific",1,39,2023-01-11T01:18:51+00:00,48.450605154037,77,"updated stim.csv",Version77.csv,"Version 77","List 77",undercoat,,2298,4.772727273,2821,0.563133642,2299,BOI,-,-,"Please name all of the ways you could use this object. Keep in mind that one object can have many uses. Separate your responses with a comma.",,y,47858,,,3444,47167,,,,"warmth, base layer for the top coat, cover imperfections ",1
630385b5137ceb691eed0cd1,4owju15gms,"Affordance Norms_Prolific",1,40,2023-01-11T01:20:03+00:00,72.700532913208,77,"updated stim.csv",Version77.csv,"Version 77","List 77",baby,,2289,6.285714286,111,0.997127496,2290,BOI,-,-,"Please name all of the ways you could use this object. Keep in mind that one object can have many uses. Separate your responses with a comma.",,y,72351,,,15222,69040,,,,"increase the population, pass on knowledge and skills, happiness for some, gain benefits",1
630385b5137ceb691eed0cd1,4owju15gms,"Affordance Norms_Prolific",1,41,2023-01-11T01:20:06+00:00,2.1248219013214,77,"updated stim.csv",Version77.csv,"Version 77","List 77",,,,,,,0,Instruct,,,"You will now be asked a few questions about your experience today.",,"Instruct 4",1490,,,-1,-1,,,,,1
