Username,ID,ExperimentName,Session,Trial,Date,TimeDif,"Condition Number","Stimuli File","Order File","Condition Description","Condition Notes",Stimuli*Cue,Stimuli*Answer,Stimuli*Shuffle,"Stimuli*Stimuli Notes",Stimuli*Value,Stimuli*Rand,Procedure*Item,"Procedure*Trial Type","Procedure*Max Time","Procedure*Min Time",Procedure*Text,"Procedure*Procedure Notes",Procedure*Shuffle,Response*RT,Response*Response,Response*Accuracy,Response*RTfirst,Response*RTlast,Response*strictAcc,Response*lenientAcc,Response*focus,Response*JOL,Response*Focus
6150a8f964702cace3a58ec6,b0bnzfwzsv,"Affordance Norms_Prolific",1,1,2023-01-09T16:59:00+00:00,11.722438097,19,"updated stim.csv",Version19.csv,"Version 19","List 19",,,,,,,0,Instruct,-,10,"In this section, you will be presented with a series of objects. Please name as many possible uses for this object as you can think of by typing them in the box below each object.",,Instruct1,11550,,,-1,-1,,,,,1
6150a8f964702cace3a58ec6,b0bnzfwzsv,"Affordance Norms_Prolific",1,2,2023-01-09T16:59:12+00:00,11.822781801224,19,"updated stim.csv",Version19.csv,"Version 19","List 19",,,,,,,0,Instruct,-,10,"Please keep in mind that a single object will have more than one use. For example, a ball can be thrown or can be bounced or even stepped on. When listing multiple uses for one object, please separate each use with a comma (i.e., thrown, bounced, stepped on)",,Instruct2,11692,,,-1,-1,,,,,1
6150a8f964702cace3a58ec6,b0bnzfwzsv,"Affordance Norms_Prolific",1,3,2023-01-09T16:59:15+00:00,2.8185501098633,19,"updated stim.csv",Version19.csv,"Version 19","List 19",,,,,,,0,Instruct,-,-,"Before starting the experiment, you will complete a short practice sesstion. Press ENTER when you are ready to begin.",,Instruct3,2686,,,-1,-1,,,,,1
6150a8f964702cace3a58ec6,b0bnzfwzsv,"Affordance Norms_Prolific",1,4,2023-01-09T16:59:53+00:00,37.93456697464,19,"updated stim.csv",Version19.csv,"Version 19","List 19",saucer,,3005,5.777777778,2249,0.304808074,3006,BOI,-,-,"Please name all of the ways you could use this object. Keep in mind that one object can have many uses. Separate your responses with a comma.",,n,37705,,,2497,28585,,,,"throwing, distracting dogs, plating sand for a sand castle",1
6150a8f964702cace3a58ec6,b0bnzfwzsv,"Affordance Norms_Prolific",1,5,2023-01-09T17:00:23+00:00,30.567265033722,19,"updated stim.csv",Version19.csv,"Version 19","List 19",shortening,,3002,4.92,2358,0.604328482,3003,BOI,-,-,"Please name all of the ways you could use this object. Keep in mind that one object can have many uses. Separate your responses with a comma.",,n,30333,,,5588,27764,,,,"tripping hazard, shortbread, fat source, add creaminess to potatoes",1
6150a8f964702cace3a58ec6,b0bnzfwzsv,"Affordance Norms_Prolific",1,6,2023-01-09T17:01:46+00:00,82.733382940292,19,"updated stim.csv",Version19.csv,"Version 19","List 19",grain,,3004,5.217391304,1143,0.226863762,3005,BOI,-,-,"Please name all of the ways you could use this object. Keep in mind that one object can have many uses. Separate your responses with a comma.",,n,82509,,,1894,70078,,,,"bread, cereal, rice (and associated dishes), animal feed, compost, clothing(?)",0.998
6150a8f964702cace3a58ec6,b0bnzfwzsv,"Affordance Norms_Prolific",1,7,2023-01-09T17:02:29+00:00,43.000118017197,19,"updated stim.csv",Version19.csv,"Version 19","List 19",spaghetti,,3003,6,2461,0.090379998,3004,BOI,-,-,"Please name all of the ways you could use this object. Keep in mind that one object can have many uses. Separate your responses with a comma.",,n,42775,,,5674,34298,,,,"arts and crafts, food, science experiments",0.981
6150a8f964702cace3a58ec6,b0bnzfwzsv,"Affordance Norms_Prolific",1,8,2023-01-09T17:03:29+00:00,59.764912128448,19,"updated stim.csv",Version19.csv,"Version 19","List 19",paperwork,,3001,5.625,1866,0.124284162,3002,BOI,-,-,"Please name all of the ways you could use this object. Keep in mind that one object can have many uses. Separate your responses with a comma.",,n,59532,,,2386,58777,,,,"paper airplanes, recycling, compost, shredding, filing, ripping, projectile when crumpled into a ball, distraction",0.97
6150a8f964702cace3a58ec6,b0bnzfwzsv,"Affordance Norms_Prolific",1,9,2023-01-09T17:03:33+00:00,3.9917647838593,19,"updated stim.csv",Version19.csv,"Version 19","List 19",,,,,,,0,Instruct,-,-,"You have completed this section. Press ENTER to continue",,"Instruct 5",3864,,,-1,-1,,,,,1
6150a8f964702cace3a58ec6,b0bnzfwzsv,"Affordance Norms_Prolific",1,10,2023-01-09T17:03:34+00:00,1.3147621154785,19,"updated stim.csv",Version19.csv,"Version 19","List 19",,,,,,,0,Instruct,-,-,"You will now start the full experiment. Press ENTER when you are ready to begin.",,,1188,,,-1,-1,,,,,1
6150a8f964702cace3a58ec6,b0bnzfwzsv,"Affordance Norms_Prolific",1,11,2023-01-09T17:04:37+00:00,63.148665904999,19,"updated stim.csv",Version19.csv,"Version 19","List 19",splinter,,563,4.652173913,2478,0.624463816,564,BOI,-,-,"Please name all of the ways you could use this object. Keep in mind that one object can have many uses. Separate your responses with a comma.",,y,63018,,,8409,61609,,,,"embeds in finger, add to fires, helps with fractures, compost, weaponry, varies heavily based on what the splinter is made out of",0.957
6150a8f964702cace3a58ec6,b0bnzfwzsv,"Affordance Norms_Prolific",1,12,2023-01-09T17:05:06+00:00,28.680340051651,19,"updated stim.csv",Version19.csv,"Version 19","List 19",barley,,546,4.541666667,149,0.391499549,547,BOI,-,-,"Please name all of the ways you could use this object. Keep in mind that one object can have many uses. Separate your responses with a comma.",,y,28450,,,3126,26462,,,,"side dishes, main dishes, animal feed, compost, canned food",0.986
6150a8f964702cace3a58ec6,b0bnzfwzsv,"Affordance Norms_Prolific",1,13,2023-01-09T17:05:34+00:00,28.408313989639,19,"updated stim.csv",Version19.csv,"Version 19","List 19",yardstick,,569,5.956521739,2990,0.862814499,570,BOI,-,-,"Please name all of the ways you could use this object. Keep in mind that one object can have many uses. Separate your responses with a comma.",,y,28178,,,2122,26112,,,,"weapon, disciplinary tool, dramatic prop, measurement tool",0.886
6150a8f964702cace3a58ec6,b0bnzfwzsv,"Affordance Norms_Prolific",1,14,2023-01-09T17:07:02+00:00,88.072756052017,19,"updated stim.csv",Version19.csv,"Version 19","List 19",godparent,,551,5.260869565,1129,0.144202147,552,BOI,-,-,"Please name all of the ways you could use this object. Keep in mind that one object can have many uses. Separate your responses with a comma.",,y,87842,,,12574,85694,,,,"mature second opinion ,advice, affection, source of funds, person to play games with, parental figure (obviously)",0.966
6150a8f964702cace3a58ec6,b0bnzfwzsv,"Affordance Norms_Prolific",1,15,2023-01-09T17:08:46+00:00,103.79840803146,19,"updated stim.csv",Version19.csv,"Version 19","List 19",switchblade,,557,5.869565217,2609,0.252814962,558,BOI,-,-,"Please name all of the ways you could use this object. Keep in mind that one object can have many uses. Separate your responses with a comma.",,y,103577,,,1883,101099,,,,"lockpicking, method to frame someone for a crime, cut ropes, cut food in a pinch, self-defense, means to coercion/torture, cutting things that are stuck/bound",0.964
6150a8f964702cace3a58ec6,b0bnzfwzsv,"Affordance Norms_Prolific",1,16,2023-01-09T17:09:19+00:00,32.788727998734,19,"updated stim.csv",Version19.csv,"Version 19","List 19",silkworm,,570,5.208333333,2382,0.564942119,571,BOI,-,-,"Please name all of the ways you could use this object. Keep in mind that one object can have many uses. Separate your responses with a comma.",,y,32568,,,2089,29121,,,,"food, silk for clothing, silk for blankets, item for pranks",0.994
6150a8f964702cace3a58ec6,b0bnzfwzsv,"Affordance Norms_Prolific",1,17,2023-01-09T17:10:27+00:00,67.896282911301,19,"updated stim.csv",Version19.csv,"Version 19","List 19",lubrication,,549,4.333333333,1555,0.460781999,550,BOI,-,-,"Please name all of the ways you could use this object. Keep in mind that one object can have many uses. Separate your responses with a comma.",,y,67766,,,7505,65881,,,,"repairing wheels, repairing gears, repairing moving/sliding parts in general, sexual purposes (penetrative sex comes to mind), depends on type of lubricant",0.991
6150a8f964702cace3a58ec6,b0bnzfwzsv,"Affordance Norms_Prolific",1,18,2023-01-09T17:11:15+00:00,48.228556156158,19,"updated stim.csv",Version19.csv,"Version 19","List 19",tear,,556,4.44,2650,0.64593677,557,BOI,-,-,"Please name all of the ways you could use this object. Keep in mind that one object can have many uses. Separate your responses with a comma.",,y,48004,,,3153,35272,,,,"water source, salt source, indicator of strong emotion",0.942
6150a8f964702cace3a58ec6,b0bnzfwzsv,"Affordance Norms_Prolific",1,19,2023-01-09T17:11:57+00:00,41.628047943115,19,"updated stim.csv",Version19.csv,"Version 19","List 19",tray,,547,5.166666667,2768,0.711278044,548,BOI,-,-,"Please name all of the ways you could use this object. Keep in mind that one object can have many uses. Separate your responses with a comma.",,y,41403,,,1739,40115,,,,"weapon in a pinch, place to put food, aesthetic piece in kitchen, used for candle display, easy transport of utensils (ideally not knives)",0.995
6150a8f964702cace3a58ec6,b0bnzfwzsv,"Affordance Norms_Prolific",1,20,2023-01-09T17:13:50+00:00,113.03363895416,19,"updated stim.csv",Version19.csv,"Version 19","List 19",derriere,,548,5.5,778,0.071649372,549,BOI,-,-,"Please name all of the ways you could use this object. Keep in mind that one object can have many uses. Separate your responses with a comma.",,y,112803,,,4054,110686,,,,"sitting, a vessel for items of clothing like pants and jeans, aesthetic appeal, muscle used in climbing/lifts, seduction, sexual acts, energy source (if starving), as food (if belonging to a pig or some non-human animal fit for consumption)",0.962
6150a8f964702cace3a58ec6,b0bnzfwzsv,"Affordance Norms_Prolific",1,21,2023-01-09T17:15:13+00:00,83.802608013153,19,"updated stim.csv",Version19.csv,"Version 19","List 19",steak,,554,5.75,2515,0.944862222,555,BOI,-,-,"Please name all of the ways you could use this object. Keep in mind that one object can have many uses. Separate your responses with a comma.",,y,83577,,,4397,82126,,,,"food for humans, treat for dogs, main course, weapon in a pinch (if frozen), to test a restaurant's culinary skill, sign of affluence in some places",1
6150a8f964702cace3a58ec6,b0bnzfwzsv,"Affordance Norms_Prolific",1,22,2023-01-09T17:16:03+00:00,49.475224018097,19,"updated stim.csv",Version19.csv,"Version 19","List 19",letterbox,,559,4.56,1496,0.230726376,560,BOI,-,-,"Please name all of the ways you could use this object. Keep in mind that one object can have many uses. Separate your responses with a comma.",,y,49248,,,1811,47715,,,,"weapon, holding mail, source of metal, aesthetic implement, holding place for traps (ie: anthrax)",0.929
6150a8f964702cace3a58ec6,b0bnzfwzsv,"Affordance Norms_Prolific",1,23,2023-01-09T17:16:40+00:00,36.775965929031,19,"updated stim.csv",Version19.csv,"Version 19","List 19",toe,,565,5.954545455,2715,0.055815318,566,BOI,-,-,"Please name all of the ways you could use this object. Keep in mind that one object can have many uses. Separate your responses with a comma.",,y,36550,,,4032,30535,,,,"murder evidence, running, climbing, stability and balance ",0.967
6150a8f964702cace3a58ec6,b0bnzfwzsv,"Affordance Norms_Prolific",1,24,2023-01-09T17:17:10+00:00,30.657048940659,19,"updated stim.csv",Version19.csv,"Version 19","List 19",cage,,562,5.291666667,398,0.458861103,563,BOI,-,-,"Please name all of the ways you could use this object. Keep in mind that one object can have many uses. Separate your responses with a comma.",,y,30433,,,2178,29202,,,,"housing animals, housing criminals, transporting animals/humans",1
6150a8f964702cace3a58ec6,b0bnzfwzsv,"Affordance Norms_Prolific",1,25,2023-01-09T17:17:45+00:00,35.144626140594,19,"updated stim.csv",Version19.csv,"Version 19","List 19",kitchen,,566,5.625,1425,0.900817788,567,BOI,-,-,"Please name all of the ways you could use this object. Keep in mind that one object can have many uses. Separate your responses with a comma.",,y,34918,,,2567,27903,,,,"starting fires, stopping fires, preparing food, cooking food, heavily varies depending on the contents of the kitchen, ",0.989
6150a8f964702cace3a58ec6,b0bnzfwzsv,"Affordance Norms_Prolific",1,26,2023-01-09T17:18:02+00:00,16.644404888153,19,"updated stim.csv",Version19.csv,"Version 19","List 19",goggles,,543,6.125,1131,0.800491874,544,BOI,-,-,"Please name all of the ways you could use this object. Keep in mind that one object can have many uses. Separate your responses with a comma.",,y,16512,,,2758,11917,,,,"eye protection, for use while swimming,",0.937
6150a8f964702cace3a58ec6,b0bnzfwzsv,"Affordance Norms_Prolific",1,27,2023-01-09T17:18:16+00:00,13.636866092682,19,"updated stim.csv",Version19.csv,"Version 19","List 19",treadmill,,568,6,2769,0.114264323,569,BOI,-,-,"Please name all of the ways you could use this object. Keep in mind that one object can have many uses. Separate your responses with a comma.",,y,13506,,,1634,8386,,,,"exercise for humans",1
6150a8f964702cace3a58ec6,b0bnzfwzsv,"Affordance Norms_Prolific",1,28,2023-01-09T17:18:33+00:00,16.878278017044,19,"updated stim.csv",Version19.csv,"Version 19","List 19",raft,,564,5.36,2125,0.368001778,565,BOI,-,-,"Please name all of the ways you could use this object. Keep in mind that one object can have many uses. Separate your responses with a comma.",,y,16742,,,1569,15568,,,,"floating, weapon (in a pinch), fire source (when dried)",1
6150a8f964702cace3a58ec6,b0bnzfwzsv,"Affordance Norms_Prolific",1,29,2023-01-09T17:18:46+00:00,13.530746936798,19,"updated stim.csv",Version19.csv,"Version 19","List 19",bagpipes,,550,5,124,0.570726592,551,BOI,-,-,"Please name all of the ways you could use this object. Keep in mind that one object can have many uses. Separate your responses with a comma.",,y,13396,,,2183,10031,,,,"annoying people, impressing people, playing music",1
6150a8f964702cace3a58ec6,b0bnzfwzsv,"Affordance Norms_Prolific",1,30,2023-01-09T17:19:11+00:00,24.565190076828,19,"updated stim.csv",Version19.csv,"Version 19","List 19",saltwater,,545,5.192307692,2229,0.240965939,546,BOI,-,-,"Please name all of the ways you could use this object. Keep in mind that one object can have many uses. Separate your responses with a comma.",,y,24338,,,1801,22457,,,,"add salt to dishes AND add water to dishes, nasal congestion cure, massaging kale",0.992
6150a8f964702cace3a58ec6,b0bnzfwzsv,"Affordance Norms_Prolific",1,31,2023-01-09T17:20:08+00:00,56.822458982468,19,"updated stim.csv",Version19.csv,"Version 19","List 19",vulva,,561,5.16,2876,0.286824315,562,BOI,-,-,"Please name all of the ways you could use this object. Keep in mind that one object can have many uses. Separate your responses with a comma.",,y,56591,,,36870,52966,,,,"sexual purposes (ie: masturbation/other sexual acts)",0.837
6150a8f964702cace3a58ec6,b0bnzfwzsv,"Affordance Norms_Prolific",1,32,2023-01-09T17:20:53+00:00,45.768894910812,19,"updated stim.csv",Version19.csv,"Version 19","List 19",goose,,553,5.260869565,1138,0.494045205,554,BOI,-,-,"Please name all of the ways you could use this object. Keep in mind that one object can have many uses. Separate your responses with a comma.",,y,45535,,,4471,44406,,,,"food, cruelly force fed to make foie gras, feathered for coats, source of fear (in popular culture), mascot (also in popular culture)",1
6150a8f964702cace3a58ec6,b0bnzfwzsv,"Affordance Norms_Prolific",1,33,2023-01-09T17:21:11+00:00,17.461596012115,19,"updated stim.csv",Version19.csv,"Version 19","List 19",backpack,,555,5.72,116,0.596868112,556,BOI,-,-,"Please name all of the ways you could use this object. Keep in mind that one object can have many uses. Separate your responses with a comma.",,y,17326,,,1597,16316,,,,"for storing things, as a weapon (if there are enough things in it), aesthetic purposes as something attractive",1
6150a8f964702cace3a58ec6,b0bnzfwzsv,"Affordance Norms_Prolific",1,34,2023-01-09T17:21:18+00:00,7.3006589412689,19,"updated stim.csv",Version19.csv,"Version 19","List 19",kerchief,,541,5.666666667,1406,0.493496181,542,BOI,-,-,"Please name all of the ways you could use this object. Keep in mind that one object can have many uses. Separate your responses with a comma.",,y,7161,,,1747,4995,,,,"wiping nose, blowing nose",1
6150a8f964702cace3a58ec6,b0bnzfwzsv,"Affordance Norms_Prolific",1,35,2023-01-09T17:21:29+00:00,10.480756998062,19,"updated stim.csv",Version19.csv,"Version 19","List 19",plaster,,542,4.4,1993,0.665997379,543,BOI,-,-,"Please name all of the ways you could use this object. Keep in mind that one object can have many uses. Separate your responses with a comma.",,y,10349,,,3311,7382,,,,"paper mache",1
6150a8f964702cace3a58ec6,b0bnzfwzsv,"Affordance Norms_Prolific",1,36,2023-01-09T17:21:41+00:00,12.869496107101,19,"updated stim.csv",Version19.csv,"Version 19","List 19",woodcutter,,560,4.44,2960,0.152234376,561,BOI,-,-,"Please name all of the ways you could use this object. Keep in mind that one object can have many uses. Separate your responses with a comma.",,y,12738,,,2437,11052,,,,"cutting wood, as a weapon (in a pinch), source of accidents",1
6150a8f964702cace3a58ec6,b0bnzfwzsv,"Affordance Norms_Prolific",1,37,2023-01-09T17:22:23+00:00,42.009128093719,19,"updated stim.csv",Version19.csv,"Version 19","List 19",couch,,544,6.260869565,661,0.619410451,545,BOI,-,-,"Please name all of the ways you could use this object. Keep in mind that one object can have many uses. Separate your responses with a comma.",,y,41772,,,1549,41636,,,,"for sitting, sleeping, watching television, cleaning, hiding murder evidence, likely somewhere people make out or engage in other intimate activities",0.995
6150a8f964702cace3a58ec6,b0bnzfwzsv,"Affordance Norms_Prolific",1,38,2023-01-09T17:22:44+00:00,20.575428009033,19,"updated stim.csv",Version19.csv,"Version 19","List 19",lantern,,558,5.653846154,1463,0.56962793,559,BOI,-,-,"Please name all of the ways you could use this object. Keep in mind that one object can have many uses. Separate your responses with a comma.",,y,20350,,,2349,19749,,,,"arson, light source, mood setting (just like candles)",1
6150a8f964702cace3a58ec6,b0bnzfwzsv,"Affordance Norms_Prolific",1,39,2023-01-09T17:22:49+00:00,5.3698508739471,19,"updated stim.csv",Version19.csv,"Version 19","List 19",enamel,,552,4.652173913,905,0.497490187,553,BOI,-,-,"Please name all of the ways you could use this object. Keep in mind that one object can have many uses. Separate your responses with a comma.",,y,5239,,,2488,3896,,,,"protect teeth",1
6150a8f964702cace3a58ec6,b0bnzfwzsv,"Affordance Norms_Prolific",1,40,2023-01-09T17:23:08+00:00,18.361630916595,19,"updated stim.csv",Version19.csv,"Version 19","List 19",cookie,,567,6.5,633,0.354504033,568,BOI,-,-,"Please name all of the ways you could use this object. Keep in mind that one object can have many uses. Separate your responses with a comma.",,y,18233,,,1888,15472,,,,"as a food, as a gift, as a bribe to get children to behave",1
6150a8f964702cace3a58ec6,b0bnzfwzsv,"Affordance Norms_Prolific",1,41,2023-01-09T17:23:09+00:00,1.2821969985962,19,"updated stim.csv",Version19.csv,"Version 19","List 19",,,,,,,0,Instruct,,,"You will now be asked a few questions about your experience today.",,"Instruct 4",1147,,,-1,-1,,,,,1
