Username,ID,ExperimentName,Session,Trial,Date,TimeDif,"Condition Number","Stimuli File","Order File","Condition Description","Condition Notes",Stimuli*Cue,Stimuli*Answer,Stimuli*Shuffle,"Stimuli*Stimuli Notes",Stimuli*Value,Procedure*Item,"Procedure*Trial Type","Procedure*Max Time","Procedure*Min Time",Procedure*Text,"Procedure*Procedure Notes",Procedure*Shuffle,Response*RT,Response*Response,Response*Accuracy,Response*RTfirst,Response*RTlast,Response*strictAcc,Response*lenientAcc,Response*focus,Response*JOL,Response*Focus
w10118246CHC,g2ujzytagq,"BOI Norms",1,1,2022-10-03T18:24:10+00:00,11.641243934631,21,"updated stim.csv",Version21.csv,"Version 21","List 21",,,,,,0,Instruct,-,10,"In this section, you will be presented with a series of objects. Please name as many possible uses for this object as you can think of by typing them in the box below each object.",,Instruct1,11507,,,-1,-1,,,,,1
w10118246CHC,g2ujzytagq,"BOI Norms",1,2,2022-10-03T18:24:26+00:00,15.616566896439,21,"updated stim.csv",Version21.csv,"Version 21","List 21",,,,,,0,Instruct,-,10,"Please keep in mind that a single object will have more than one use. For example, a ball can be thrown or can be bounced or even stepped on. When listing multiple uses for one object, please separate each use with a comma (i.e., thrown, bounced, stepped on)",,Instruct2,15054,,,-1,-1,,,,,1
w10118246CHC,g2ujzytagq,"BOI Norms",1,3,2022-10-03T18:24:32+00:00,6.2070350646973,21,"updated stim.csv",Version21.csv,"Version 21","List 21",,,,,,0,Instruct,-,-,"Before starting the experiment, you will complete a short practice sesstion. Press ENTER when you are ready to begin.",,Instruct3,6046,,,-1,-1,,,,,1
w10118246CHC,g2ujzytagq,"BOI Norms",1,4,2022-10-03T18:24:56+00:00,24.075036048889,21,"updated stim.csv",Version21.csv,"Version 21","List 21",grain,,3004,5.217391304,1143,3005,BOI,-,-,"Please name all of the ways you could use this object. Keep in mind that one object can have many uses. Separate your responses with a comma.",,n,23923,,,2189,22515,,,,"eaten, baked, growned",1
w10118246CHC,g2ujzytagq,"BOI Norms",1,5,2022-10-03T18:25:24+00:00,28.181588888168,21,"updated stim.csv",Version21.csv,"Version 21","List 21",shortening,,3002,4.92,2358,3003,BOI,-,-,"Please name all of the ways you could use this object. Keep in mind that one object can have many uses. Separate your responses with a comma.",,n,28027,,,4072,17748,,,,"Baked, dusted, thrown",1
w10118246CHC,g2ujzytagq,"BOI Norms",1,6,2022-10-03T18:25:44+00:00,19.852480173111,21,"updated stim.csv",Version21.csv,"Version 21","List 21",saucer,,3005,5.777777778,2249,3006,BOI,-,-,"Please name all of the ways you could use this object. Keep in mind that one object can have many uses. Separate your responses with a comma.",,n,19716,,,5013,19515,,,,"served, thrown, flown, painted",1
w10118246CHC,g2ujzytagq,"BOI Norms",1,7,2022-10-03T18:26:10+00:00,25.813038825989,21,"updated stim.csv",Version21.csv,"Version 21","List 21",spaghetti,,3003,6,2461,3004,BOI,-,-,"Please name all of the ways you could use this object. Keep in mind that one object can have many uses. Separate your responses with a comma.",,n,25686,,,1784,24939,,,,"eaten, boiled, flavored, salted",1
w10118246CHC,g2ujzytagq,"BOI Norms",1,8,2022-10-03T18:26:23+00:00,13.22612118721,21,"updated stim.csv",Version21.csv,"Version 21","List 21",paperwork,,3001,5.625,1866,3002,BOI,-,-,"Please name all of the ways you could use this object. Keep in mind that one object can have many uses. Separate your responses with a comma.",,n,13062,,,1833,7576,,,,"done, worked",1
w10118246CHC,g2ujzytagq,"BOI Norms",1,9,2022-10-03T18:26:25+00:00,1.6921689510345,21,"updated stim.csv",Version21.csv,"Version 21","List 21",,,,,,0,Instruct,-,-,"You have completed this section. Press ENTER to continue",,"Instruct 5",1585,,,-1,-1,,,,,1
w10118246CHC,g2ujzytagq,"BOI Norms",1,10,2022-10-03T18:26:28+00:00,3.1946680545807,21,"updated stim.csv",Version21.csv,"Version 21","List 21",,,,,,0,Instruct,-,-,"You will now start the full experiment. Press ENTER when you are ready to begin.",,,3066,,,-1,-1,,,,,1
w10118246CHC,g2ujzytagq,"BOI Norms",1,11,2022-10-03T18:26:54+00:00,25.750456809998,21,"updated stim.csv",Version21.csv,"Version 21","List 21",whore,,608,4.782608696,2933,609,BOI,-,-,"Please name all of the ways you could use this object. Keep in mind that one object can have many uses. Separate your responses with a comma.",,y,25646,,,7207,25180,,,,"used, loved, hurt, fornicate, helped",1
w10118246CHC,g2ujzytagq,"BOI Norms",1,12,2022-10-03T18:27:13+00:00,18.834010124207,21,"updated stim.csv",Version21.csv,"Version 21","List 21",organ,,611,5.185185185,1820,612,BOI,-,-,"Please name all of the ways you could use this object. Keep in mind that one object can have many uses. Separate your responses with a comma.",,y,18704,,,3409,16714,,,,"played, listened, pumped, moved",1
w10118246CHC,g2ujzytagq,"BOI Norms",1,13,2022-10-03T18:27:37+00:00,24.661854028702,21,"updated stim.csv",Version21.csv,"Version 21","List 21",toiletry,,602,5.222222222,2720,603,BOI,-,-,"Please name all of the ways you could use this object. Keep in mind that one object can have many uses. Separate your responses with a comma.",,y,24538,,,9096,21268,,,,"used, wetted, cleaned",1
w10118246CHC,g2ujzytagq,"BOI Norms",1,14,2022-10-03T18:27:55+00:00,17.52839589119,21,"updated stim.csv",Version21.csv,"Version 21","List 21",seaweed,,610,4.458333333,2304,611,BOI,-,-,"Please name all of the ways you could use this object. Keep in mind that one object can have many uses. Separate your responses with a comma.",,y,17412,,,1955,17124,,,,"eaten, dried, boiled, cooked",1
w10118246CHC,g2ujzytagq,"BOI Norms",1,15,2022-10-03T18:28:38+00:00,43.542725086212,21,"updated stim.csv",Version21.csv,"Version 21","List 21",iguana,,617,5.166666667,1350,618,BOI,-,-,"Please name all of the ways you could use this object. Keep in mind that one object can have many uses. Separate your responses with a comma.",,y,43426,,,5484,42356,,,,"played with, painted, ovserved",1
w10118246CHC,g2ujzytagq,"BOI Norms",1,16,2022-10-03T18:29:05+00:00,26.097625017166,21,"updated stim.csv",Version21.csv,"Version 21","List 21",ring,,624,6.130434783,2170,625,BOI,-,-,"Please name all of the ways you could use this object. Keep in mind that one object can have many uses. Separate your responses with a comma.",,y,25926,,,1549,21801,,,,"worn, shown, presented, sold, called",1
w10118246CHC,g2ujzytagq,"BOI Norms",1,17,2022-10-03T18:29:38+00:00,33.090067863464,21,"updated stim.csv",Version21.csv,"Version 21","List 21",gumdrop,,628,5.875,1197,629,BOI,-,-,"Please name all of the ways you could use this object. Keep in mind that one object can have many uses. Separate your responses with a comma.",,y,32976,,,1736,27172,,,,"eaten, swallowed, chewed, tasted, thrown",1
w10118246CHC,g2ujzytagq,"BOI Norms",1,18,2022-10-03T18:30:04+00:00,26.37246799469,21,"updated stim.csv",Version21.csv,"Version 21","List 21",ammo,,603,5.32,34,604,BOI,-,-,"Please name all of the ways you could use this object. Keep in mind that one object can have many uses. Separate your responses with a comma.",,y,26244,,,1553,25040,,,,"shot, thrown, dissected, debated on, blown",1
w10118246CHC,g2ujzytagq,"BOI Norms",1,19,2022-10-03T18:30:36+00:00,32.423763990402,21,"updated stim.csv",Version21.csv,"Version 21","List 21",placenta,,629,4.28,1984,630,BOI,-,-,"Please name all of the ways you could use this object. Keep in mind that one object can have many uses. Separate your responses with a comma.",,y,31957,,,3438,26983,,,,"frozen, removed, destroyed, eaten",1
w10118246CHC,g2ujzytagq,"BOI Norms",1,20,2022-10-03T18:31:11+00:00,34.894086122513,21,"updated stim.csv",Version21.csv,"Version 21","List 21",bell,,614,5.76,196,615,BOI,-,-,"Please name all of the ways you could use this object. Keep in mind that one object can have many uses. Separate your responses with a comma.",,y,34665,,,1706,33970,,,,"ring, shake, thrown, clean",1
w10118246CHC,g2ujzytagq,"BOI Norms",1,21,2022-10-03T18:31:45+00:00,33.452831029892,21,"updated stim.csv",Version21.csv,"Version 21","List 21",sunflower,,615,5.333333333,2587,616,BOI,-,-,"Please name all of the ways you could use this object. Keep in mind that one object can have many uses. Separate your responses with a comma.",,y,33332,,,3535,32386,,,,"viewed, grown, eaten, painted, pollination",1
w10118246CHC,g2ujzytagq,"BOI Norms",1,22,2022-10-03T18:32:23+00:00,38.24915099144,21,"updated stim.csv",Version21.csv,"Version 21","List 21",cadillac,,621,5.12,395,622,BOI,-,-,"Please name all of the ways you could use this object. Keep in mind that one object can have many uses. Separate your responses with a comma.",,y,38135,,,1721,34574,,,,"driven, wrecked, transporting",1
w10118246CHC,g2ujzytagq,"BOI Norms",1,23,2022-10-03T18:33:02+00:00,38.766569852829,21,"updated stim.csv",Version21.csv,"Version 21","List 21",piano,,630,6.166666667,1947,631,BOI,-,-,"Please name all of the ways you could use this object. Keep in mind that one object can have many uses. Separate your responses with a comma.",,y,38636,,,3468,35811,,,,"playing, producing music",1
w10118246CHC,g2ujzytagq,"BOI Norms",1,24,2022-10-03T18:34:51+00:00,108.88046717644,21,"updated stim.csv",Version21.csv,"Version 21","List 21",quill,,613,4.565217391,2115,614,BOI,-,-,"Please name all of the ways you could use this object. Keep in mind that one object can have many uses. Separate your responses with a comma.",,y,108589,,,1610,108325,,,,"writing, flying, gifting",1
w10118246CHC,g2ujzytagq,"BOI Norms",1,25,2022-10-03T18:35:44+00:00,53.457254886627,21,"updated stim.csv",Version21.csv,"Version 21","List 21",schoolhouse,,612,5.291666667,2272,613,BOI,-,-,"Please name all of the ways you could use this object. Keep in mind that one object can have many uses. Separate your responses with a comma.",,y,53264,,,3471,21018,,,,"teaching, assembly ",1
w10118246CHC,g2ujzytagq,"BOI Norms",1,26,2022-10-03T18:36:42+00:00,57.508172035217,21,"updated stim.csv",Version21.csv,"Version 21","List 21",washroom,,625,5.037037037,2901,626,BOI,-,-,"Please name all of the ways you could use this object. Keep in mind that one object can have many uses. Separate your responses with a comma.",,y,57385,,,5741,56515,,,,"bathing, fornicating, cleaning",1
w10118246CHC,g2ujzytagq,"BOI Norms",1,27,2022-10-03T18:36:57+00:00,15.82861995697,21,"updated stim.csv",Version21.csv,"Version 21","List 21",lizard,,606,4.925925926,1529,607,BOI,-,-,"Please name all of the ways you could use this object. Keep in mind that one object can have many uses. Separate your responses with a comma.",,y,15706,,,4488,13847,,,,"observing, petting",1
w10118246CHC,g2ujzytagq,"BOI Norms",1,28,2022-10-03T18:37:28+00:00,30.262786149979,21,"updated stim.csv",Version21.csv,"Version 21","List 21",frog,,604,5.125,1058,605,BOI,-,-,"Please name all of the ways you could use this object. Keep in mind that one object can have many uses. Separate your responses with a comma.",,y,30135,,,1933,27028,,,,"observing, eating",1
w10118246CHC,g2ujzytagq,"BOI Norms",1,29,2022-10-03T18:37:50+00:00,21.770056009293,21,"updated stim.csv",Version21.csv,"Version 21","List 21",snowshoe,,605,5.541666667,2436,606,BOI,-,-,"Please name all of the ways you could use this object. Keep in mind that one object can have many uses. Separate your responses with a comma.",,y,21624,,,2246,21003,,,,"wearing, warming, transportaion",1
w10118246CHC,g2ujzytagq,"BOI Norms",1,30,2022-10-03T18:38:09+00:00,19.593623876572,21,"updated stim.csv",Version21.csv,"Version 21","List 21",guesthouse,,627,4.913043478,1189,628,BOI,-,-,"Please name all of the ways you could use this object. Keep in mind that one object can have many uses. Separate your responses with a comma.",,y,19475,,,5864,17501,,,,"renting, expanding",1
w10118246CHC,g2ujzytagq,"BOI Norms",1,31,2022-10-03T18:39:02+00:00,52.802902936935,21,"updated stim.csv",Version21.csv,"Version 21","List 21",bugle,,622,4.541666667,348,623,BOI,-,-,"Please name all of the ways you could use this object. Keep in mind that one object can have many uses. Separate your responses with a comma.",,y,52688,,,1941,7099,,,,"playing, creating",1
w10118246CHC,g2ujzytagq,"BOI Norms",1,32,2022-10-03T18:39:37+00:00,34.814481973648,21,"updated stim.csv",Version21.csv,"Version 21","List 21",spinach,,626,4.96,2474,627,BOI,-,-,"Please name all of the ways you could use this object. Keep in mind that one object can have many uses. Separate your responses with a comma.",,y,34676,,,6344,31528,,,,"eaten, minced, chopped, cut, mixed",1
w10118246CHC,g2ujzytagq,"BOI Norms",1,33,2022-10-03T18:40:03+00:00,26.179440021515,21,"updated stim.csv",Version21.csv,"Version 21","List 21",gangster,,601,4.36,1072,602,BOI,-,-,"Please name all of the ways you could use this object. Keep in mind that one object can have many uses. Separate your responses with a comma.",,y,26072,,,8487,24552,,,,"robbing, running, protecting, shooting, hurting",1
w10118246CHC,g2ujzytagq,"BOI Norms",1,34,2022-10-03T18:40:31+00:00,28.206727981567,21,"updated stim.csv",Version21.csv,"Version 21","List 21",splint,,618,4.958333333,2477,619,BOI,-,-,"Please name all of the ways you could use this object. Keep in mind that one object can have many uses. Separate your responses with a comma.",,y,28098,,,3195,19743,,,,"supporting, holding, protecting",1
w10118246CHC,g2ujzytagq,"BOI Norms",1,35,2022-10-03T18:41:03+00:00,31.78999710083,21,"updated stim.csv",Version21.csv,"Version 21","List 21",cutlery,,607,5.913043478,738,608,BOI,-,-,"Please name all of the ways you could use this object. Keep in mind that one object can have many uses. Separate your responses with a comma.",,y,31667,,,9206,30306,,,,"cutting, slicing, dicing, cooking, creating, dissecting, eaten",1
w10118246CHC,g2ujzytagq,"BOI Norms",1,36,2022-10-03T18:41:28+00:00,25.31072807312,21,"updated stim.csv",Version21.csv,"Version 21","List 21",checkerboard,,609,5.391304348,500,610,BOI,-,-,"Please name all of the ways you could use this object. Keep in mind that one object can have many uses. Separate your responses with a comma.",,y,25200,,,18254,24350,,,,"playing, inspiring",1
w10118246CHC,g2ujzytagq,"BOI Norms",1,37,2022-10-03T18:42:00+00:00,31.536852836609,21,"updated stim.csv",Version21.csv,"Version 21","List 21",muffler,,616,4.75,1712,617,BOI,-,-,"Please name all of the ways you could use this object. Keep in mind that one object can have many uses. Separate your responses with a comma.",,y,31433,,,2817,31126,,,,"blowing, audiating, screaming",1
w10118246CHC,g2ujzytagq,"BOI Norms",1,38,2022-10-03T18:42:26+00:00,26.049978017807,21,"updated stim.csv",Version21.csv,"Version 21","List 21",can,,619,4.88,408,620,BOI,-,-,"Please name all of the ways you could use this object. Keep in mind that one object can have many uses. Separate your responses with a comma.",,y,25937,,,3676,25677,,,,"holding, throwing, crunching, squeezing, observing, cutting",1
w10118246CHC,g2ujzytagq,"BOI Norms",1,39,2022-10-03T18:43:12+00:00,46.416381120682,21,"updated stim.csv",Version21.csv,"Version 21","List 21",steroids,,623,4.52,2532,624,BOI,-,-,"Please name all of the ways you could use this object. Keep in mind that one object can have many uses. Separate your responses with a comma.",,y,46254,,,4034,45388,,,,"increasing, decreasing, harming, helping, taking",1
w10118246CHC,g2ujzytagq,"BOI Norms",1,40,2022-10-03T18:44:09+00:00,56.992697954178,21,"updated stim.csv",Version21.csv,"Version 21","List 21",condominium,,620,4.678571429,623,621,BOI,-,-,"Please name all of the ways you could use this object. Keep in mind that one object can have many uses. Separate your responses with a comma.",,y,56867,,,10464,28432,,,,"providing, supporting, sheltering, holding",1
w10118246CHC,g2ujzytagq,"BOI Norms",1,41,2022-10-03T18:44:13+00:00,3.3201730251312,21,"updated stim.csv",Version21.csv,"Version 21","List 21",,,,,,0,Instruct,,,"You will now be asked a few questions about your experience today.",,"Instruct 4",3186,,,-1,-1,,,,,1
