Username,ID,ExperimentName,Session,Trial,Date,TimeDif,"Condition Number","Stimuli File","Order File","Condition Description","Condition Notes",Stimuli*Cue,Stimuli*Answer,Stimuli*Shuffle,"Stimuli*Stimuli Notes",Stimuli*Value,Stimuli*Rand,Procedure*Item,"Procedure*Trial Type","Procedure*Max Time","Procedure*Min Time",Procedure*Text,"Procedure*Procedure Notes",Procedure*Shuffle,Response*RT,Response*Response,Response*Accuracy,Response*RTfirst,Response*RTlast,Response*strictAcc,Response*lenientAcc,Response*focus,Response*JOL,Response*Focus
6358f1332459f21caa585aef,w1qo7znp0g,"Affordance Norms_Prolific",1,1,2023-05-11T00:08:26+00:00,11.690961122513,60,"updated stim.csv",Version60.csv,"Version 60","List 60",,,,,,,0,Instruct,-,10,"In this section, you will be presented with a series of objects. Please name as many possible uses for this object as you can think of by typing them in the box below each object.",,Instruct1,11288,,,-1,-1,,,,,1
6358f1332459f21caa585aef,w1qo7znp0g,"Affordance Norms_Prolific",1,2,2023-05-11T00:08:39+00:00,13.716531038284,60,"updated stim.csv",Version60.csv,"Version 60","List 60",,,,,,,0,Instruct,-,10,"Please keep in mind that a single object will have more than one use. For example, a ball can be thrown or can be bounced or even stepped on. When listing multiple uses for one object, please separate each use with a comma (i.e., thrown, bounced, stepped on)",,Instruct2,13181,,,-1,-1,,,,,1
6358f1332459f21caa585aef,w1qo7znp0g,"Affordance Norms_Prolific",1,3,2023-05-11T00:08:43+00:00,3.3207468986511,60,"updated stim.csv",Version60.csv,"Version 60","List 60",,,,,,,0,Instruct,-,-,"Before starting the experiment, you will complete a short practice sesstion. Press ENTER when you are ready to begin.",,Instruct3,2851,,,-1,-1,,,,,1
6358f1332459f21caa585aef,w1qo7znp0g,"Affordance Norms_Prolific",1,4,2023-05-11T00:08:57+00:00,13.718517065048,60,"updated stim.csv",Version60.csv,"Version 60","List 60",grain,,3004,5.217391304,1143,0.226863762,3005,BOI,-,-,"Please name all of the ways you could use this object. Keep in mind that one object can have many uses. Separate your responses with a comma.",,n,13187,,,8662,10488,,,,grind,1
6358f1332459f21caa585aef,w1qo7znp0g,"Affordance Norms_Prolific",1,5,2023-05-11T00:09:16+00:00,19.65328502655,60,"updated stim.csv",Version60.csv,"Version 60","List 60",shortening,,3002,4.92,2358,0.604328482,3003,BOI,-,-,"Please name all of the ways you could use this object. Keep in mind that one object can have many uses. Separate your responses with a comma.",,n,19120,,,13886,18142,,,,string,1
6358f1332459f21caa585aef,w1qo7znp0g,"Affordance Norms_Prolific",1,6,2023-05-11T00:09:26+00:00,10.285161018372,60,"updated stim.csv",Version60.csv,"Version 60","List 60",saucer,,3005,5.777777778,2249,0.304808074,3006,BOI,-,-,"Please name all of the ways you could use this object. Keep in mind that one object can have many uses. Separate your responses with a comma.",,n,9743,,,2546,3958,,,,cooking,1
6358f1332459f21caa585aef,w1qo7znp0g,"Affordance Norms_Prolific",1,7,2023-05-11T00:09:37+00:00,10.85657286644,60,"updated stim.csv",Version60.csv,"Version 60","List 60",paperwork,,3001,5.625,1866,0.124284162,3002,BOI,-,-,"Please name all of the ways you could use this object. Keep in mind that one object can have many uses. Separate your responses with a comma.",,n,10305,,,1853,9192,,,,"file,fill out, stack",1
6358f1332459f21caa585aef,w1qo7znp0g,"Affordance Norms_Prolific",1,8,2023-05-11T00:09:48+00:00,11.097887992859,60,"updated stim.csv",Version60.csv,"Version 60","List 60",spaghetti,,3003,6,2461,0.090379998,3004,BOI,-,-,"Please name all of the ways you could use this object. Keep in mind that one object can have many uses. Separate your responses with a comma.",,n,10567,,,1382,7557,,,,"eat, cook, mix",1
6358f1332459f21caa585aef,w1qo7znp0g,"Affordance Norms_Prolific",1,9,2023-05-11T00:09:50+00:00,1.6096639633179,60,"updated stim.csv",Version60.csv,"Version 60","List 60",,,,,,,0,Instruct,-,-,"You have completed this section. Press ENTER to continue",,"Instruct 5",1174,,,-1,-1,,,,,1
6358f1332459f21caa585aef,w1qo7znp0g,"Affordance Norms_Prolific",1,10,2023-05-11T00:09:51+00:00,1.4704780578613,60,"updated stim.csv",Version60.csv,"Version 60","List 60",,,,,,,0,Instruct,-,-,"You will now start the full experiment. Press ENTER when you are ready to begin.",,,1046,,,-1,-1,,,,,1
6358f1332459f21caa585aef,w1qo7znp0g,"Affordance Norms_Prolific",1,11,2023-05-11T00:10:27+00:00,35.598089933395,60,"updated stim.csv",Version60.csv,"Version 60","List 60",spreader,,1799,4.375,2487,0.522607576,1800,BOI,-,-,"Please name all of the ways you could use this object. Keep in mind that one object can have many uses. Separate your responses with a comma.",,y,35059,,,18108,34255,,,,"spread, plant, disperse",0.925
6358f1332459f21caa585aef,w1qo7znp0g,"Affordance Norms_Prolific",1,12,2023-05-11T00:10:43+00:00,16.386223077774,60,"updated stim.csv",Version60.csv,"Version 60","List 60",ear,,1791,6.652173913,875,0.148663187,1792,BOI,-,-,"Please name all of the ways you could use this object. Keep in mind that one object can have many uses. Separate your responses with a comma.",,y,15843,,,1251,15321,,,,"listen, cover, put on headphones",1
6358f1332459f21caa585aef,w1qo7znp0g,"Affordance Norms_Prolific",1,13,2023-05-11T00:11:09+00:00,25.885177135468,60,"updated stim.csv",Version60.csv,"Version 60","List 60",scrotum,,1796,5.291666667,2290,0.413941451,1797,BOI,-,-,"Please name all of the ways you could use this object. Keep in mind that one object can have many uses. Separate your responses with a comma.",,y,25340,,,21872,24272,,,,"holds balls",0.746
6358f1332459f21caa585aef,w1qo7znp0g,"Affordance Norms_Prolific",1,14,2023-05-11T00:11:43+00:00,33.298791885376,60,"updated stim.csv",Version60.csv,"Version 60","List 60",pacemaker,,1786,4.363636364,1835,0.76799882,1787,BOI,-,-,"Please name all of the ways you could use this object. Keep in mind that one object can have many uses. Separate your responses with a comma.",,y,32747,,,1967,30950,,,,"monitor heart",0.959
6358f1332459f21caa585aef,w1qo7znp0g,"Affordance Norms_Prolific",1,15,2023-05-11T00:11:56+00:00,13.114466905594,60,"updated stim.csv",Version60.csv,"Version 60","List 60",souffle,,1797,5.571428571,2453,0.303494464,1798,BOI,-,-,"Please name all of the ways you could use this object. Keep in mind that one object can have many uses. Separate your responses with a comma.",,y,12567,,,8903,12048,,,,"eat, bake, prepare",0.833
6358f1332459f21caa585aef,w1qo7znp0g,"Affordance Norms_Prolific",1,16,2023-05-11T00:12:11+00:00,15.105197191238,60,"updated stim.csv",Version60.csv,"Version 60","List 60",leaves,,1788,5.846153846,1481,0.367331318,1789,BOI,-,-,"Please name all of the ways you could use this object. Keep in mind that one object can have many uses. Separate your responses with a comma.",,y,14567,,,1509,13612,,,,"rustle, pick off, jump in",1
6358f1332459f21caa585aef,w1qo7znp0g,"Affordance Norms_Prolific",1,17,2023-05-11T00:12:29+00:00,18.342268943787,60,"updated stim.csv",Version60.csv,"Version 60","List 60",lounge,,1792,4.714285714,1550,0.373258494,1793,BOI,-,-,"Please name all of the ways you could use this object. Keep in mind that one object can have many uses. Separate your responses with a comma.",,y,17809,,,5417,16817,,,,"walk around, sit down, arrange things inside",1
6358f1332459f21caa585aef,w1qo7znp0g,"Affordance Norms_Prolific",1,18,2023-05-11T00:12:52+00:00,22.746227025986,60,"updated stim.csv",Version60.csv,"Version 60","List 60",pharmacy,,1776,5.083333333,1939,0.449731118,1777,BOI,-,-,"Please name all of the ways you could use this object. Keep in mind that one object can have many uses. Separate your responses with a comma.",,y,22212,,,1601,16876,,,,"attend, buy medicine",1
6358f1332459f21caa585aef,w1qo7znp0g,"Affordance Norms_Prolific",1,19,2023-05-11T00:13:12+00:00,19.901952981949,60,"updated stim.csv",Version60.csv,"Version 60","List 60",sharpener,,1800,4.785714286,2323,0.656486944,1801,BOI,-,-,"Please name all of the ways you could use this object. Keep in mind that one object can have many uses. Separate your responses with a comma.",,y,19360,,,4334,18535,,,,"sharpen pensil, sharpen knife",1
6358f1332459f21caa585aef,w1qo7znp0g,"Affordance Norms_Prolific",1,20,2023-05-11T00:13:21+00:00,9.540843963623,60,"updated stim.csv",Version60.csv,"Version 60","List 60",lance,,1794,4.571428571,1459,0.73549376,1795,BOI,-,-,"Please name all of the ways you could use this object. Keep in mind that one object can have many uses. Separate your responses with a comma.",,y,9000,,,5848,6360,,,,stab,1
6358f1332459f21caa585aef,w1qo7znp0g,"Affordance Norms_Prolific",1,21,2023-05-11T00:13:43+00:00,21.647408008575,60,"updated stim.csv",Version60.csv,"Version 60","List 60",douche,,1783,4.652173913,832,0.213988969,1784,BOI,-,-,"Please name all of the ways you could use this object. Keep in mind that one object can have many uses. Separate your responses with a comma.",,y,21106,,,17216,20339,,,,"wash yourself",0.9
6358f1332459f21caa585aef,w1qo7znp0g,"Affordance Norms_Prolific",1,22,2023-05-11T00:13:58+00:00,15.146650075912,60,"updated stim.csv",Version60.csv,"Version 60","List 60",femur,,1779,4.5,961,0.366649357,1780,BOI,-,-,"Please name all of the ways you could use this object. Keep in mind that one object can have many uses. Separate your responses with a comma.",,y,14585,,,11443,14131,,,,"supports muscles",0.762
6358f1332459f21caa585aef,w1qo7znp0g,"Affordance Norms_Prolific",1,23,2023-05-11T00:14:22+00:00,24.197263002396,60,"updated stim.csv",Version60.csv,"Version 60","List 60",mantle,,1780,4.807692308,1597,0.089531245,1781,BOI,-,-,"Please name all of the ways you could use this object. Keep in mind that one object can have many uses. Separate your responses with a comma.",,y,23662,,,11211,20988,,,,wear,0.829
6358f1332459f21caa585aef,w1qo7znp0g,"Affordance Norms_Prolific",1,24,2023-05-11T00:14:32+00:00,9.9848268032074,60,"updated stim.csv",Version60.csv,"Version 60","List 60",pasta,,1781,5.72,1884,0.681882127,1782,BOI,-,-,"Please name all of the ways you could use this object. Keep in mind that one object can have many uses. Separate your responses with a comma.",,y,9436,,,1675,7044,,,,"eat, cook",1
6358f1332459f21caa585aef,w1qo7znp0g,"Affordance Norms_Prolific",1,25,2023-05-11T00:14:48+00:00,15.44256401062,60,"updated stim.csv",Version60.csv,"Version 60","List 60",bodybuilder,,1790,4.958333333,261,0.919785857,1791,BOI,-,-,"Please name all of the ways you could use this object. Keep in mind that one object can have many uses. Separate your responses with a comma.",,y,14868,,,3787,13577,,,,"flex muscules, lift weights",1
6358f1332459f21caa585aef,w1qo7znp0g,"Affordance Norms_Prolific",1,26,2023-05-11T00:15:07+00:00,19.108067035675,60,"updated stim.csv",Version60.csv,"Version 60","List 60",woodwind,,1775,4.96,2965,0.667330825,1776,BOI,-,-,"Please name all of the ways you could use this object. Keep in mind that one object can have many uses. Separate your responses with a comma.",,y,18536,,,2431,18066,,,,"play instrument, practice",1
6358f1332459f21caa585aef,w1qo7znp0g,"Affordance Norms_Prolific",1,27,2023-05-11T00:15:22+00:00,15.488713979721,60,"updated stim.csv",Version60.csv,"Version 60","List 60",visor,,1782,5.041666667,2868,0.586790716,1783,BOI,-,-,"Please name all of the ways you could use this object. Keep in mind that one object can have many uses. Separate your responses with a comma.",,y,14909,,,10821,14228,,,,"sheild from sun",0.813
6358f1332459f21caa585aef,w1qo7znp0g,"Affordance Norms_Prolific",1,28,2023-05-11T00:15:34+00:00,12.002149105072,60,"updated stim.csv",Version60.csv,"Version 60","List 60",beard,,1777,5.565217391,182,0.253414868,1778,BOI,-,-,"Please name all of the ways you could use this object. Keep in mind that one object can have many uses. Separate your responses with a comma.",,y,11456,,,2258,10694,,,,"grow, shave, feel",1
6358f1332459f21caa585aef,w1qo7znp0g,"Affordance Norms_Prolific",1,29,2023-05-11T00:15:43+00:00,8.7226009368896,60,"updated stim.csv",Version60.csv,"Version 60","List 60",helmet,,1798,6.111111111,1278,0.832370851,1799,BOI,-,-,"Please name all of the ways you could use this object. Keep in mind that one object can have many uses. Separate your responses with a comma.",,y,8184,,,2012,7206,,,,"wear on head, protect head",1
6358f1332459f21caa585aef,w1qo7znp0g,"Affordance Norms_Prolific",1,30,2023-05-11T00:15:58+00:00,14.671195983887,60,"updated stim.csv",Version60.csv,"Version 60","List 60",wingman,,1773,4.391304348,2950,0.101834309,1774,BOI,-,-,"Please name all of the ways you could use this object. Keep in mind that one object can have many uses. Separate your responses with a comma.",,y,14131,,,1991,13308,,,,"help get girlfriend with",1
6358f1332459f21caa585aef,w1qo7znp0g,"Affordance Norms_Prolific",1,31,2023-05-11T00:16:10+00:00,12.289865970612,60,"updated stim.csv",Version60.csv,"Version 60","List 60",bookmarker,,1793,4.576923077,277,0.939564425,1794,BOI,-,-,"Please name all of the ways you could use this object. Keep in mind that one object can have many uses. Separate your responses with a comma.",,y,11739,,,4245,11057,,,,"mark the page you are on",1
6358f1332459f21caa585aef,w1qo7znp0g,"Affordance Norms_Prolific",1,32,2023-05-11T00:16:19+00:00,8.7926959991455,60,"updated stim.csv",Version60.csv,"Version 60","List 60",juice,,1784,5.739130435,1393,0.707719454,1785,BOI,-,-,"Please name all of the ways you could use this object. Keep in mind that one object can have many uses. Separate your responses with a comma.",,y,8243,,,1518,5344,,,,"drink,store in fridge",1
6358f1332459f21caa585aef,w1qo7znp0g,"Affordance Norms_Prolific",1,33,2023-05-11T00:16:35+00:00,15.71311712265,60,"updated stim.csv",Version60.csv,"Version 60","List 60",detonator,,1785,4.68,783,0.546374195,1786,BOI,-,-,"Please name all of the ways you could use this object. Keep in mind that one object can have many uses. Separate your responses with a comma.",,y,14999,,,2310,14135,,,,"blow up explosive, push",1
6358f1332459f21caa585aef,w1qo7znp0g,"Affordance Norms_Prolific",1,34,2023-05-11T00:16:49+00:00,14.192718029022,60,"updated stim.csv",Version60.csv,"Version 60","List 60",omelette,,1771,6.291666667,1808,0.947799837,1772,BOI,-,-,"Please name all of the ways you could use this object. Keep in mind that one object can have many uses. Separate your responses with a comma.",,y,13654,,,1382,13113,,,,"eat ,cook, eat for breakfast",1
6358f1332459f21caa585aef,w1qo7znp0g,"Affordance Norms_Prolific",1,35,2023-05-11T00:17:04+00:00,14.795444965363,60,"updated stim.csv",Version60.csv,"Version 60","List 60",scraper,,1787,5.12,2283,0.885606179,1788,BOI,-,-,"Please name all of the ways you could use this object. Keep in mind that one object can have many uses. Separate your responses with a comma.",,y,14245,,,1142,13247,,,,"scrape wall",0.949
6358f1332459f21caa585aef,w1qo7znp0g,"Affordance Norms_Prolific",1,36,2023-05-11T00:17:11+00:00,7.5180649757385,60,"updated stim.csv",Version60.csv,"Version 60","List 60",sundae,,1778,5.96,2585,0.926628743,1779,BOI,-,-,"Please name all of the ways you could use this object. Keep in mind that one object can have many uses. Separate your responses with a comma.",,y,6977,,,1292,5769,,,,"eat, enjoy, buy ",1
6358f1332459f21caa585aef,w1qo7znp0g,"Affordance Norms_Prolific",1,37,2023-05-11T00:17:17+00:00,6.2498679161072,60,"updated stim.csv",Version60.csv,"Version 60","List 60",conditioner,,1774,5.130434783,621,0.504590021,1775,BOI,-,-,"Please name all of the ways you could use this object. Keep in mind that one object can have many uses. Separate your responses with a comma.",,y,5710,,,1508,4632,,,,"put in hair",1
6358f1332459f21caa585aef,w1qo7znp0g,"Affordance Norms_Prolific",1,38,2023-05-11T00:17:37+00:00,20.053270101547,60,"updated stim.csv",Version60.csv,"Version 60","List 60",wolfhound,,1789,4.346153846,2954,0.892555993,1790,BOI,-,-,"Please name all of the ways you could use this object. Keep in mind that one object can have many uses. Separate your responses with a comma.",,y,19508,,,2079,10293,,,,"run away, howl",1
6358f1332459f21caa585aef,w1qo7znp0g,"Affordance Norms_Prolific",1,39,2023-05-11T00:17:53+00:00,15.9061460495,60,"updated stim.csv",Version60.csv,"Version 60","List 60",cork,,1772,5.636363636,642,0.923224549,1773,BOI,-,-,"Please name all of the ways you could use this object. Keep in mind that one object can have many uses. Separate your responses with a comma.",,y,15364,,,3778,13807,,,,"pop when opening wine, screw back in wine",1
6358f1332459f21caa585aef,w1qo7znp0g,"Affordance Norms_Prolific",1,40,2023-05-11T00:18:01+00:00,7.8375949859619,60,"updated stim.csv",Version60.csv,"Version 60","List 60",flooring,,1795,4.565217391,1010,0.859155028,1796,BOI,-,-,"Please name all of the ways you could use this object. Keep in mind that one object can have many uses. Separate your responses with a comma.",,y,7293,,,2807,6471,,,,"install in bathroom",1
6358f1332459f21caa585aef,w1qo7znp0g,"Affordance Norms_Prolific",1,41,2023-05-11T00:18:03+00:00,1.7321970462799,60,"updated stim.csv",Version60.csv,"Version 60","List 60",,,,,,,0,Instruct,,,"You will now be asked a few questions about your experience today.",,"Instruct 4",1309,,,-1,-1,,,,,1
