Username,ID,ExperimentName,Session,Trial,Date,TimeDif,"Condition Number","Stimuli File","Order File","Condition Description","Condition Notes",Stimuli*Cue,Stimuli*Answer,Stimuli*Shuffle,"Stimuli*Stimuli Notes",Stimuli*Value,Stimuli*Rand,Procedure*Item,"Procedure*Trial Type","Procedure*Max Time","Procedure*Min Time",Procedure*Text,"Procedure*Procedure Notes",Procedure*Shuffle,Response*RT,Response*Response,Response*Accuracy,Response*RTfirst,Response*RTlast,Response*strictAcc,Response*lenientAcc,Response*focus,Response*JOL,Response*Focus
5ca356cb72a23200160ce912,fqlgglhudr,"Affordance Norms_Prolific",1,1,2023-05-10T23:17:39+00:00,18.71826004982,40,"updated stim.csv",Version40.csv,"Version 40","List 40",,,,,,,0,Instruct,-,10,"In this section, you will be presented with a series of objects. Please name as many possible uses for this object as you can think of by typing them in the box below each object.",,Instruct1,18268,,,-1,-1,,,,,1
5ca356cb72a23200160ce912,fqlgglhudr,"Affordance Norms_Prolific",1,2,2023-05-10T23:17:50+00:00,11.573096990585,40,"updated stim.csv",Version40.csv,"Version 40","List 40",,,,,,,0,Instruct,-,10,"Please keep in mind that a single object will have more than one use. For example, a ball can be thrown or can be bounced or even stepped on. When listing multiple uses for one object, please separate each use with a comma (i.e., thrown, bounced, stepped on)",,Instruct2,10880,,,-1,-1,,,,,1
5ca356cb72a23200160ce912,fqlgglhudr,"Affordance Norms_Prolific",1,3,2023-05-10T23:17:55+00:00,4.3641769886017,40,"updated stim.csv",Version40.csv,"Version 40","List 40",,,,,,,0,Instruct,-,-,"Before starting the experiment, you will complete a short practice sesstion. Press ENTER when you are ready to begin.",,Instruct3,3903,,,-1,-1,,,,,1
5ca356cb72a23200160ce912,fqlgglhudr,"Affordance Norms_Prolific",1,4,2023-05-10T23:18:17+00:00,22.567107915878,40,"updated stim.csv",Version40.csv,"Version 40","List 40",spaghetti,,3003,6,2461,0.090379998,3004,BOI,-,-,"Please name all of the ways you could use this object. Keep in mind that one object can have many uses. Separate your responses with a comma.",,n,21903,,,6291,20777,,,,"To eat, to wear as hair , to practice braids",1
5ca356cb72a23200160ce912,fqlgglhudr,"Affordance Norms_Prolific",1,5,2023-05-10T23:18:40+00:00,22.919147014618,40,"updated stim.csv",Version40.csv,"Version 40","List 40",saucer,,3005,5.777777778,2249,0.304808074,3006,BOI,-,-,"Please name all of the ways you could use this object. Keep in mind that one object can have many uses. Separate your responses with a comma.",,n,22304,,,5237,20915,,,,"To hold a cup, to eat a cookie from, to throw when angry ",1
5ca356cb72a23200160ce912,fqlgglhudr,"Affordance Norms_Prolific",1,6,2023-05-10T23:19:06+00:00,26.371242046356,40,"updated stim.csv",Version40.csv,"Version 40","List 40",paperwork,,3001,5.625,1866,0.124284162,3002,BOI,-,-,"Please name all of the ways you could use this object. Keep in mind that one object can have many uses. Separate your responses with a comma.",,n,25823,,,3820,24954,,,,"To keep track of finances, to burn on a fire, to make aeroplanes ",1
5ca356cb72a23200160ce912,fqlgglhudr,"Affordance Norms_Prolific",1,7,2023-05-10T23:19:30+00:00,23.313055992126,40,"updated stim.csv",Version40.csv,"Version 40","List 40",grain,,3004,5.217391304,1143,0.226863762,3005,BOI,-,-,"Please name all of the ways you could use this object. Keep in mind that one object can have many uses. Separate your responses with a comma.",,n,22690,,,2970,21873,,,,"To eat, to stick down as art, to plant ",1
5ca356cb72a23200160ce912,fqlgglhudr,"Affordance Norms_Prolific",1,8,2023-05-10T23:20:06+00:00,36.661268949509,40,"updated stim.csv",Version40.csv,"Version 40","List 40",shortening,,3002,4.92,2358,0.604328482,3003,BOI,-,-,"Please name all of the ways you could use this object. Keep in mind that one object can have many uses. Separate your responses with a comma.",,n,35989,,,13353,34884,,,,"To make something quicker, to talk about, to put in a story ",1
5ca356cb72a23200160ce912,fqlgglhudr,"Affordance Norms_Prolific",1,9,2023-05-10T23:20:09+00:00,2.88720703125,40,"updated stim.csv",Version40.csv,"Version 40","List 40",,,,,,,0,Instruct,-,-,"You have completed this section. Press ENTER to continue",,"Instruct 5",2427,,,-1,-1,,,,,1
5ca356cb72a23200160ce912,fqlgglhudr,"Affordance Norms_Prolific",1,10,2023-05-10T23:20:12+00:00,2.79518699646,40,"updated stim.csv",Version40.csv,"Version 40","List 40",,,,,,,0,Instruct,-,-,"You will now start the full experiment. Press ENTER when you are ready to begin.",,,2381,,,-1,-1,,,,,1
5ca356cb72a23200160ce912,fqlgglhudr,"Affordance Norms_Prolific",1,11,2023-05-10T23:20:33+00:00,21.252290010452,40,"updated stim.csv",Version40.csv,"Version 40","List 40",porridge,,1190,4.80952381,2038,0.226224278,1191,BOI,-,-,"Please name all of the ways you could use this object. Keep in mind that one object can have many uses. Separate your responses with a comma.",,y,20561,,,2413,19711,,,,"To eat, to make into playdough, to feed to the birds",1
5ca356cb72a23200160ce912,fqlgglhudr,"Affordance Norms_Prolific",1,12,2023-05-10T23:20:57+00:00,23.242505073547,40,"updated stim.csv",Version40.csv,"Version 40","List 40",salad,,1175,6.111111111,2218,0.466682363,1176,BOI,-,-,"Please name all of the ways you could use this object. Keep in mind that one object can have many uses. Separate your responses with a comma.",,y,22605,,,1903,21831,,,,"To eat, to decorate a table, to put in a rabbit cage ",1
5ca356cb72a23200160ce912,fqlgglhudr,"Affordance Norms_Prolific",1,13,2023-05-10T23:21:34+00:00,37.478478908539,40,"updated stim.csv",Version40.csv,"Version 40","List 40",straitjacket,,1187,5.037037037,2558,0.770954805,1188,BOI,-,-,"Please name all of the ways you could use this object. Keep in mind that one object can have many uses. Separate your responses with a comma.",,y,36808,,,2349,35858,,,,"To wear, to put on display, to recycle into something else ",1
5ca356cb72a23200160ce912,fqlgglhudr,"Affordance Norms_Prolific",1,14,2023-05-10T23:22:09+00:00,34.613310098648,40,"updated stim.csv",Version40.csv,"Version 40","List 40",buckle,,1188,4.846153846,342,0.420732514,1189,BOI,-,-,"Please name all of the ways you could use this object. Keep in mind that one object can have many uses. Separate your responses with a comma.",,y,33906,,,2179,33003,,,,"To do up a belt, to spank naughty children, to make noise with ",1
5ca356cb72a23200160ce912,fqlgglhudr,"Affordance Norms_Prolific",1,15,2023-05-10T23:22:40+00:00,31.336406946182,40,"updated stim.csv",Version40.csv,"Version 40","List 40",piccolo,,1182,4.956521739,1948,0.266218097,1183,BOI,-,-,"Please name all of the ways you could use this object. Keep in mind that one object can have many uses. Separate your responses with a comma.",,y,30662,,,2323,29878,,,,"To play, to pretend is a telescope, to hit things with ",1
5ca356cb72a23200160ce912,fqlgglhudr,"Affordance Norms_Prolific",1,16,2023-05-10T23:23:04+00:00,23.539720058441,40,"updated stim.csv",Version40.csv,"Version 40","List 40",walker,,1179,5.181818182,2885,0.225630288,1180,BOI,-,-,"Please name all of the ways you could use this object. Keep in mind that one object can have many uses. Separate your responses with a comma.",,y,22813,,,2396,22042,,,,"To help aid walking, to use as a foot rest, to hang clothes off ",1
5ca356cb72a23200160ce912,fqlgglhudr,"Affordance Norms_Prolific",1,17,2023-05-10T23:23:31+00:00,26.991778850555,40,"updated stim.csv",Version40.csv,"Version 40","List 40",monk,,1176,5.173913043,1680,0.475833569,1177,BOI,-,-,"Please name all of the ways you could use this object. Keep in mind that one object can have many uses. Separate your responses with a comma.",,y,26379,,,3142,25442,,,,"To listen too, to worship , to shade yourself ",1
5ca356cb72a23200160ce912,fqlgglhudr,"Affordance Norms_Prolific",1,18,2023-05-10T23:24:00+00:00,29.134201049805,40,"updated stim.csv",Version40.csv,"Version 40","List 40",acorn,,1197,5.28,8,0.226034468,1198,BOI,-,-,"Please name all of the ways you could use this object. Keep in mind that one object can have many uses. Separate your responses with a comma.",,y,28506,,,2544,27738,,,,"To grow a tree, to eat, to make a hat for a small insect ",1
5ca356cb72a23200160ce912,fqlgglhudr,"Affordance Norms_Prolific",1,19,2023-05-10T23:24:37+00:00,37.275146961212,40,"updated stim.csv",Version40.csv,"Version 40","List 40",piercing,,1184,5,1954,0.302184076,1185,BOI,-,-,"Please name all of the ways you could use this object. Keep in mind that one object can have many uses. Separate your responses with a comma.",,y,36560,,,7470,35742,,,,"To put a earring in, to poke your finger through, to attach a small purse",1
5ca356cb72a23200160ce912,fqlgglhudr,"Affordance Norms_Prolific",1,20,2023-05-10T23:24:57+00:00,19.556482076645,40,"updated stim.csv",Version40.csv,"Version 40","List 40",gyroscope,,1189,4.814814815,1207,0.518024929,1190,BOI,-,-,"Please name all of the ways you could use this object. Keep in mind that one object can have many uses. Separate your responses with a comma.",,y,18926,,,7934,18191,,,,"To measure, to play with, to sell on eBay ",1
5ca356cb72a23200160ce912,fqlgglhudr,"Affordance Norms_Prolific",1,21,2023-05-10T23:25:38+00:00,41.067467927933,40,"updated stim.csv",Version40.csv,"Version 40","List 40",oilcan,,1200,4.782608696,1802,0.943196409,1201,BOI,-,-,"Please name all of the ways you could use this object. Keep in mind that one object can have many uses. Separate your responses with a comma.",,y,40405,,,2615,39686,,,,"To fill with oil, hit as a instrument, add on a car display ",1
5ca356cb72a23200160ce912,fqlgglhudr,"Affordance Norms_Prolific",1,22,2023-05-10T23:26:02+00:00,24.88031411171,40,"updated stim.csv",Version40.csv,"Version 40","List 40",signpost,,1198,5.25,2380,0.495356372,1199,BOI,-,-,"Please name all of the ways you could use this object. Keep in mind that one object can have many uses. Separate your responses with a comma.",,y,24291,,,5758,23488,,,,"To help others know a name, to hang off, to graffiti on ",1
5ca356cb72a23200160ce912,fqlgglhudr,"Affordance Norms_Prolific",1,23,2023-05-10T23:26:27+00:00,24.453541994095,40,"updated stim.csv",Version40.csv,"Version 40","List 40",epidermis,,1191,5.636363636,916,0.203650559,1192,BOI,-,-,"Please name all of the ways you could use this object. Keep in mind that one object can have many uses. Separate your responses with a comma.",,y,23832,,,3431,23111,,,,"To learn from, to study, to help with learning spelling ",1
5ca356cb72a23200160ce912,fqlgglhudr,"Affordance Norms_Prolific",1,24,2023-05-10T23:26:54+00:00,27.055924892426,40,"updated stim.csv",Version40.csv,"Version 40","List 40",stopwatch,,1185,6.041666667,2549,0.812942197,1186,BOI,-,-,"Please name all of the ways you could use this object. Keep in mind that one object can have many uses. Separate your responses with a comma.",,y,26409,,,2355,25205,,,,"To time something, to balance a cup on, to throw to get someone’s attention ",1
5ca356cb72a23200160ce912,fqlgglhudr,"Affordance Norms_Prolific",1,25,2023-05-10T23:27:25+00:00,31.335402011871,40,"updated stim.csv",Version40.csv,"Version 40","List 40",tank,,1173,4.608695652,2631,0.495653559,1174,BOI,-,-,"Please name all of the ways you could use this object. Keep in mind that one object can have many uses. Separate your responses with a comma.",,y,30655,,,2852,28902,,,,"To drive, to jump on, to photograph ",1
5ca356cb72a23200160ce912,fqlgglhudr,"Affordance Norms_Prolific",1,26,2023-05-10T23:27:44+00:00,18.63794708252,40,"updated stim.csv",Version40.csv,"Version 40","List 40",sushi,,1199,5.708333333,2597,0.102266266,1200,BOI,-,-,"Please name all of the ways you could use this object. Keep in mind that one object can have many uses. Separate your responses with a comma.",,y,18033,,,1984,17313,,,,"To eat, to stack up, to throw ",1
5ca356cb72a23200160ce912,fqlgglhudr,"Affordance Norms_Prolific",1,27,2023-05-10T23:28:09+00:00,25.292163848877,40,"updated stim.csv",Version40.csv,"Version 40","List 40",clitoris,,1172,6.090909091,564,0.92528309,1173,BOI,-,-,"Please name all of the ways you could use this object. Keep in mind that one object can have many uses. Separate your responses with a comma.",,y,24635,,,2281,23899,,,,"To stimulate, to learn from, to draw ",1
5ca356cb72a23200160ce912,fqlgglhudr,"Affordance Norms_Prolific",1,28,2023-05-10T23:28:27+00:00,17.821354150772,40,"updated stim.csv",Version40.csv,"Version 40","List 40",makeup,,1186,6,1580,0.407523064,1187,BOI,-,-,"Please name all of the ways you could use this object. Keep in mind that one object can have many uses. Separate your responses with a comma.",,y,17115,,,2052,16396,,,,"To use , to draw with, to give as a gift ",1
5ca356cb72a23200160ce912,fqlgglhudr,"Affordance Norms_Prolific",1,29,2023-05-10T23:29:02+00:00,34.712504863739,40,"updated stim.csv",Version40.csv,"Version 40","List 40",bedspread,,1174,6.08,188,0.054747267,1175,BOI,-,-,"Please name all of the ways you could use this object. Keep in mind that one object can have many uses. Separate your responses with a comma.",,y,33919,,,13336,33034,,,,"To cover a bed, to make a den, to cover a window ",1
5ca356cb72a23200160ce912,fqlgglhudr,"Affordance Norms_Prolific",1,30,2023-05-10T23:29:21+00:00,19.075351953506,40,"updated stim.csv",Version40.csv,"Version 40","List 40",goldsmith,,1193,4.375,1134,0.348990826,1194,BOI,-,-,"Please name all of the ways you could use this object. Keep in mind that one object can have many uses. Separate your responses with a comma.",,y,18477,,,2547,17760,,,,"To buy from, to rob, to marry ",1
5ca356cb72a23200160ce912,fqlgglhudr,"Affordance Norms_Prolific",1,31,2023-05-10T23:29:48+00:00,27.413456201553,40,"updated stim.csv",Version40.csv,"Version 40","List 40",newspaperman,,1195,4.48,1761,0.676039813,1196,BOI,-,-,"Please name all of the ways you could use this object. Keep in mind that one object can have many uses. Separate your responses with a comma.",,y,26785,,,2431,26032,,,,"To get a newspaper from, to give a piggyback too, to steal a bag from ",1
5ca356cb72a23200160ce912,fqlgglhudr,"Affordance Norms_Prolific",1,32,2023-05-10T23:30:24+00:00,36.146754026413,40,"updated stim.csv",Version40.csv,"Version 40","List 40",denims,,1181,5.541666667,774,0.571481343,1182,BOI,-,-,"Please name all of the ways you could use this object. Keep in mind that one object can have many uses. Separate your responses with a comma.",,y,35504,,,3118,34719,,,,"To make into clothes, to let your cat sleep on, to make something white go blue ",1
5ca356cb72a23200160ce912,fqlgglhudr,"Affordance Norms_Prolific",1,33,2023-05-10T23:30:45+00:00,20.175828933716,40,"updated stim.csv",Version40.csv,"Version 40","List 40",trombone,,1194,5.75,2781,0.477357634,1195,BOI,-,-,"Please name all of the ways you could use this object. Keep in mind that one object can have many uses. Separate your responses with a comma.",,y,19507,,,2477,18705,,,,"To play, to throw at someone, to use as a ornament ",1
5ca356cb72a23200160ce912,fqlgglhudr,"Affordance Norms_Prolific",1,34,2023-05-10T23:31:09+00:00,24.877846956253,40,"updated stim.csv",Version40.csv,"Version 40","List 40",pie,,1178,5.869565217,1953,0.817428636,1179,BOI,-,-,"Please name all of the ways you could use this object. Keep in mind that one object can have many uses. Separate your responses with a comma.",,y,24200,,,2081,23396,,,,"To eat, to splat in someone’s face, to throw as a frisbee ",1
5ca356cb72a23200160ce912,fqlgglhudr,"Affordance Norms_Prolific",1,35,2023-05-10T23:31:32+00:00,22.635405063629,40,"updated stim.csv",Version40.csv,"Version 40","List 40",bleacher,,1196,5.083333333,235,0.237933917,1197,BOI,-,-,"Please name all of the ways you could use this object. Keep in mind that one object can have many uses. Separate your responses with a comma.",,y,21925,,,3508,21222,,,,"To clean, to hide a dead body, to employ ",1
5ca356cb72a23200160ce912,fqlgglhudr,"Affordance Norms_Prolific",1,36,2023-05-10T23:31:50+00:00,17.721889972687,40,"updated stim.csv",Version40.csv,"Version 40","List 40",baklava,,1171,5.454545455,126,0.67252704,1172,BOI,-,-,"Please name all of the ways you could use this object. Keep in mind that one object can have many uses. Separate your responses with a comma.",,y,17106,,,3660,16387,,,,"To eat, to draw, to throw ",1
5ca356cb72a23200160ce912,fqlgglhudr,"Affordance Norms_Prolific",1,37,2023-05-10T23:32:06+00:00,15.865504026413,40,"updated stim.csv",Version40.csv,"Version 40","List 40",canteen,,1183,5.607142857,419,0.478481246,1184,BOI,-,-,"Please name all of the ways you could use this object. Keep in mind that one object can have many uses. Separate your responses with a comma.",,y,15272,,,2160,14569,,,,"To eat in, to have a party, to clean ",1
5ca356cb72a23200160ce912,fqlgglhudr,"Affordance Norms_Prolific",1,38,2023-05-10T23:32:29+00:00,22.93926692009,40,"updated stim.csv",Version40.csv,"Version 40","List 40",dance,,1180,4.44,753,0.210841804,1181,BOI,-,-,"Please name all of the ways you could use this object. Keep in mind that one object can have many uses. Separate your responses with a comma.",,y,22298,,,2149,19345,,,,"To get excercise, to enjoy, ",1
5ca356cb72a23200160ce912,fqlgglhudr,"Affordance Norms_Prolific",1,39,2023-05-10T23:33:03+00:00,34.098737001419,40,"updated stim.csv",Version40.csv,"Version 40","List 40",bat,,1192,5.041666667,166,0.007785369,1193,BOI,-,-,"Please name all of the ways you could use this object. Keep in mind that one object can have many uses. Separate your responses with a comma.",,y,33376,,,3352,32607,,,,"To hit a ball, to throw, to eat",1
5ca356cb72a23200160ce912,fqlgglhudr,"Affordance Norms_Prolific",1,40,2023-05-10T23:33:27+00:00,23.84467291832,40,"updated stim.csv",Version40.csv,"Version 40","List 40",twine,,1177,5.5,2812,0.436601767,1178,BOI,-,-,"Please name all of the ways you could use this object. Keep in mind that one object can have many uses. Separate your responses with a comma.",,y,23244,,,8412,22256,,,,"To touch, to climb. Water ",1
5ca356cb72a23200160ce912,fqlgglhudr,"Affordance Norms_Prolific",1,41,2023-05-10T23:33:29+00:00,2.823949098587,40,"updated stim.csv",Version40.csv,"Version 40","List 40",,,,,,,0,Instruct,,,"You will now be asked a few questions about your experience today.",,"Instruct 4",2428,,,-1,-1,,,,,1
