Username,ID,ExperimentName,Session,Trial,Date,TimeDif,"Condition Number","Stimuli File","Order File","Condition Description","Condition Notes",Stimuli*Cue,Stimuli*Answer,Stimuli*Shuffle,"Stimuli*Stimuli Notes",Stimuli*Value,Stimuli*Rand,Procedure*Item,"Procedure*Trial Type","Procedure*Max Time","Procedure*Min Time",Procedure*Text,"Procedure*Procedure Notes",Procedure*Shuffle,Response*RT,Response*Response,Response*Accuracy,Response*RTfirst,Response*RTlast,Response*strictAcc,Response*lenientAcc,Response*focus,Response*JOL,Response*Focus
5fcfb1fe79b8060e0662270a,9kyd3bodd1,"Affordance Norms_Prolific",1,1,2023-05-09T21:04:49+00:00,12.398324966431,5,"updated stim.csv",Version5.csv,"Version 5","List 5",,,,,,,0,Instruct,-,10,"In this section, you will be presented with a series of objects. Please name as many possible uses for this object as you can think of by typing them in the box below each object.",,Instruct1,11884,,,-1,-1,,,,,1
5fcfb1fe79b8060e0662270a,9kyd3bodd1,"Affordance Norms_Prolific",1,2,2023-05-09T21:05:00+00:00,11.741894006729,5,"updated stim.csv",Version5.csv,"Version 5","List 5",,,,,,,0,Instruct,-,10,"Please keep in mind that a single object will have more than one use. For example, a ball can be thrown or can be bounced or even stepped on. When listing multiple uses for one object, please separate each use with a comma (i.e., thrown, bounced, stepped on)",,Instruct2,11015,,,-1,-1,,,,,1
5fcfb1fe79b8060e0662270a,9kyd3bodd1,"Affordance Norms_Prolific",1,3,2023-05-09T21:05:06+00:00,5.5890669822693,5,"updated stim.csv",Version5.csv,"Version 5","List 5",,,,,,,0,Instruct,-,-,"Before starting the experiment, you will complete a short practice sesstion. Press ENTER when you are ready to begin.",,Instruct3,4811,,,-1,-1,,,,,1
5fcfb1fe79b8060e0662270a,9kyd3bodd1,"Affordance Norms_Prolific",1,4,2023-05-09T21:05:58+00:00,52.210602045059,5,"updated stim.csv",Version5.csv,"Version 5","List 5",spaghetti,,3003,6,2461,0.090379998,3004,BOI,-,-,"Please name all of the ways you could use this object. Keep in mind that one object can have many uses. Separate your responses with a comma.",,n,51376,,,4144,49805,,,,"eaten, pattern, make a rattle, draw a picture",1
5fcfb1fe79b8060e0662270a,9kyd3bodd1,"Affordance Norms_Prolific",1,5,2023-05-09T21:06:24+00:00,25.813416957855,5,"updated stim.csv",Version5.csv,"Version 5","List 5",grain,,3004,5.217391304,1143,0.226863762,3005,BOI,-,-,"Please name all of the ways you could use this object. Keep in mind that one object can have many uses. Separate your responses with a comma.",,n,24723,,,8637,22491,,,,"add to stew, make into flour, feed to animals",1
5fcfb1fe79b8060e0662270a,9kyd3bodd1,"Affordance Norms_Prolific",1,6,2023-05-09T21:06:52+00:00,27.654230117798,5,"updated stim.csv",Version5.csv,"Version 5","List 5",saucer,,3005,5.777777778,2249,0.304808074,3006,BOI,-,-,"Please name all of the ways you could use this object. Keep in mind that one object can have many uses. Separate your responses with a comma.",,n,27144,,,3307,25647,,,,"to put a cup on, draw a circle, smash, stand a plant on",1
5fcfb1fe79b8060e0662270a,9kyd3bodd1,"Affordance Norms_Prolific",1,7,2023-05-09T21:07:02+00:00,10.838413000107,5,"updated stim.csv",Version5.csv,"Version 5","List 5",shortening,,3002,4.92,2358,0.604328482,3003,BOI,-,-,"Please name all of the ways you could use this object. Keep in mind that one object can have many uses. Separate your responses with a comma.",,n,10030,,,5433,6841,,,,baking,1
5fcfb1fe79b8060e0662270a,9kyd3bodd1,"Affordance Norms_Prolific",1,8,2023-05-09T21:07:50+00:00,47.625633001328,5,"updated stim.csv",Version5.csv,"Version 5","List 5",paperwork,,3001,5.625,1866,0.124284162,3002,BOI,-,-,"Please name all of the ways you could use this object. Keep in mind that one object can have many uses. Separate your responses with a comma.",,n,46885,,,2303,43870,,,,"shred, refer to, file, screw up, light a fire, look at, think about, stand on, make aeroplanes",1
5fcfb1fe79b8060e0662270a,9kyd3bodd1,"Affordance Norms_Prolific",1,9,2023-05-09T21:07:53+00:00,2.9477729797363,5,"updated stim.csv",Version5.csv,"Version 5","List 5",,,,,,,0,Instruct,-,-,"You have completed this section. Press ENTER to continue",,"Instruct 5",2319,,,-1,-1,,,,,1
5fcfb1fe79b8060e0662270a,9kyd3bodd1,"Affordance Norms_Prolific",1,10,2023-05-09T21:08:05+00:00,12.116630077362,5,"updated stim.csv",Version5.csv,"Version 5","List 5",,,,,,,0,Instruct,-,-,"You will now start the full experiment. Press ENTER when you are ready to begin.",,,2593,,,-1,-1,,,,,1
5fcfb1fe79b8060e0662270a,9kyd3bodd1,"Affordance Norms_Prolific",1,11,2023-05-09T21:09:01+00:00,56.167168855667,5,"updated stim.csv",Version5.csv,"Version 5","List 5",prosecutor,,146,4.64,2078,0.373078665,147,BOI,-,-,"Please name all of the ways you could use this object. Keep in mind that one object can have many uses. Separate your responses with a comma.",,y,55399,,,5862,53845,,,,"decisions, agree with, disagree with, shake hands with, listen to, look at, scare someone",1
5fcfb1fe79b8060e0662270a,9kyd3bodd1,"Affordance Norms_Prolific",1,12,2023-05-09T21:10:28+00:00,86.884860992432,5,"updated stim.csv",Version5.csv,"Version 5","List 5",cabbage,,132,5.608695652,386,0.325095127,133,BOI,-,-,"Please name all of the ways you could use this object. Keep in mind that one object can have many uses. Separate your responses with a comma.",,y,86157,,,1631,82921,,,,"boil, shred, feed to sheep, make a head for scarecrow, add to compost heap, let go to seed, make soup, roll, stand on, stamp on, draw, ",1
5fcfb1fe79b8060e0662270a,9kyd3bodd1,"Affordance Norms_Prolific",1,13,2023-05-09T21:11:43+00:00,75.017632007599,5,"updated stim.csv",Version5.csv,"Version 5","List 5",playsuit,,131,5.36,2003,0.404603014,132,BOI,-,-,"Please name all of the ways you could use this object. Keep in mind that one object can have many uses. Separate your responses with a comma.",,y,73904,,,1752,66788,,,,"wear, put on scarecrow, cut up and reuse, use as rag, roll up for door drafts, ",1
5fcfb1fe79b8060e0662270a,9kyd3bodd1,"Affordance Norms_Prolific",1,14,2023-05-09T21:12:40+00:00,56.524073123932,5,"updated stim.csv",Version5.csv,"Version 5","List 5",watercress,,128,4.782608696,2910,0.65261601,129,BOI,-,-,"Please name all of the ways you could use this object. Keep in mind that one object can have many uses. Separate your responses with a comma.",,y,55783,,,2416,43318,,,,"eat on salad, make soup, garnish dishes, add to sarnies, plant in garden, ",1
5fcfb1fe79b8060e0662270a,9kyd3bodd1,"Affordance Norms_Prolific",1,15,2023-05-09T21:15:21+00:00,160.91753983498,5,"updated stim.csv",Version5.csv,"Version 5","List 5",bazooka,,129,5.041666667,175,0.357199657,130,BOI,-,-,"Please name all of the ways you could use this object. Keep in mind that one object can have many uses. Separate your responses with a comma.",,y,160135,,,24103,149529,,,,"shoot something, clothes rail, garden ornament, lawn edging, ",1
5fcfb1fe79b8060e0662270a,9kyd3bodd1,"Affordance Norms_Prolific",1,16,2023-05-09T21:17:29+00:00,128.47324705124,5,"updated stim.csv",Version5.csv,"Version 5","List 5",laryngoscope,,135,4.411764706,1467,0.485337296,136,BOI,-,-,"Please name all of the ways you could use this object. Keep in mind that one object can have many uses. Separate your responses with a comma.",,y,127640,,,73601,117151,,,,"check for blockages down your sink, inspect your throat area, looks in birds nests for eggs, ",1
5fcfb1fe79b8060e0662270a,9kyd3bodd1,"Affordance Norms_Prolific",1,17,2023-05-09T21:18:25+00:00,55.838474035263,5,"updated stim.csv",Version5.csv,"Version 5","List 5",eyepiece,,150,5.8,937,0.594546173,151,BOI,-,-,"Please name all of the ways you could use this object. Keep in mind that one object can have many uses. Separate your responses with a comma.",,y,55032,,,10123,53108,,,,"look closely at something, use as a stone for skimming, roll along floor, spinning game, ",1
5fcfb1fe79b8060e0662270a,9kyd3bodd1,"Affordance Norms_Prolific",1,18,2023-05-09T21:19:27+00:00,62.370683908463,5,"updated stim.csv",Version5.csv,"Version 5","List 5",figurine,,121,5.791666667,973,0.03998685,122,BOI,-,-,"Please name all of the ways you could use this object. Keep in mind that one object can have many uses. Separate your responses with a comma.",,y,61646,,,5588,60075,,,,"look at, admire, dress up, buy, sell, collect",1
5fcfb1fe79b8060e0662270a,9kyd3bodd1,"Affordance Norms_Prolific",1,19,2023-05-09T21:20:27+00:00,59.437096118927,5,"updated stim.csv",Version5.csv,"Version 5","List 5",keyhole,,136,5.44,1413,0.406137653,137,BOI,-,-,"Please name all of the ways you could use this object. Keep in mind that one object can have many uses. Separate your responses with a comma.",,y,58677,,,1671,56949,,,,"look through, put key in, block up, pass rolled notes through, blow through, spy",1
5fcfb1fe79b8060e0662270a,9kyd3bodd1,"Affordance Norms_Prolific",1,20,2023-05-09T21:21:09+00:00,41.995558023453,5,"updated stim.csv",Version5.csv,"Version 5","List 5",pedal,,125,5.04,1900,0.012619648,126,BOI,-,-,"Please name all of the ways you could use this object. Keep in mind that one object can have many uses. Separate your responses with a comma.",,y,40465,,,5465,38742,,,,"propel a bike, spin, prop up bike with, pump with foot, ",1
5fcfb1fe79b8060e0662270a,9kyd3bodd1,"Affordance Norms_Prolific",1,21,2023-05-09T21:21:54+00:00,45.025227069855,5,"updated stim.csv",Version5.csv,"Version 5","List 5",crutch,,149,5.8,717,0.131827503,150,BOI,-,-,"Please name all of the ways you could use this object. Keep in mind that one object can have many uses. Separate your responses with a comma.",,y,44448,,,4536,36061,,,,"walk with, plant support, chop for fire sticks, fight with, ",1
5fcfb1fe79b8060e0662270a,9kyd3bodd1,"Affordance Norms_Prolific",1,22,2023-05-09T21:22:28+00:00,34.195979833603,5,"updated stim.csv",Version5.csv,"Version 5","List 5",sandbank,,126,4.52,2234,0.16035416,127,BOI,-,-,"Please name all of the ways you could use this object. Keep in mind that one object can have many uses. Separate your responses with a comma.",,y,33314,,,3019,31011,,,,"stand on, photograph, sit on, run across, get stranded on, sink in",1
5fcfb1fe79b8060e0662270a,9kyd3bodd1,"Affordance Norms_Prolific",1,23,2023-05-09T21:23:21+00:00,53.34171295166,5,"updated stim.csv",Version5.csv,"Version 5","List 5",pomegranate,,139,5.391304348,2026,0.369576509,140,BOI,-,-,"Please name all of the ways you could use this object. Keep in mind that one object can have many uses. Separate your responses with a comma.",,y,51857,,,1900,33940,,,,"eat, dry, juice, roll, squash, grow, smell, ",1
5fcfb1fe79b8060e0662270a,9kyd3bodd1,"Affordance Norms_Prolific",1,24,2023-05-09T21:24:09+00:00,47.41698217392,5,"updated stim.csv",Version5.csv,"Version 5","List 5",paprika,,147,4.428571429,1867,0.923363889,148,BOI,-,-,"Please name all of the ways you could use this object. Keep in mind that one object can have many uses. Separate your responses with a comma.",,y,45297,,,2840,28806,,,,"add to cooking, make paint colour, dye material, ",1
5fcfb1fe79b8060e0662270a,9kyd3bodd1,"Affordance Norms_Prolific",1,25,2023-05-09T21:25:02+00:00,53.134166002274,5,"updated stim.csv",Version5.csv,"Version 5","List 5",postman,,142,4.913043478,2044,0.01460871,143,BOI,-,-,"Please name all of the ways you could use this object. Keep in mind that one object can have many uses. Separate your responses with a comma.",,y,52272,,,2842,36353,,,,"say hello, give a letter to, receive letter from, receive parcel from, give a tip, ",1
5fcfb1fe79b8060e0662270a,9kyd3bodd1,"Affordance Norms_Prolific",1,26,2023-05-09T21:25:59+00:00,56.86718583107,5,"updated stim.csv",Version5.csv,"Version 5","List 5",waste,,123,4.318181818,2903,0.192088069,124,BOI,-,-,"Please name all of the ways you could use this object. Keep in mind that one object can have many uses. Separate your responses with a comma.",,y,55663,,,4457,53062,,,,"recycle, reuse, artistic designs",1
5fcfb1fe79b8060e0662270a,9kyd3bodd1,"Affordance Norms_Prolific",1,27,2023-05-09T21:26:38+00:00,39.088389158249,5,"updated stim.csv",Version5.csv,"Version 5","List 5",worker,,133,5.086956522,2971,0.589394286,134,BOI,-,-,"Please name all of the ways you could use this object. Keep in mind that one object can have many uses. Separate your responses with a comma.",,y,38180,,,3369,35812,,,,"do a job, have conversation with,get ideas from ",1
5fcfb1fe79b8060e0662270a,9kyd3bodd1,"Affordance Norms_Prolific",1,28,2023-05-09T21:27:22+00:00,44.608929872513,5,"updated stim.csv",Version5.csv,"Version 5","List 5",medication,,122,6.28,1637,0.689498349,123,BOI,-,-,"Please name all of the ways you could use this object. Keep in mind that one object can have many uses. Separate your responses with a comma.",,y,43687,,,2280,36564,,,,"swallow, rub in, make me feel better, abuse it, ",1
5fcfb1fe79b8060e0662270a,9kyd3bodd1,"Affordance Norms_Prolific",1,29,2023-05-09T21:27:58+00:00,35.592777013779,5,"updated stim.csv",Version5.csv,"Version 5","List 5",copper,,124,4.833333333,638,0.549670749,125,BOI,-,-,"Please name all of the ways you could use this object. Keep in mind that one object can have many uses. Separate your responses with a comma.",,y,34703,,,3070,31305,,,,"polish it, make wires, make pipes, make saucepans",1
5fcfb1fe79b8060e0662270a,9kyd3bodd1,"Affordance Norms_Prolific",1,30,2023-05-09T21:28:51+00:00,52.954796075821,5,"updated stim.csv",Version5.csv,"Version 5","List 5",sheepskin,,137,4.928571429,2330,0.621252368,138,BOI,-,-,"Please name all of the ways you could use this object. Keep in mind that one object can have many uses. Separate your responses with a comma.",,y,52232,,,3240,42354,,,,"make a coat, make a rug, give to dog as a bed, ",1
5fcfb1fe79b8060e0662270a,9kyd3bodd1,"Affordance Norms_Prolific",1,31,2023-05-09T21:29:18+00:00,26.865978002548,5,"updated stim.csv",Version5.csv,"Version 5","List 5",cedar,,143,4.583333333,470,0.107709949,144,BOI,-,-,"Please name all of the ways you could use this object. Keep in mind that one object can have many uses. Separate your responses with a comma.",,y,24990,,,4697,23753,,,,"smell it, use to keep moths away, plant the tree",1
5fcfb1fe79b8060e0662270a,9kyd3bodd1,"Affordance Norms_Prolific",1,32,2023-05-09T21:29:51+00:00,33.136079072952,5,"updated stim.csv",Version5.csv,"Version 5","List 5",wristlet,,144,5.428571429,2984,0.95091675,145,BOI,-,-,"Please name all of the ways you could use this object. Keep in mind that one object can have many uses. Separate your responses with a comma.",,y,32572,,,27201,30270,,,,"don't know",1
5fcfb1fe79b8060e0662270a,9kyd3bodd1,"Affordance Norms_Prolific",1,33,2023-05-09T21:30:30+00:00,38.982049942017,5,"updated stim.csv",Version5.csv,"Version 5","List 5",antiques,,140,4.68,51,0.461950375,141,BOI,-,-,"Please name all of the ways you could use this object. Keep in mind that one object can have many uses. Separate your responses with a comma.",,y,38178,,,2156,34140,,,,"collect, buy, sell, admire, search for, show off, sit on, ",1
5fcfb1fe79b8060e0662270a,9kyd3bodd1,"Affordance Norms_Prolific",1,34,2023-05-09T21:30:48+00:00,18.076220989227,5,"updated stim.csv",Version5.csv,"Version 5","List 5",woodwork,,138,5.12,2966,0.663344397,139,BOI,-,-,"Please name all of the ways you could use this object. Keep in mind that one object can have many uses. Separate your responses with a comma.",,y,17367,,,3613,15115,,,,"make something, give as present",1
5fcfb1fe79b8060e0662270a,9kyd3bodd1,"Affordance Norms_Prolific",1,35,2023-05-09T21:31:31+00:00,43.229699850082,5,"updated stim.csv",Version5.csv,"Version 5","List 5","Picture Frame",,130,,3002,0.356895476,131,BOI,-,-,"Please name all of the ways you could use this object. Keep in mind that one object can have many uses. Separate your responses with a comma.",,y,42030,,,2123,33029,,,,"put picture in, take apart and burn on fire, check for hidden money, ",1
5fcfb1fe79b8060e0662270a,9kyd3bodd1,"Affordance Norms_Prolific",1,36,2023-05-09T21:32:09+00:00,37.403950214386,5,"updated stim.csv",Version5.csv,"Version 5","List 5",powderpuff,,145,4.923076923,2055,0.604936304,146,BOI,-,-,"Please name all of the ways you could use this object. Keep in mind that one object can have many uses. Separate your responses with a comma.",,y,35261,,,4380,33772,,,,"put face powder on, have as ornament, tickle someone, game of catch",1
5fcfb1fe79b8060e0662270a,9kyd3bodd1,"Affordance Norms_Prolific",1,37,2023-05-09T21:33:00+00:00,51.222967863083,5,"updated stim.csv",Version5.csv,"Version 5","List 5",hoop,,134,5.296296296,1310,0.74583685,135,BOI,-,-,"Please name all of the ways you could use this object. Keep in mind that one object can have many uses. Separate your responses with a comma.",,y,50458,,,9601,48033,,,,"rolling game, hooping, hang things from, underskirt",1
5fcfb1fe79b8060e0662270a,9kyd3bodd1,"Affordance Norms_Prolific",1,38,2023-05-09T21:33:41+00:00,41.188401937485,5,"updated stim.csv",Version5.csv,"Version 5","List 5",stableman,,141,4.375,2495,0.024282326,142,BOI,-,-,"Please name all of the ways you could use this object. Keep in mind that one object can have many uses. Separate your responses with a comma.",,y,40437,,,2593,38867,,,,"look after horses, riding, groom horses, play poker, have dinner with, marry",1
5fcfb1fe79b8060e0662270a,9kyd3bodd1,"Affordance Norms_Prolific",1,39,2023-05-09T21:34:33+00:00,52.368777990341,5,"updated stim.csv",Version5.csv,"Version 5","List 5",doll,,148,6.434782609,814,0.883086008,149,BOI,-,-,"Please name all of the ways you could use this object. Keep in mind that one object can have many uses. Separate your responses with a comma.",,y,51056,,,2635,49599,,,,"play with, sell, dress, undress, comb hair, friend",1
5fcfb1fe79b8060e0662270a,9kyd3bodd1,"Affordance Norms_Prolific",1,40,2023-05-09T21:34:58+00:00,24.810520172119,5,"updated stim.csv",Version5.csv,"Version 5","List 5",tranquilizers,,127,4.607142857,2761,0.821162254,128,BOI,-,-,"Please name all of the ways you could use this object. Keep in mind that one object can have many uses. Separate your responses with a comma.",,y,24076,,,3426,22492,,,,"escape, sell, relax",1
5fcfb1fe79b8060e0662270a,9kyd3bodd1,"Affordance Norms_Prolific",1,41,2023-05-09T21:35:02+00:00,3.7022259235382,5,"updated stim.csv",Version5.csv,"Version 5","List 5",,,,,,,0,Instruct,,,"You will now be asked a few questions about your experience today.",,"Instruct 4",2000,,,-1,-1,,,,,1
