Username,ID,ExperimentName,Session,Trial,Date,TimeDif,"Condition Number","Stimuli File","Order File","Condition Description","Condition Notes",Stimuli*Cue,Stimuli*Answer,Stimuli*Shuffle,"Stimuli*Stimuli Notes",Stimuli*Value,Stimuli*Rand,Procedure*Item,"Procedure*Trial Type","Procedure*Max Time","Procedure*Min Time",Procedure*Text,"Procedure*Procedure Notes",Procedure*Shuffle,Response*RT,Response*Response,Response*Accuracy,Response*RTfirst,Response*RTlast,Response*strictAcc,Response*lenientAcc,Response*focus,Response*JOL,Response*Focus
5ec7f028756dc00aed5b605b,rum1uefazx,"Affordance Norms_Prolific",1,1,2023-05-10T22:01:28+00:00,13.419836997986,16,"updated stim.csv",Version16.csv,"Version 16","List 16",,,,,,,0,Instruct,-,10,"In this section, you will be presented with a series of objects. Please name as many possible uses for this object as you can think of by typing them in the box below each object.",,Instruct1,13172,,,-1,-1,,,,,1
5ec7f028756dc00aed5b605b,rum1uefazx,"Affordance Norms_Prolific",1,2,2023-05-10T22:01:42+00:00,14.022125005722,16,"updated stim.csv",Version16.csv,"Version 16","List 16",,,,,,,0,Instruct,-,10,"Please keep in mind that a single object will have more than one use. For example, a ball can be thrown or can be bounced or even stepped on. When listing multiple uses for one object, please separate each use with a comma (i.e., thrown, bounced, stepped on)",,Instruct2,13674,,,-1,-1,,,,,1
5ec7f028756dc00aed5b605b,rum1uefazx,"Affordance Norms_Prolific",1,3,2023-05-10T22:01:47+00:00,5.889270067215,16,"updated stim.csv",Version16.csv,"Version 16","List 16",,,,,,,0,Instruct,-,-,"Before starting the experiment, you will complete a short practice sesstion. Press ENTER when you are ready to begin.",,Instruct3,5443,,,-1,-1,,,,,1
5ec7f028756dc00aed5b605b,rum1uefazx,"Affordance Norms_Prolific",1,4,2023-05-10T22:02:19+00:00,31.968816995621,16,"updated stim.csv",Version16.csv,"Version 16","List 16",saucer,,3005,5.777777778,2249,0.304808074,3006,BOI,-,-,"Please name all of the ways you could use this object. Keep in mind that one object can have many uses. Separate your responses with a comma.",,n,31570,,,6574,30107,,,,"throwing, cup, sweet, space",1
5ec7f028756dc00aed5b605b,rum1uefazx,"Affordance Norms_Prolific",1,5,2023-05-10T22:02:42+00:00,22.989789009094,16,"updated stim.csv",Version16.csv,"Version 16","List 16",paperwork,,3001,5.625,1866,0.124284162,3002,BOI,-,-,"Please name all of the ways you could use this object. Keep in mind that one object can have many uses. Separate your responses with a comma.",,n,22655,,,7814,21249,,,,"job, file, ",1
5ec7f028756dc00aed5b605b,rum1uefazx,"Affordance Norms_Prolific",1,6,2023-05-10T22:03:00+00:00,17.174244880676,16,"updated stim.csv",Version16.csv,"Version 16","List 16",spaghetti,,3003,6,2461,0.090379998,3004,BOI,-,-,"Please name all of the ways you could use this object. Keep in mind that one object can have many uses. Separate your responses with a comma.",,n,16738,,,1963,15437,,,,"eat, make, cook, draw, craft",1
5ec7f028756dc00aed5b605b,rum1uefazx,"Affordance Norms_Prolific",1,7,2023-05-10T22:03:18+00:00,18.550306081772,16,"updated stim.csv",Version16.csv,"Version 16","List 16",grain,,3004,5.217391304,1143,0.226863762,3005,BOI,-,-,"Please name all of the ways you could use this object. Keep in mind that one object can have many uses. Separate your responses with a comma.",,n,18200,,,2541,16941,,,,"eat, cook, deliver, make",1
5ec7f028756dc00aed5b605b,rum1uefazx,"Affordance Norms_Prolific",1,8,2023-05-10T22:03:23+00:00,4.6444330215454,16,"updated stim.csv",Version16.csv,"Version 16","List 16",shortening,,3002,4.92,2358,0.604328482,3003,BOI,-,-,"Please name all of the ways you could use this object. Keep in mind that one object can have many uses. Separate your responses with a comma.",,n,4202,,,-1,-1,,,,,1
5ec7f028756dc00aed5b605b,rum1uefazx,"Affordance Norms_Prolific",1,9,2023-05-10T22:03:25+00:00,2.7140839099884,16,"updated stim.csv",Version16.csv,"Version 16","List 16",,,,,,,0,Instruct,-,-,"You have completed this section. Press ENTER to continue",,"Instruct 5",2326,,,-1,-1,,,,,1
5ec7f028756dc00aed5b605b,rum1uefazx,"Affordance Norms_Prolific",1,10,2023-05-10T22:03:29+00:00,3.7387220859528,16,"updated stim.csv",Version16.csv,"Version 16","List 16",,,,,,,0,Instruct,-,-,"You will now start the full experiment. Press ENTER when you are ready to begin.",,,3275,,,-1,-1,,,,,1
5ec7f028756dc00aed5b605b,rum1uefazx,"Affordance Norms_Prolific",1,11,2023-05-10T22:03:55+00:00,26.009807825089,16,"updated stim.csv",Version16.csv,"Version 16","List 16",scientist,,456,4.47826087,2274,0.507361683,457,BOI,-,-,"Please name all of the ways you could use this object. Keep in mind that one object can have many uses. Separate your responses with a comma.",,y,25655,,,6644,23697,,,,"experiments, teaching, exploring ",1
5ec7f028756dc00aed5b605b,rum1uefazx,"Affordance Norms_Prolific",1,12,2023-05-10T22:04:08+00:00,12.832415103912,16,"updated stim.csv",Version16.csv,"Version 16","List 16",mutton,,474,5,1729,0.300420837,475,BOI,-,-,"Please name all of the ways you could use this object. Keep in mind that one object can have many uses. Separate your responses with a comma.",,y,12419,,,3386,11241,,,,"clothing, food, sales",1
5ec7f028756dc00aed5b605b,rum1uefazx,"Affordance Norms_Prolific",1,13,2023-05-10T22:05:31+00:00,82.702620983124,16,"updated stim.csv",Version16.csv,"Version 16","List 16",thigh,,454,5.76,2680,0.793867773,455,BOI,-,-,"Please name all of the ways you could use this object. Keep in mind that one object can have many uses. Separate your responses with a comma.",,y,82248,,,64543,73293,,,,"chicken, person, food,",1
5ec7f028756dc00aed5b605b,rum1uefazx,"Affordance Norms_Prolific",1,14,2023-05-10T22:05:49+00:00,17.980432033539,16,"updated stim.csv",Version16.csv,"Version 16","List 16",easel,,470,4.72,885,0.908131854,471,BOI,-,-,"Please name all of the ways you could use this object. Keep in mind that one object can have many uses. Separate your responses with a comma.",,y,17563,,,2240,15459,,,,"painting, drawring, ",1
5ec7f028756dc00aed5b605b,rum1uefazx,"Affordance Norms_Prolific",1,15,2023-05-10T22:06:11+00:00,22.178647041321,16,"updated stim.csv",Version16.csv,"Version 16","List 16",bayonet,,471,4.916666667,174,0.190081034,472,BOI,-,-,"Please name all of the ways you could use this object. Keep in mind that one object can have many uses. Separate your responses with a comma.",,y,21720,,,2878,20318,,,,"war, stabbing, rifle, army",1
5ec7f028756dc00aed5b605b,rum1uefazx,"Affordance Norms_Prolific",1,16,2023-05-10T22:06:41+00:00,29.673290967941,16,"updated stim.csv",Version16.csv,"Version 16","List 16",nickel,,467,5.814814815,1766,0.592286248,468,BOI,-,-,"Please name all of the ways you could use this object. Keep in mind that one object can have many uses. Separate your responses with a comma.",,y,29267,,,3646,18368,,,,"metal, jewelery, ",1
5ec7f028756dc00aed5b605b,rum1uefazx,"Affordance Norms_Prolific",1,17,2023-05-10T22:06:57+00:00,16.327800035477,16,"updated stim.csv",Version16.csv,"Version 16","List 16",spatula,,461,5.708333333,2463,0.284019134,462,BOI,-,-,"Please name all of the ways you could use this object. Keep in mind that one object can have many uses. Separate your responses with a comma.",,y,15903,,,2060,14884,,,,"cooking, spanking, flipping",1
5ec7f028756dc00aed5b605b,rum1uefazx,"Affordance Norms_Prolific",1,18,2023-05-10T22:07:36+00:00,39.122042894363,16,"updated stim.csv",Version16.csv,"Version 16","List 16",lake,,465,5.035714286,1452,0.957672416,466,BOI,-,-,"Please name all of the ways you could use this object. Keep in mind that one object can have many uses. Separate your responses with a comma.",,y,38747,,,1668,37434,,,,"swimming, boating, viewing, home for wildlife",1
5ec7f028756dc00aed5b605b,rum1uefazx,"Affordance Norms_Prolific",1,19,2023-05-10T22:07:57+00:00,20.547379970551,16,"updated stim.csv",Version16.csv,"Version 16","List 16",collar,,469,5.12,600,0.026191584,470,BOI,-,-,"Please name all of the ways you could use this object. Keep in mind that one object can have many uses. Separate your responses with a comma.",,y,20174,,,2974,18219,,,,"shirt, warm neck, priest ",1
5ec7f028756dc00aed5b605b,rum1uefazx,"Affordance Norms_Prolific",1,20,2023-05-10T22:08:18+00:00,21.668236017227,16,"updated stim.csv",Version16.csv,"Version 16","List 16",jean,,477,5.956521739,1378,0.274659644,478,BOI,-,-,"Please name all of the ways you could use this object. Keep in mind that one object can have many uses. Separate your responses with a comma.",,y,21264,,,5851,19851,,,,"clothing, legs, warmth",1
5ec7f028756dc00aed5b605b,rum1uefazx,"Affordance Norms_Prolific",1,21,2023-05-10T22:08:52+00:00,33.319285154343,16,"updated stim.csv",Version16.csv,"Version 16","List 16",paintbox,,478,4.44,1848,0.023317079,479,BOI,-,-,"Please name all of the ways you could use this object. Keep in mind that one object can have many uses. Separate your responses with a comma.",,y,32863,,,5942,31746,,,,"colouring, drawing, imagination",1
5ec7f028756dc00aed5b605b,rum1uefazx,"Affordance Norms_Prolific",1,22,2023-05-10T22:09:52+00:00,60.273285865784,16,"updated stim.csv",Version16.csv,"Version 16","List 16",satin,,455,5.125,2246,0.101934862,456,BOI,-,-,"Please name all of the ways you could use this object. Keep in mind that one object can have many uses. Separate your responses with a comma.",,y,59810,,,46584,58624,,,,"clothing, fabric",1
5ec7f028756dc00aed5b605b,rum1uefazx,"Affordance Norms_Prolific",1,23,2023-05-10T22:10:11+00:00,19.156217098236,16,"updated stim.csv",Version16.csv,"Version 16","List 16",coal,,458,4.875,579,0.494851678,459,BOI,-,-,"Please name all of the ways you could use this object. Keep in mind that one object can have many uses. Separate your responses with a comma.",,y,18717,,,2593,17364,,,,"fire, fuel, cooking on coal,",1
5ec7f028756dc00aed5b605b,rum1uefazx,"Affordance Norms_Prolific",1,24,2023-05-10T22:10:13+00:00,2.1563408374786,16,"updated stim.csv",Version16.csv,"Version 16","List 16",stoop,,473,4.5,2548,0.965520337,474,BOI,-,-,"Please name all of the ways you could use this object. Keep in mind that one object can have many uses. Separate your responses with a comma.",,y,1718,,,-1,-1,,,,,1
5ec7f028756dc00aed5b605b,rum1uefazx,"Affordance Norms_Prolific",1,25,2023-05-10T22:10:19+00:00,6.1058959960938,16,"updated stim.csv",Version16.csv,"Version 16","List 16",lip,,463,5.52173913,1521,0.029003979,464,BOI,-,-,"Please name all of the ways you could use this object. Keep in mind that one object can have many uses. Separate your responses with a comma.",,y,5675,,,2563,4481,,,,"mouth, ",1
5ec7f028756dc00aed5b605b,rum1uefazx,"Affordance Norms_Prolific",1,26,2023-05-10T22:10:38+00:00,18.836705207825,16,"updated stim.csv",Version16.csv,"Version 16","List 16",note,,459,5.434782609,1781,0.11652109,460,BOI,-,-,"Please name all of the ways you could use this object. Keep in mind that one object can have many uses. Separate your responses with a comma.",,y,18377,,,1764,17350,,,,"writing information needed to remind you",1
5ec7f028756dc00aed5b605b,rum1uefazx,"Affordance Norms_Prolific",1,27,2023-05-10T22:10:49+00:00,11.254807949066,16,"updated stim.csv",Version16.csv,"Version 16","List 16",cellar,,476,4.6,472,0.992638044,477,BOI,-,-,"Please name all of the ways you could use this object. Keep in mind that one object can have many uses. Separate your responses with a comma.",,y,10875,,,2472,9117,,,,"store, shelter",1
5ec7f028756dc00aed5b605b,rum1uefazx,"Affordance Norms_Prolific",1,28,2023-05-10T22:10:58+00:00,8.7243549823761,16,"updated stim.csv",Version16.csv,"Version 16","List 16",cocaine,,468,5.913043478,585,0.903342053,469,BOI,-,-,"Please name all of the ways you could use this object. Keep in mind that one object can have many uses. Separate your responses with a comma.",,y,8341,,,1915,4055,,,,"drug, ",1
5ec7f028756dc00aed5b605b,rum1uefazx,"Affordance Norms_Prolific",1,29,2023-05-10T22:11:21+00:00,23.366575956345,16,"updated stim.csv",Version16.csv,"Version 16","List 16",linen,,462,5.875,1517,0.282871373,463,BOI,-,-,"Please name all of the ways you could use this object. Keep in mind that one object can have many uses. Separate your responses with a comma.",,y,22889,,,9934,21589,,,,"material, sowing, ",1
5ec7f028756dc00aed5b605b,rum1uefazx,"Affordance Norms_Prolific",1,30,2023-05-10T22:11:34+00:00,12.92653298378,16,"updated stim.csv",Version16.csv,"Version 16","List 16",soap,,452,6.434782609,2437,0.273714235,453,BOI,-,-,"Please name all of the ways you could use this object. Keep in mind that one object can have many uses. Separate your responses with a comma.",,y,12483,,,1581,11504,,,,"washing, cleaning, smell",1
5ec7f028756dc00aed5b605b,rum1uefazx,"Affordance Norms_Prolific",1,31,2023-05-10T22:11:37+00:00,2.4002559185028,16,"updated stim.csv",Version16.csv,"Version 16","List 16",paraphernalia,,472,4.5,1871,0.999105159,473,BOI,-,-,"Please name all of the ways you could use this object. Keep in mind that one object can have many uses. Separate your responses with a comma.",,y,1979,,,-1,-1,,,,,1
5ec7f028756dc00aed5b605b,rum1uefazx,"Affordance Norms_Prolific",1,32,2023-05-10T22:11:39+00:00,1.9012169837952,16,"updated stim.csv",Version16.csv,"Version 16","List 16",mortician,,451,4.833333333,1686,0.045579899,452,BOI,-,-,"Please name all of the ways you could use this object. Keep in mind that one object can have many uses. Separate your responses with a comma.",,y,1416,,,-1,-1,,,,,1
5ec7f028756dc00aed5b605b,rum1uefazx,"Affordance Norms_Prolific",1,33,2023-05-10T22:11:41+00:00,2.4308540821075,16,"updated stim.csv",Version16.csv,"Version 16","List 16",raindrop,,460,5.208333333,2131,0.395585786,461,BOI,-,-,"Please name all of the ways you could use this object. Keep in mind that one object can have many uses. Separate your responses with a comma.",,y,2066,,,-1,-1,,,,,1
5ec7f028756dc00aed5b605b,rum1uefazx,"Affordance Norms_Prolific",1,34,2023-05-10T22:11:52+00:00,10.932958126068,16,"updated stim.csv",Version16.csv,"Version 16","List 16",apprentice,,466,4.321428571,65,0.613222279,467,BOI,-,-,"Please name all of the ways you could use this object. Keep in mind that one object can have many uses. Separate your responses with a comma.",,y,10498,,,3448,10280,,,,"work , teaching",1
5ec7f028756dc00aed5b605b,rum1uefazx,"Affordance Norms_Prolific",1,35,2023-05-10T22:11:59+00:00,7.0559840202332,16,"updated stim.csv",Version16.csv,"Version 16","List 16",checklist,,457,4.464285714,501,0.535152959,458,BOI,-,-,"Please name all of the ways you could use this object. Keep in mind that one object can have many uses. Separate your responses with a comma.",,y,6692,,,3250,5190,,,,"shopping ",1
5ec7f028756dc00aed5b605b,rum1uefazx,"Affordance Norms_Prolific",1,36,2023-05-10T22:12:20+00:00,20.95667886734,16,"updated stim.csv",Version16.csv,"Version 16","List 16",pole,,475,5.32,2020,0.760021962,476,BOI,-,-,"Please name all of the ways you could use this object. Keep in mind that one object can have many uses. Separate your responses with a comma.",,y,20575,,,9658,19234,,,,"light, fishing, flag, cctv",1
5ec7f028756dc00aed5b605b,rum1uefazx,"Affordance Norms_Prolific",1,37,2023-05-10T22:12:22+00:00,1.9847099781036,16,"updated stim.csv",Version16.csv,"Version 16","List 16",rupee,,480,4.826086957,2208,0.272774302,481,BOI,-,-,"Please name all of the ways you could use this object. Keep in mind that one object can have many uses. Separate your responses with a comma.",,y,1566,,,-1,-1,,,,,1
5ec7f028756dc00aed5b605b,rum1uefazx,"Affordance Norms_Prolific",1,38,2023-05-10T22:12:30+00:00,7.6515190601349,16,"updated stim.csv",Version16.csv,"Version 16","List 16",genital,,464,5.826086957,1095,0.838010994,465,BOI,-,-,"Please name all of the ways you could use this object. Keep in mind that one object can have many uses. Separate your responses with a comma.",,y,7163,,,3806,5842,,,,reproduction,1
5ec7f028756dc00aed5b605b,rum1uefazx,"Affordance Norms_Prolific",1,39,2023-05-10T22:12:43+00:00,13.804619073868,16,"updated stim.csv",Version16.csv,"Version 16","List 16",sardine,,453,4.869565217,2242,0.892913517,454,BOI,-,-,"Please name all of the ways you could use this object. Keep in mind that one object can have many uses. Separate your responses with a comma.",,y,13463,,,2050,11366,,,,"tin, fish, fresh, fisherman ",1
5ec7f028756dc00aed5b605b,rum1uefazx,"Affordance Norms_Prolific",1,40,2023-05-10T22:13:00+00:00,16.091423988342,16,"updated stim.csv",Version16.csv,"Version 16","List 16",policewoman,,479,4.904761905,2023,0.204056132,480,BOI,-,-,"Please name all of the ways you could use this object. Keep in mind that one object can have many uses. Separate your responses with a comma.",,y,15668,,,8278,13242,,,,"shes not an object",1
5ec7f028756dc00aed5b605b,rum1uefazx,"Affordance Norms_Prolific",1,41,2023-05-10T22:13:03+00:00,3.4215958118439,16,"updated stim.csv",Version16.csv,"Version 16","List 16",,,,,,,0,Instruct,,,"You will now be asked a few questions about your experience today.",,"Instruct 4",3012,,,-1,-1,,,,,1
