Username,ID,ExperimentName,Session,Trial,Date,TimeDif,"Condition Number","Stimuli File","Order File","Condition Description","Condition Notes",Stimuli*Cue,Stimuli*Answer,Stimuli*Shuffle,"Stimuli*Stimuli Notes",Stimuli*Value,Stimuli*Rand,Procedure*Item,"Procedure*Trial Type","Procedure*Max Time","Procedure*Min Time",Procedure*Text,"Procedure*Procedure Notes",Procedure*Shuffle,Response*RT,Response*Response,Response*Accuracy,Response*RTfirst,Response*RTlast,Response*strictAcc,Response*lenientAcc,Response*focus,Response*JOL,Response*Focus
62db2644ab0a3a353c0dcb54,0yxx6ne32c,"Affordance Norms_Prolific",1,1,2023-05-11T00:18:45+00:00,11.406773090363,63,"updated stim.csv",Version63.csv,"Version 63","List 63",,,,,,,0,Instruct,-,10,"In this section, you will be presented with a series of objects. Please name as many possible uses for this object as you can think of by typing them in the box below each object.",,Instruct1,11205,,,-1,-1,,,,,1
62db2644ab0a3a353c0dcb54,0yxx6ne32c,"Affordance Norms_Prolific",1,2,2023-05-11T00:18:56+00:00,10.903441905975,63,"updated stim.csv",Version63.csv,"Version 63","List 63",,,,,,,0,Instruct,-,10,"Please keep in mind that a single object will have more than one use. For example, a ball can be thrown or can be bounced or even stepped on. When listing multiple uses for one object, please separate each use with a comma (i.e., thrown, bounced, stepped on)",,Instruct2,10521,,,-1,-1,,,,,1
62db2644ab0a3a353c0dcb54,0yxx6ne32c,"Affordance Norms_Prolific",1,3,2023-05-11T00:18:58+00:00,2.600368976593,63,"updated stim.csv",Version63.csv,"Version 63","List 63",,,,,,,0,Instruct,-,-,"Before starting the experiment, you will complete a short practice sesstion. Press ENTER when you are ready to begin.",,Instruct3,2225,,,-1,-1,,,,,1
62db2644ab0a3a353c0dcb54,0yxx6ne32c,"Affordance Norms_Prolific",1,4,2023-05-11T00:19:17+00:00,19.073250055313,63,"updated stim.csv",Version63.csv,"Version 63","List 63",spaghetti,,3003,6,2461,0.090379998,3004,BOI,-,-,"Please name all of the ways you could use this object. Keep in mind that one object can have many uses. Separate your responses with a comma.",,n,18657,,,1652,17170,,,,"boiled, fried, eaten, sauced",1
62db2644ab0a3a353c0dcb54,0yxx6ne32c,"Affordance Norms_Prolific",1,5,2023-05-11T00:19:24+00:00,7.0056719779968,63,"updated stim.csv",Version63.csv,"Version 63","List 63",shortening,,3002,4.92,2358,0.604328482,3003,BOI,-,-,"Please name all of the ways you could use this object. Keep in mind that one object can have many uses. Separate your responses with a comma.",,n,6630,,,4864,5824,,,,"no idea",1
62db2644ab0a3a353c0dcb54,0yxx6ne32c,"Affordance Norms_Prolific",1,6,2023-05-11T00:19:34+00:00,9.6646831035614,63,"updated stim.csv",Version63.csv,"Version 63","List 63",grain,,3004,5.217391304,1143,0.226863762,3005,BOI,-,-,"Please name all of the ways you could use this object. Keep in mind that one object can have many uses. Separate your responses with a comma.",,n,9277,,,3134,7713,,,,"grown, mixed, eaten",1
62db2644ab0a3a353c0dcb54,0yxx6ne32c,"Affordance Norms_Prolific",1,7,2023-05-11T00:19:57+00:00,22.567363023758,63,"updated stim.csv",Version63.csv,"Version 63","List 63",saucer,,3005,5.777777778,2249,0.304808074,3006,BOI,-,-,"Please name all of the ways you could use this object. Keep in mind that one object can have many uses. Separate your responses with a comma.",,n,22195,,,3094,21012,,,,"banged, heated, cooking utensil",1
62db2644ab0a3a353c0dcb54,0yxx6ne32c,"Affordance Norms_Prolific",1,8,2023-05-11T00:20:13+00:00,16.577028989792,63,"updated stim.csv",Version63.csv,"Version 63","List 63",paperwork,,3001,5.625,1866,0.124284162,3002,BOI,-,-,"Please name all of the ways you could use this object. Keep in mind that one object can have many uses. Separate your responses with a comma.",,n,16177,,,1614,15256,,,,"written on, made into plane, scrunched, folded",1
62db2644ab0a3a353c0dcb54,0yxx6ne32c,"Affordance Norms_Prolific",1,9,2023-05-11T00:20:15+00:00,1.8871049880981,63,"updated stim.csv",Version63.csv,"Version 63","List 63",,,,,,,0,Instruct,-,-,"You have completed this section. Press ENTER to continue",,"Instruct 5",1496,,,-1,-1,,,,,1
62db2644ab0a3a353c0dcb54,0yxx6ne32c,"Affordance Norms_Prolific",1,10,2023-05-11T00:20:19+00:00,4.1831159591675,63,"updated stim.csv",Version63.csv,"Version 63","List 63",,,,,,,0,Instruct,-,-,"You will now start the full experiment. Press ENTER when you are ready to begin.",,,3789,,,-1,-1,,,,,1
62db2644ab0a3a353c0dcb54,0yxx6ne32c,"Affordance Norms_Prolific",1,11,2023-05-11T00:20:35+00:00,15.335103034973,63,"updated stim.csv",Version63.csv,"Version 63","List 63",chevy,,1889,4.956521739,515,0.639686851,1890,BOI,-,-,"Please name all of the ways you could use this object. Keep in mind that one object can have many uses. Separate your responses with a comma.",,y,14943,,,2117,13927,,,,"driven, painted, raced",1
62db2644ab0a3a353c0dcb54,0yxx6ne32c,"Affordance Norms_Prolific",1,12,2023-05-11T00:20:47+00:00,11.847311019897,63,"updated stim.csv",Version63.csv,"Version 63","List 63",pepperoni,,1882,5.875,1924,0.806387538,1883,BOI,-,-,"Please name all of the ways you could use this object. Keep in mind that one object can have many uses. Separate your responses with a comma.",,y,11432,,,1482,9752,,,,"eaten, used on pizza, cooked",1
62db2644ab0a3a353c0dcb54,0yxx6ne32c,"Affordance Norms_Prolific",1,13,2023-05-11T00:20:54+00:00,7.9862778186798,63,"updated stim.csv",Version63.csv,"Version 63","List 63",noodle,,1874,6.24,1776,0.506850857,1875,BOI,-,-,"Please name all of the ways you could use this object. Keep in mind that one object can have many uses. Separate your responses with a comma.",,y,7589,,,2121,6545,,,,"boiled, fried, cooked, eaten",1
62db2644ab0a3a353c0dcb54,0yxx6ne32c,"Affordance Norms_Prolific",1,14,2023-05-11T00:21:12+00:00,17.551742076874,63,"updated stim.csv",Version63.csv,"Version 63","List 63",pilot,,1888,4.52173913,1964,0.883513781,1889,BOI,-,-,"Please name all of the ways you could use this object. Keep in mind that one object can have many uses. Separate your responses with a comma.",,y,17145,,,14168,16080,,,,"no idea?",1
62db2644ab0a3a353c0dcb54,0yxx6ne32c,"Affordance Norms_Prolific",1,15,2023-05-11T00:21:16+00:00,4.2217319011688,63,"updated stim.csv",Version63.csv,"Version 63","List 63",headpiece,,1877,5.347826087,1270,0.779046176,1878,BOI,-,-,"Please name all of the ways you could use this object. Keep in mind that one object can have many uses. Separate your responses with a comma.",,y,3831,,,1890,2546,,,,worn,1
62db2644ab0a3a353c0dcb54,0yxx6ne32c,"Affordance Norms_Prolific",1,16,2023-05-11T00:21:35+00:00,19.109426021576,63,"updated stim.csv",Version63.csv,"Version 63","List 63",calculator,,1878,6.24,400,0.593522466,1879,BOI,-,-,"Please name all of the ways you could use this object. Keep in mind that one object can have many uses. Separate your responses with a comma.",,y,18725,,,4226,17928,,,,"calculation solving, banged, stepped on",1
62db2644ab0a3a353c0dcb54,0yxx6ne32c,"Affordance Norms_Prolific",1,17,2023-05-11T00:21:45+00:00,9.3493371009827,63,"updated stim.csv",Version63.csv,"Version 63","List 63",dough,,1887,6.086956522,833,0.768311203,1888,BOI,-,-,"Please name all of the ways you could use this object. Keep in mind that one object can have many uses. Separate your responses with a comma.",,y,8950,,,1676,6876,,,,"rolled, kneeded, baked",1
62db2644ab0a3a353c0dcb54,0yxx6ne32c,"Affordance Norms_Prolific",1,18,2023-05-11T00:21:54+00:00,9.0267961025238,63,"updated stim.csv",Version63.csv,"Version 63","List 63",sledgehammer,,1881,5.916666667,2408,0.17242402,1882,BOI,-,-,"Please name all of the ways you could use this object. Keep in mind that one object can have many uses. Separate your responses with a comma.",,y,8644,,,2265,7809,,,,"smash, bang, hammer",1
62db2644ab0a3a353c0dcb54,0yxx6ne32c,"Affordance Norms_Prolific",1,19,2023-05-11T00:22:04+00:00,9.7549729347229,63,"updated stim.csv",Version63.csv,"Version 63","List 63",headlight,,1868,4.538461538,1267,0.957296127,1869,BOI,-,-,"Please name all of the ways you could use this object. Keep in mind that one object can have many uses. Separate your responses with a comma.",,y,9368,,,1779,8161,,,,"shine, illuminate",1
62db2644ab0a3a353c0dcb54,0yxx6ne32c,"Affordance Norms_Prolific",1,20,2023-05-11T00:22:12+00:00,8.8085730075836,63,"updated stim.csv",Version63.csv,"Version 63","List 63",vomit,,1867,4.666666667,2874,0.511624602,1868,BOI,-,-,"Please name all of the ways you could use this object. Keep in mind that one object can have many uses. Separate your responses with a comma.",,y,8416,,,5216,7041,,,,"clean it up!",1
62db2644ab0a3a353c0dcb54,0yxx6ne32c,"Affordance Norms_Prolific",1,21,2023-05-11T00:22:23+00:00,10.444233894348,63,"updated stim.csv",Version63.csv,"Version 63","List 63",sheepdog,,1865,5.375,2329,0.598176143,1866,BOI,-,-,"Please name all of the ways you could use this object. Keep in mind that one object can have many uses. Separate your responses with a comma.",,y,10048,,,1915,9075,,,,"train, call, pet",1
62db2644ab0a3a353c0dcb54,0yxx6ne32c,"Affordance Norms_Prolific",1,22,2023-05-11T00:22:32+00:00,8.8482890129089,63,"updated stim.csv",Version63.csv,"Version 63","List 63",cauliflower,,1863,5.269230769,466,0.493955035,1864,BOI,-,-,"Please name all of the ways you could use this object. Keep in mind that one object can have many uses. Separate your responses with a comma.",,y,8450,,,2900,7740,,,,"boil, fry, cook, blanch",1
62db2644ab0a3a353c0dcb54,0yxx6ne32c,"Affordance Norms_Prolific",1,23,2023-05-11T00:22:43+00:00,11.885026931763,63,"updated stim.csv",Version63.csv,"Version 63","List 63",pebble,,1866,5.47826087,1898,0.093159647,1867,BOI,-,-,"Please name all of the ways you could use this object. Keep in mind that one object can have many uses. Separate your responses with a comma.",,y,11492,,,2173,10701,,,,"throw, skip, smash",1
62db2644ab0a3a353c0dcb54,0yxx6ne32c,"Affordance Norms_Prolific",1,24,2023-05-11T00:22:53+00:00,9.6242260932922,63,"updated stim.csv",Version63.csv,"Version 63","List 63",hamper,,1869,4.4,1225,0.499824986,1870,BOI,-,-,"Please name all of the ways you could use this object. Keep in mind that one object can have many uses. Separate your responses with a comma.",,y,9236,,,3036,8236,,,,"eat, present",1
62db2644ab0a3a353c0dcb54,0yxx6ne32c,"Affordance Norms_Prolific",1,25,2023-05-11T00:23:06+00:00,13.121968984604,63,"updated stim.csv",Version63.csv,"Version 63","List 63",firearm,,1861,5.814814815,983,0.894116046,1862,BOI,-,-,"Please name all of the ways you could use this object. Keep in mind that one object can have many uses. Separate your responses with a comma.",,y,12717,,,3514,11970,,,,"fire, disarm, practice",1
62db2644ab0a3a353c0dcb54,0yxx6ne32c,"Affordance Norms_Prolific",1,26,2023-05-11T00:23:16+00:00,9.505126953125,63,"updated stim.csv",Version63.csv,"Version 63","List 63",scarecrow,,1864,5,2267,0.916651033,1865,BOI,-,-,"Please name all of the ways you could use this object. Keep in mind that one object can have many uses. Separate your responses with a comma.",,y,9109,,,4710,7806,,,,"kick, tear",1
62db2644ab0a3a353c0dcb54,0yxx6ne32c,"Affordance Norms_Prolific",1,27,2023-05-11T00:23:21+00:00,5.2136850357056,63,"updated stim.csv",Version63.csv,"Version 63","List 63",margarine,,1880,5.56,1604,0.934081327,1881,BOI,-,-,"Please name all of the ways you could use this object. Keep in mind that one object can have many uses. Separate your responses with a comma.",,y,4805,,,1323,4131,,,,"eat, spread",1
62db2644ab0a3a353c0dcb54,0yxx6ne32c,"Affordance Norms_Prolific",1,28,2023-05-11T00:23:31+00:00,10.080579996109,63,"updated stim.csv",Version63.csv,"Version 63","List 63",wench,,1871,4.956521739,2919,0.906733623,1872,BOI,-,-,"Please name all of the ways you could use this object. Keep in mind that one object can have many uses. Separate your responses with a comma.",,y,9709,,,7149,8853,,,,"don't know",1
62db2644ab0a3a353c0dcb54,0yxx6ne32c,"Affordance Norms_Prolific",1,29,2023-05-11T00:23:44+00:00,13.128442049026,63,"updated stim.csv",Version63.csv,"Version 63","List 63",wineglass,,1890,6.416666667,2948,0.237036115,1891,BOI,-,-,"Please name all of the ways you could use this object. Keep in mind that one object can have many uses. Separate your responses with a comma.",,y,12749,,,5904,11751,,,,"tap, drink from, fill",1
62db2644ab0a3a353c0dcb54,0yxx6ne32c,"Affordance Norms_Prolific",1,30,2023-05-11T00:24:19+00:00,35.077595949173,63,"updated stim.csv",Version63.csv,"Version 63","List 63",flag,,1886,5.851851852,995,0.828452377,1887,BOI,-,-,"Please name all of the ways you could use this object. Keep in mind that one object can have many uses. Separate your responses with a comma.",,y,34683,,,29015,32007,,,,"plant, wave",1
62db2644ab0a3a353c0dcb54,0yxx6ne32c,"Affordance Norms_Prolific",1,31,2023-05-11T00:24:31+00:00,11.757801055908,63,"updated stim.csv",Version63.csv,"Version 63","List 63",dandelion,,1873,5.826086957,755,0.087062587,1874,BOI,-,-,"Please name all of the ways you could use this object. Keep in mind that one object can have many uses. Separate your responses with a comma.",,y,11351,,,2657,10777,,,,"blow, present, rip",1
62db2644ab0a3a353c0dcb54,0yxx6ne32c,"Affordance Norms_Prolific",1,32,2023-05-11T00:24:37+00:00,5.6813368797302,63,"updated stim.csv",Version63.csv,"Version 63","List 63",underclothes,,1862,6,2819,0.775978801,1863,BOI,-,-,"Please name all of the ways you could use this object. Keep in mind that one object can have many uses. Separate your responses with a comma.",,y,5290,,,1497,4426,,,,"wear, remove",1
62db2644ab0a3a353c0dcb54,0yxx6ne32c,"Affordance Norms_Prolific",1,33,2023-05-11T00:24:42+00:00,5.5724050998688,63,"updated stim.csv",Version63.csv,"Version 63","List 63",fiancee,,1872,5.652173913,969,0.103119855,1873,BOI,-,-,"Please name all of the ways you could use this object. Keep in mind that one object can have many uses. Separate your responses with a comma.",,y,5184,,,1727,3575,,,,"kiss, marry",1
62db2644ab0a3a353c0dcb54,0yxx6ne32c,"Affordance Norms_Prolific",1,34,2023-05-11T00:24:51+00:00,8.3776340484619,63,"updated stim.csv",Version63.csv,"Version 63","List 63",hardwood,,1876,5.076923077,1250,0.122818434,1877,BOI,-,-,"Please name all of the ways you could use this object. Keep in mind that one object can have many uses. Separate your responses with a comma.",,y,7985,,,4253,5997,,,,"bang, tap",1
62db2644ab0a3a353c0dcb54,0yxx6ne32c,"Affordance Norms_Prolific",1,35,2023-05-11T00:24:58+00:00,6.9277579784393,63,"updated stim.csv",Version63.csv,"Version 63","List 63",him,,1879,4.47826087,1289,0.333565692,1880,BOI,-,-,"Please name all of the ways you could use this object. Keep in mind that one object can have many uses. Separate your responses with a comma.",,y,6546,,,4818,5703,,,,"no idea",1
62db2644ab0a3a353c0dcb54,0yxx6ne32c,"Affordance Norms_Prolific",1,36,2023-05-11T00:25:04+00:00,6.0724139213562,63,"updated stim.csv",Version63.csv,"Version 63","List 63",storybook,,1884,5.703703704,2554,0.400238446,1885,BOI,-,-,"Please name all of the ways you could use this object. Keep in mind that one object can have many uses. Separate your responses with a comma.",,y,5672,,,1673,3385,,,,"read, learn",1
62db2644ab0a3a353c0dcb54,0yxx6ne32c,"Affordance Norms_Prolific",1,37,2023-05-11T00:25:15+00:00,11.687633991241,63,"updated stim.csv",Version63.csv,"Version 63","List 63",trainee,,1883,4.72,2757,0.111120288,1884,BOI,-,-,"Please name all of the ways you could use this object. Keep in mind that one object can have many uses. Separate your responses with a comma.",,y,11297,,,2283,10361,,,,"train, practice, encourage",1
62db2644ab0a3a353c0dcb54,0yxx6ne32c,"Affordance Norms_Prolific",1,38,2023-05-11T00:25:21+00:00,5.8718140125275,63,"updated stim.csv",Version63.csv,"Version 63","List 63",grandnephew,,1875,5.08,1149,0.75238784,1876,BOI,-,-,"Please name all of the ways you could use this object. Keep in mind that one object can have many uses. Separate your responses with a comma.",,y,5483,,,2272,4632,,,,"play, teach",1
62db2644ab0a3a353c0dcb54,0yxx6ne32c,"Affordance Norms_Prolific",1,39,2023-05-11T00:25:31+00:00,9.3057150840759,63,"updated stim.csv",Version63.csv,"Version 63","List 63",page,,1885,4.96,1844,0.804197914,1886,BOI,-,-,"Please name all of the ways you could use this object. Keep in mind that one object can have many uses. Separate your responses with a comma.",,y,8937,,,1917,7663,,,,"turn, blow, rip",1
62db2644ab0a3a353c0dcb54,0yxx6ne32c,"Affordance Norms_Prolific",1,40,2023-05-11T00:26:11+00:00,40.491507053375,63,"updated stim.csv",Version63.csv,"Version 63","List 63",parent,,1870,5.04,1875,0.676805663,1871,BOI,-,-,"Please name all of the ways you could use this object. Keep in mind that one object can have many uses. Separate your responses with a comma.",,y,40114,,,28760,38453,,,,"love, cherish, nurture",1
62db2644ab0a3a353c0dcb54,0yxx6ne32c,"Affordance Norms_Prolific",1,41,2023-05-11T00:26:14+00:00,2.6776969432831,63,"updated stim.csv",Version63.csv,"Version 63","List 63",,,,,,,0,Instruct,,,"You will now be asked a few questions about your experience today.",,"Instruct 4",2248,,,-1,-1,,,,,1
