Username,ID,ExperimentName,Session,Trial,Date,TimeDif,"Condition Number","Stimuli File","Order File","Condition Description","Condition Notes",Stimuli*Cue,Stimuli*Answer,Stimuli*Shuffle,"Stimuli*Stimuli Notes",Stimuli*Value,Stimuli*Rand,Procedure*Item,"Procedure*Trial Type","Procedure*Max Time","Procedure*Min Time",Procedure*Text,"Procedure*Procedure Notes",Procedure*Shuffle,Response*RT,Response*Response,Response*Accuracy,Response*RTfirst,Response*RTlast,Response*strictAcc,Response*lenientAcc,Response*focus,Response*JOL,Response*Focus
5af2f6c0c36b060001f80163,78ojnfq8vc,"Affordance Norms_Prolific",1,1,2023-05-10T22:50:56+00:00,11.416928052902,29,"updated stim.csv",Version29.csv,"Version 29","List 29",,,,,,,0,Instruct,-,10,"In this section, you will be presented with a series of objects. Please name as many possible uses for this object as you can think of by typing them in the box below each object.",,Instruct1,10742,,,-1,-1,,,,,1
5af2f6c0c36b060001f80163,78ojnfq8vc,"Affordance Norms_Prolific",1,2,2023-05-10T22:51:09+00:00,12.56246304512,29,"updated stim.csv",Version29.csv,"Version 29","List 29",,,,,,,0,Instruct,-,10,"Please keep in mind that a single object will have more than one use. For example, a ball can be thrown or can be bounced or even stepped on. When listing multiple uses for one object, please separate each use with a comma (i.e., thrown, bounced, stepped on)",,Instruct2,11710,,,-1,-1,,,,,1
5af2f6c0c36b060001f80163,78ojnfq8vc,"Affordance Norms_Prolific",1,3,2023-05-10T22:52:06+00:00,57.827414035797,29,"updated stim.csv",Version29.csv,"Version 29","List 29",,,,,,,0,Instruct,-,-,"Before starting the experiment, you will complete a short practice sesstion. Press ENTER when you are ready to begin.",,Instruct3,56872,,,-1,-1,,,,,1
5af2f6c0c36b060001f80163,78ojnfq8vc,"Affordance Norms_Prolific",1,4,2023-05-10T22:52:26+00:00,19.106711864471,29,"updated stim.csv",Version29.csv,"Version 29","List 29",grain,,3004,5.217391304,1143,0.226863762,3005,BOI,-,-,"Please name all of the ways you could use this object. Keep in mind that one object can have many uses. Separate your responses with a comma.",,n,18139,,,4242,17370,,,,"milled, ground, harvested, eaten",1
5af2f6c0c36b060001f80163,78ojnfq8vc,"Affordance Norms_Prolific",1,5,2023-05-10T22:52:45+00:00,19.900660037994,29,"updated stim.csv",Version29.csv,"Version 29","List 29",shortening,,3002,4.92,2358,0.604328482,3003,BOI,-,-,"Please name all of the ways you could use this object. Keep in mind that one object can have many uses. Separate your responses with a comma.",,n,19006,,,3092,18510,,,,"cooked with, baked with, grease cake tins with",1
5af2f6c0c36b060001f80163,78ojnfq8vc,"Affordance Norms_Prolific",1,6,2023-05-10T22:53:01+00:00,15.121187925339,29,"updated stim.csv",Version29.csv,"Version 29","List 29",spaghetti,,3003,6,2461,0.090379998,3004,BOI,-,-,"Please name all of the ways you could use this object. Keep in mind that one object can have many uses. Separate your responses with a comma.",,n,14123,,,2050,13830,,,,"make a bolognese with it, boil it",1
5af2f6c0c36b060001f80163,78ojnfq8vc,"Affordance Norms_Prolific",1,7,2023-05-10T22:53:21+00:00,20.649327993393,29,"updated stim.csv",Version29.csv,"Version 29","List 29",saucer,,3005,5.777777778,2249,0.304808074,3006,BOI,-,-,"Please name all of the ways you could use this object. Keep in mind that one object can have many uses. Separate your responses with a comma.",,n,19742,,,1578,19468,,,,"put a teacup in it, use as a plate, put biscuits on",1
5af2f6c0c36b060001f80163,78ojnfq8vc,"Affordance Norms_Prolific",1,8,2023-05-10T22:53:41+00:00,19.998116016388,29,"updated stim.csv",Version29.csv,"Version 29","List 29",paperwork,,3001,5.625,1866,0.124284162,3002,BOI,-,-,"Please name all of the ways you could use this object. Keep in mind that one object can have many uses. Separate your responses with a comma.",,n,19076,,,10131,18939,,,,"submitting applications, driver licences, visas",1
5af2f6c0c36b060001f80163,78ojnfq8vc,"Affordance Norms_Prolific",1,9,2023-05-10T22:53:43+00:00,1.4688329696655,29,"updated stim.csv",Version29.csv,"Version 29","List 29",,,,,,,0,Instruct,-,-,"You have completed this section. Press ENTER to continue",,"Instruct 5",576,,,-1,-1,,,,,1
5af2f6c0c36b060001f80163,78ojnfq8vc,"Affordance Norms_Prolific",1,10,2023-05-10T22:53:45+00:00,2.1147141456604,29,"updated stim.csv",Version29.csv,"Version 29","List 29",,,,,,,0,Instruct,-,-,"You will now start the full experiment. Press ENTER when you are ready to begin.",,,1074,,,-1,-1,,,,,1
5af2f6c0c36b060001f80163,78ojnfq8vc,"Affordance Norms_Prolific",1,11,2023-05-10T22:53:59+00:00,14.338454008102,29,"updated stim.csv",Version29.csv,"Version 29","List 29",dartboard,,854,5.608695652,759,0.267211371,855,BOI,-,-,"Please name all of the ways you could use this object. Keep in mind that one object can have many uses. Separate your responses with a comma.",,y,13463,,,2140,7859,,,,"throw darts at",1
5af2f6c0c36b060001f80163,78ojnfq8vc,"Affordance Norms_Prolific",1,12,2023-05-10T22:54:10+00:00,10.883661031723,29,"updated stim.csv",Version29.csv,"Version 29","List 29",chinchilla,,846,4.925925926,528,0.932461993,847,BOI,-,-,"Please name all of the ways you could use this object. Keep in mind that one object can have many uses. Separate your responses with a comma.",,y,9991,,,2597,9405,,,,"played with, adopted, taught tricks",1
5af2f6c0c36b060001f80163,78ojnfq8vc,"Affordance Norms_Prolific",1,13,2023-05-10T22:54:41+00:00,31.236828804016,29,"updated stim.csv",Version29.csv,"Version 29","List 29",reefer,,853,4.52173913,2151,0.532492067,854,BOI,-,-,"Please name all of the ways you could use this object. Keep in mind that one object can have many uses. Separate your responses with a comma.",,y,30327,,,23066,30078,,,,"smoked, used in food",0.953
5af2f6c0c36b060001f80163,78ojnfq8vc,"Affordance Norms_Prolific",1,14,2023-05-10T22:54:53+00:00,12.048845052719,29,"updated stim.csv",Version29.csv,"Version 29","List 29",loo,,868,4.952380952,1547,0.944259023,869,BOI,-,-,"Please name all of the ways you could use this object. Keep in mind that one object can have many uses. Separate your responses with a comma.",,y,11154,,,2033,10590,,,,"flushed, cleaned, replaced, washed",1
5af2f6c0c36b060001f80163,78ojnfq8vc,"Affordance Norms_Prolific",1,15,2023-05-10T22:55:23+00:00,29.525608062744,29,"updated stim.csv",Version29.csv,"Version 29","List 29",whiskers,,842,4.625,2929,0.016400371,843,BOI,-,-,"Please name all of the ways you could use this object. Keep in mind that one object can have many uses. Separate your responses with a comma.",,y,28631,,,20612,28514,,,,"twitched, brushed",1
5af2f6c0c36b060001f80163,78ojnfq8vc,"Affordance Norms_Prolific",1,16,2023-05-10T22:55:39+00:00,16.5042989254,29,"updated stim.csv",Version29.csv,"Version 29","List 29",recruiter,,841,4.347826087,2149,0.094929085,842,BOI,-,-,"Please name all of the ways you could use this object. Keep in mind that one object can have many uses. Separate your responses with a comma.",,y,15618,,,4040,12801,,,,"called, asked, emailed",1
5af2f6c0c36b060001f80163,78ojnfq8vc,"Affordance Norms_Prolific",1,17,2023-05-10T22:55:51+00:00,11.928508996964,29,"updated stim.csv",Version29.csv,"Version 29","List 29",melon,,851,5.681818182,1641,0.714880294,852,BOI,-,-,"Please name all of the ways you could use this object. Keep in mind that one object can have many uses. Separate your responses with a comma.",,y,10928,,,1561,10813,,,,"cut, sliced, juiced, diced, used in a fruit salad",1
5af2f6c0c36b060001f80163,78ojnfq8vc,"Affordance Norms_Prolific",1,18,2023-05-10T22:56:01+00:00,10.057521104813,29,"updated stim.csv",Version29.csv,"Version 29","List 29",horsefly,,850,4.32,1313,0.128854278,851,BOI,-,-,"Please name all of the ways you could use this object. Keep in mind that one object can have many uses. Separate your responses with a comma.",,y,9108,,,2322,8949,,,,"killed, swatted, fed to a spider, fed to a snake",1
5af2f6c0c36b060001f80163,78ojnfq8vc,"Affordance Norms_Prolific",1,19,2023-05-10T22:56:22+00:00,20.265033960342,29,"updated stim.csv",Version29.csv,"Version 29","List 29",ball,,847,6.608695652,128,0.22268434,848,BOI,-,-,"Please name all of the ways you could use this object. Keep in mind that one object can have many uses. Separate your responses with a comma.",,y,19320,,,1209,16753,,,,"bounced, thrown, stepped on",1
5af2f6c0c36b060001f80163,78ojnfq8vc,"Affordance Norms_Prolific",1,20,2023-05-10T22:56:52+00:00,30.406847000122,29,"updated stim.csv",Version29.csv,"Version 29","List 29",puppet,,869,5.739130435,2103,0.435409395,870,BOI,-,-,"Please name all of the ways you could use this object. Keep in mind that one object can have many uses. Separate your responses with a comma.",,y,29465,,,1739,26629,,,,"puppeteered, played with",0.944
5af2f6c0c36b060001f80163,78ojnfq8vc,"Affordance Norms_Prolific",1,21,2023-05-10T22:57:06+00:00,13.788866043091,29,"updated stim.csv",Version29.csv,"Version 29","List 29",shoestring,,845,6.36,2352,0.103386452,846,BOI,-,-,"Please name all of the ways you could use this object. Keep in mind that one object can have many uses. Separate your responses with a comma.",,y,12766,,,1829,12470,,,,"tied, laced, pulled, knotted",1
5af2f6c0c36b060001f80163,78ojnfq8vc,"Affordance Norms_Prolific",1,22,2023-05-10T22:57:21+00:00,15.284684896469,29,"updated stim.csv",Version29.csv,"Version 29","List 29",drawer,,861,6,839,0.020367593,862,BOI,-,-,"Please name all of the ways you could use this object. Keep in mind that one object can have many uses. Separate your responses with a comma.",,y,14292,,,1213,14019,,,,"closed, opened, replaced, kicked",1
5af2f6c0c36b060001f80163,78ojnfq8vc,"Affordance Norms_Prolific",1,23,2023-05-10T22:58:05+00:00,43.76628613472,29,"updated stim.csv",Version29.csv,"Version 29","List 29",stepchild,,860,5.04,2524,0.735613852,861,BOI,-,-,"Please name all of the ways you could use this object. Keep in mind that one object can have many uses. Separate your responses with a comma.",,y,42793,,,1715,42452,,,,"adopted, talked to",1
5af2f6c0c36b060001f80163,78ojnfq8vc,"Affordance Norms_Prolific",1,24,2023-05-10T22:58:24+00:00,19.003361940384,29,"updated stim.csv",Version29.csv,"Version 29","List 29",marionette,,849,4.333333333,1607,0.239086256,850,BOI,-,-,"Please name all of the ways you could use this object. Keep in mind that one object can have many uses. Separate your responses with a comma.",,y,18025,,,2395,17754,,,,"pulled the strings of, displayed, played with",1
5af2f6c0c36b060001f80163,78ojnfq8vc,"Affordance Norms_Prolific",1,25,2023-05-10T22:58:27+00:00,2.8974649906158,29,"updated stim.csv",Version29.csv,"Version 29","List 29",advisor,,867,4.347826087,16,0.306787272,868,BOI,-,-,"Please name all of the ways you could use this object. Keep in mind that one object can have many uses. Separate your responses with a comma.",,y,1919,,,1536,1536,,,,,1
5af2f6c0c36b060001f80163,78ojnfq8vc,"Affordance Norms_Prolific",1,26,2023-05-10T22:59:03+00:00,36.086791038513,29,"updated stim.csv",Version29.csv,"Version 29","List 29",cassette,,863,5.148148148,453,0.47456788,864,BOI,-,-,"Please name all of the ways you could use this object. Keep in mind that one object can have many uses. Separate your responses with a comma.",,y,35113,,,5041,34437,,,,"played, listened to, rewound, replayed, recorded on, recorded over, fast forwarded",1
5af2f6c0c36b060001f80163,78ojnfq8vc,"Affordance Norms_Prolific",1,27,2023-05-10T22:59:27+00:00,23.792541980743,29,"updated stim.csv",Version29.csv,"Version 29","List 29",wool,,870,5.392857143,2967,0.698769358,871,BOI,-,-,"Please name all of the ways you could use this object. Keep in mind that one object can have many uses. Separate your responses with a comma.",,y,22913,,,3191,20727,,,,"shorn, knitted, worn",0.924
5af2f6c0c36b060001f80163,78ojnfq8vc,"Affordance Norms_Prolific",1,28,2023-05-10T22:59:58+00:00,31.290240049362,29,"updated stim.csv",Version29.csv,"Version 29","List 29",streetwalker,,864,4.84,2566,0.15320214,865,BOI,-,-,"Please name all of the ways you could use this object. Keep in mind that one object can have many uses. Separate your responses with a comma.",,y,30290,,,22381,29001,,,,"solicitied, spoken with, called upon",1
5af2f6c0c36b060001f80163,78ojnfq8vc,"Affordance Norms_Prolific",1,29,2023-05-10T23:00:24+00:00,26.08722782135,29,"updated stim.csv",Version29.csv,"Version 29","List 29",dancer,,859,5.090909091,754,0.545210897,860,BOI,-,-,"Please name all of the ways you could use this object. Keep in mind that one object can have many uses. Separate your responses with a comma.",,y,25070,,,7486,24775,,,,"instructed, trained, choreographed",0.965
5af2f6c0c36b060001f80163,78ojnfq8vc,"Affordance Norms_Prolific",1,30,2023-05-10T23:00:39+00:00,14.624611139297,29,"updated stim.csv",Version29.csv,"Version 29","List 29",seaplane,,858,4.333333333,2297,0.432682347,859,BOI,-,-,"Please name all of the ways you could use this object. Keep in mind that one object can have many uses. Separate your responses with a comma.",,y,13618,,,4812,13368,,,,"ridden, flown, piloted",1
5af2f6c0c36b060001f80163,78ojnfq8vc,"Affordance Norms_Prolific",1,31,2023-05-10T23:00:51+00:00,11.903015851974,29,"updated stim.csv",Version29.csv,"Version 29","List 29",drawers,,865,5.869565217,840,0.225533231,866,BOI,-,-,"Please name all of the ways you could use this object. Keep in mind that one object can have many uses. Separate your responses with a comma.",,y,11043,,,1659,10659,,,,"opened, shut, slammed, replaced, stuffed with objects",1
5af2f6c0c36b060001f80163,78ojnfq8vc,"Affordance Norms_Prolific",1,32,2023-05-10T23:01:17+00:00,26.494084119797,29,"updated stim.csv",Version29.csv,"Version 29","List 29",canvas,,857,5.590909091,420,0.874071933,858,BOI,-,-,"Please name all of the ways you could use this object. Keep in mind that one object can have many uses. Separate your responses with a comma.",,y,25610,,,1857,25067,,,,"drawn on, used to make clothes or attire, used to make bags, used as packaging",1
5af2f6c0c36b060001f80163,78ojnfq8vc,"Affordance Norms_Prolific",1,33,2023-05-10T23:01:36+00:00,18.844835042953,29,"updated stim.csv",Version29.csv,"Version 29","List 29",cubical,,848,4.36,722,0.555956074,849,BOI,-,-,"Please name all of the ways you could use this object. Keep in mind that one object can have many uses. Separate your responses with a comma.",,y,17890,,,6311,17054,,,,"used as an office space, used for bathrooms, take shelter in",1
5af2f6c0c36b060001f80163,78ojnfq8vc,"Affordance Norms_Prolific",1,34,2023-05-10T23:02:34+00:00,58.082978963852,29,"updated stim.csv",Version29.csv,"Version 29","List 29",shoelace,,843,6.16,2351,0.491082523,844,BOI,-,-,"Please name all of the ways you could use this object. Keep in mind that one object can have many uses. Separate your responses with a comma.",,y,57117,,,46504,55899,,,,"tied, knotted, pulled",1
5af2f6c0c36b060001f80163,78ojnfq8vc,"Affordance Norms_Prolific",1,35,2023-05-10T23:02:53+00:00,19.196501970291,29,"updated stim.csv",Version29.csv,"Version 29","List 29",saffron,,866,4.666666667,2214,0.91541526,867,BOI,-,-,"Please name all of the ways you could use this object. Keep in mind that one object can have many uses. Separate your responses with a comma.",,y,18156,,,1837,18019,,,,"soaked, ground, milled, picked, cultivated, toasted",1
5af2f6c0c36b060001f80163,78ojnfq8vc,"Affordance Norms_Prolific",1,36,2023-05-10T23:03:04+00:00,10.981558084488,29,"updated stim.csv",Version29.csv,"Version 29","List 29",eggbeater,,862,5.96,893,0.11369401,863,BOI,-,-,"Please name all of the ways you could use this object. Keep in mind that one object can have many uses. Separate your responses with a comma.",,y,10002,,,3060,9685,,,,"used to beat eggs, used as a whisk, for baking",1
5af2f6c0c36b060001f80163,78ojnfq8vc,"Affordance Norms_Prolific",1,37,2023-05-10T23:03:22+00:00,17.557758808136,29,"updated stim.csv",Version29.csv,"Version 29","List 29",chopsticks,,855,6.391304348,534,0.12111344,856,BOI,-,-,"Please name all of the ways you could use this object. Keep in mind that one object can have many uses. Separate your responses with a comma.",,y,16694,,,5363,13788,,,,"to eat with, used as a hair accessory",1
5af2f6c0c36b060001f80163,78ojnfq8vc,"Affordance Norms_Prolific",1,38,2023-05-10T23:03:38+00:00,15.88374710083,29,"updated stim.csv",Version29.csv,"Version 29","List 29",puppy,,856,6.25,2104,0.657314439,857,BOI,-,-,"Please name all of the ways you could use this object. Keep in mind that one object can have many uses. Separate your responses with a comma.",,y,14944,,,1512,14760,,,,"petted, adopted, belly rubbed",1
5af2f6c0c36b060001f80163,78ojnfq8vc,"Affordance Norms_Prolific",1,39,2023-05-10T23:03:48+00:00,10.369160890579,29,"updated stim.csv",Version29.csv,"Version 29","List 29",kiwi,,844,6.08,1430,0.639617568,845,BOI,-,-,"Please name all of the ways you could use this object. Keep in mind that one object can have many uses. Separate your responses with a comma.",,y,9297,,,1768,7201,,,,"eaten, juiced, sliced, diced, peeled",1
5af2f6c0c36b060001f80163,78ojnfq8vc,"Affordance Norms_Prolific",1,40,2023-05-10T23:03:59+00:00,11.279033184052,29,"updated stim.csv",Version29.csv,"Version 29","List 29",peacock,,852,4.8,1892,0.379182657,853,BOI,-,-,"Please name all of the ways you could use this object. Keep in mind that one object can have many uses. Separate your responses with a comma.",,y,10374,,,4107,10148,,,,"looked at, taxidemried",1
5af2f6c0c36b060001f80163,78ojnfq8vc,"Affordance Norms_Prolific",1,41,2023-05-10T23:04:03+00:00,3.7203860282898,29,"updated stim.csv",Version29.csv,"Version 29","List 29",,,,,,,0,Instruct,,,"You will now be asked a few questions about your experience today.",,"Instruct 4",2578,,,-1,-1,,,,,1
