Username,ID,ExperimentName,Session,Trial,Date,TimeDif,"Condition Number","Stimuli File","Order File","Condition Description","Condition Notes",Stimuli*Cue,Stimuli*Answer,Stimuli*Shuffle,"Stimuli*Stimuli Notes",Stimuli*Value,Stimuli*Rand,Procedure*Item,"Procedure*Trial Type","Procedure*Max Time","Procedure*Min Time",Procedure*Text,"Procedure*Procedure Notes",Procedure*Shuffle,Response*RT,Response*Response,Response*Accuracy,Response*RTfirst,Response*RTlast,Response*strictAcc,Response*lenientAcc,Response*focus,Response*JOL,Response*Focus
599082bccceb0f0001b39949,wdtku1v228,"Affordance Norms_Prolific",1,1,2023-05-10T23:35:54+00:00,10.814842939377,47,"updated stim.csv",Version47.csv,"Version 47","List 47",,,,,,,0,Instruct,-,10,"In this section, you will be presented with a series of objects. Please name as many possible uses for this object as you can think of by typing them in the box below each object.",,Instruct1,10519,,,-1,-1,,,,,1
599082bccceb0f0001b39949,wdtku1v228,"Affordance Norms_Prolific",1,2,2023-05-10T23:36:09+00:00,15.563185930252,47,"updated stim.csv",Version47.csv,"Version 47","List 47",,,,,,,0,Instruct,-,10,"Please keep in mind that a single object will have more than one use. For example, a ball can be thrown or can be bounced or even stepped on. When listing multiple uses for one object, please separate each use with a comma (i.e., thrown, bounced, stepped on)",,Instruct2,15110,,,-1,-1,,,,,1
599082bccceb0f0001b39949,wdtku1v228,"Affordance Norms_Prolific",1,3,2023-05-10T23:36:13+00:00,4.1264259815216,47,"updated stim.csv",Version47.csv,"Version 47","List 47",,,,,,,0,Instruct,-,-,"Before starting the experiment, you will complete a short practice sesstion. Press ENTER when you are ready to begin.",,Instruct3,3672,,,-1,-1,,,,,1
599082bccceb0f0001b39949,wdtku1v228,"Affordance Norms_Prolific",1,4,2023-05-10T23:36:31+00:00,17.549520015717,47,"updated stim.csv",Version47.csv,"Version 47","List 47",paperwork,,3001,5.625,1866,0.124284162,3002,BOI,-,-,"Please name all of the ways you could use this object. Keep in mind that one object can have many uses. Separate your responses with a comma.",,n,17051,,,4495,15829,,,,"written on, signed, handed in.",1
599082bccceb0f0001b39949,wdtku1v228,"Affordance Norms_Prolific",1,5,2023-05-10T23:36:51+00:00,19.723083019257,47,"updated stim.csv",Version47.csv,"Version 47","List 47",spaghetti,,3003,6,2461,0.090379998,3004,BOI,-,-,"Please name all of the ways you could use this object. Keep in mind that one object can have many uses. Separate your responses with a comma.",,n,19265,,,2043,17938,,,,"eaten, cooked, swirled, thrown, spat out.",1
599082bccceb0f0001b39949,wdtku1v228,"Affordance Norms_Prolific",1,6,2023-05-10T23:37:04+00:00,13.669901132584,47,"updated stim.csv",Version47.csv,"Version 47","List 47",saucer,,3005,5.777777778,2249,0.304808074,3006,BOI,-,-,"Please name all of the ways you could use this object. Keep in mind that one object can have many uses. Separate your responses with a comma.",,n,13204,,,1784,12426,,,,"cleaned, thrown out, cooked with.",1
599082bccceb0f0001b39949,wdtku1v228,"Affordance Norms_Prolific",1,7,2023-05-10T23:37:20+00:00,15.782971858978,47,"updated stim.csv",Version47.csv,"Version 47","List 47",grain,,3004,5.217391304,1143,0.226863762,3005,BOI,-,-,"Please name all of the ways you could use this object. Keep in mind that one object can have many uses. Separate your responses with a comma.",,n,15315,,,1799,9310,,,,"eaten, harvested, thrown out.",1
599082bccceb0f0001b39949,wdtku1v228,"Affordance Norms_Prolific",1,8,2023-05-10T23:37:36+00:00,16.327075004578,47,"updated stim.csv",Version47.csv,"Version 47","List 47",shortening,,3002,4.92,2358,0.604328482,3003,BOI,-,-,"Please name all of the ways you could use this object. Keep in mind that one object can have many uses. Separate your responses with a comma.",,n,15892,,,10823,14988,,,,"cut short, stopped.",1
599082bccceb0f0001b39949,wdtku1v228,"Affordance Norms_Prolific",1,9,2023-05-10T23:37:38+00:00,1.8130581378937,47,"updated stim.csv",Version47.csv,"Version 47","List 47",,,,,,,0,Instruct,-,-,"You have completed this section. Press ENTER to continue",,"Instruct 5",1354,,,-1,-1,,,,,1
599082bccceb0f0001b39949,wdtku1v228,"Affordance Norms_Prolific",1,10,2023-05-10T23:37:40+00:00,1.9217569828033,47,"updated stim.csv",Version47.csv,"Version 47","List 47",,,,,,,0,Instruct,-,-,"You will now start the full experiment. Press ENTER when you are ready to begin.",,,1458,,,-1,-1,,,,,1
599082bccceb0f0001b39949,wdtku1v228,"Affordance Norms_Prolific",1,11,2023-05-10T23:37:51+00:00,11.164095878601,47,"updated stim.csv",Version47.csv,"Version 47","List 47",keepsake,,1400,4.75,1403,0.353530379,1401,BOI,-,-,"Please name all of the ways you could use this object. Keep in mind that one object can have many uses. Separate your responses with a comma.",,y,10713,,,2122,9877,,,,"kept, thrown out, gave away.",1
599082bccceb0f0001b39949,wdtku1v228,"Affordance Norms_Prolific",1,12,2023-05-10T23:38:05+00:00,14.037207126617,47,"updated stim.csv",Version47.csv,"Version 47","List 47",pot,,1383,6.16,2046,0.052592996,1384,BOI,-,-,"Please name all of the ways you could use this object. Keep in mind that one object can have many uses. Separate your responses with a comma.",,y,13559,,,2669,10942,,,,"cooked with, cleaned, recycled.",1
599082bccceb0f0001b39949,wdtku1v228,"Affordance Norms_Prolific",1,13,2023-05-10T23:38:26+00:00,21.006129980087,47,"updated stim.csv",Version47.csv,"Version 47","List 47",headrest,,1395,5.346153846,1271,0.297710821,1396,BOI,-,-,"Please name all of the ways you could use this object. Keep in mind that one object can have many uses. Separate your responses with a comma.",,y,20533,,,5038,19040,,,,"used, given away, shared, thrown out.",1
599082bccceb0f0001b39949,wdtku1v228,"Affordance Norms_Prolific",1,14,2023-05-10T23:38:44+00:00,18.115968942642,47,"updated stim.csv",Version47.csv,"Version 47","List 47",gate,,1388,5.956521739,1085,0.228467401,1389,BOI,-,-,"Please name all of the ways you could use this object. Keep in mind that one object can have many uses. Separate your responses with a comma.",,y,17642,,,1278,16736,,,,"opened, closed, painted, destroyed, knocked down.",1
599082bccceb0f0001b39949,wdtku1v228,"Affordance Norms_Prolific",1,15,2023-05-10T23:38:53+00:00,8.5393090248108,47,"updated stim.csv",Version47.csv,"Version 47","List 47",comforter,,1409,6.16,607,0.457027903,1410,BOI,-,-,"Please name all of the ways you could use this object. Keep in mind that one object can have many uses. Separate your responses with a comma.",,y,8070,,,2453,7163,,,,"washed, used.",1
599082bccceb0f0001b39949,wdtku1v228,"Affordance Norms_Prolific",1,16,2023-05-10T23:39:12+00:00,18.92920088768,47,"updated stim.csv",Version47.csv,"Version 47","List 47",animal,,1407,5.958333333,41,0.056172512,1408,BOI,-,-,"Please name all of the ways you could use this object. Keep in mind that one object can have many uses. Separate your responses with a comma.",,y,18456,,,2184,17521,,,,"fed, killed, captured, washed, eaten.",1
599082bccceb0f0001b39949,wdtku1v228,"Affordance Norms_Prolific",1,17,2023-05-10T23:39:23+00:00,10.963128089905,47,"updated stim.csv",Version47.csv,"Version 47","List 47",harpsichord,,1386,4.904761905,1255,0.885561554,1387,BOI,-,-,"Please name all of the ways you could use this object. Keep in mind that one object can have many uses. Separate your responses with a comma.",,y,10505,,,7673,9645,,,,played.,1
599082bccceb0f0001b39949,wdtku1v228,"Affordance Norms_Prolific",1,18,2023-05-10T23:39:34+00:00,11.456372976303,47,"updated stim.csv",Version47.csv,"Version 47","List 47",longbow,,1401,5.285714286,1546,0.172928755,1402,BOI,-,-,"Please name all of the ways you could use this object. Keep in mind that one object can have many uses. Separate your responses with a comma.",,y,10998,,,1556,10053,,,,"used, broken, traded, lost.",1
599082bccceb0f0001b39949,wdtku1v228,"Affordance Norms_Prolific",1,19,2023-05-10T23:39:46+00:00,11.42391705513,47,"updated stim.csv",Version47.csv,"Version 47","List 47",loin,,1393,4.391304348,1543,0.390491244,1394,BOI,-,-,"Please name all of the ways you could use this object. Keep in mind that one object can have many uses. Separate your responses with a comma.",,y,10960,,,3350,9257,,,,"pulled, stretched.",1
599082bccceb0f0001b39949,wdtku1v228,"Affordance Norms_Prolific",1,20,2023-05-10T23:39:59+00:00,13.623862981796,47,"updated stim.csv",Version47.csv,"Version 47","List 47",comb,,1387,5.923076923,606,0.836607902,1388,BOI,-,-,"Please name all of the ways you could use this object. Keep in mind that one object can have many uses. Separate your responses with a comma.",,y,13159,,,1635,12289,,,,"used, broken, borrowed, lent, thrown out.",1
599082bccceb0f0001b39949,wdtku1v228,"Affordance Norms_Prolific",1,21,2023-05-10T23:40:14+00:00,14.341484069824,47,"updated stim.csv",Version47.csv,"Version 47","List 47",newspaper,,1406,5.76,1760,0.182265176,1407,BOI,-,-,"Please name all of the ways you could use this object. Keep in mind that one object can have many uses. Separate your responses with a comma.",,y,13876,,,1016,12523,,,,"read, recycled, borrowed, bought, shredded.",1
599082bccceb0f0001b39949,wdtku1v228,"Affordance Norms_Prolific",1,22,2023-05-10T23:40:24+00:00,10.49880695343,47,"updated stim.csv",Version47.csv,"Version 47","List 47",floorboard,,1397,5.791666667,1009,0.177991439,1398,BOI,-,-,"Please name all of the ways you could use this object. Keep in mind that one object can have many uses. Separate your responses with a comma.",,y,10039,,,1280,9212,,,,"walked on, replaced, destroyed.",1
599082bccceb0f0001b39949,wdtku1v228,"Affordance Norms_Prolific",1,23,2023-05-10T23:40:41+00:00,16.558591842651,47,"updated stim.csv",Version47.csv,"Version 47","List 47",pet,,1384,6.214285714,1932,0.252455217,1385,BOI,-,-,"Please name all of the ways you could use this object. Keep in mind that one object can have many uses. Separate your responses with a comma.",,y,16084,,,3725,15218,,,,"kiss, stroked, fed, played with, buried.",1
599082bccceb0f0001b39949,wdtku1v228,"Affordance Norms_Prolific",1,24,2023-05-10T23:41:00+00:00,19.398394107819,47,"updated stim.csv",Version47.csv,"Version 47","List 47",hamster,,1390,5.583333333,1226,0.187879003,1391,BOI,-,-,"Please name all of the ways you could use this object. Keep in mind that one object can have many uses. Separate your responses with a comma.",,y,18933,,,2886,15749,,,,"stroked, played with, buried, fed, washed.",1
599082bccceb0f0001b39949,wdtku1v228,"Affordance Norms_Prolific",1,25,2023-05-10T23:41:18+00:00,17.723707914352,47,"updated stim.csv",Version47.csv,"Version 47","List 47",apron,,1385,5.96,67,0.690663314,1386,BOI,-,-,"Please name all of the ways you could use this object. Keep in mind that one object can have many uses. Separate your responses with a comma.",,y,17269,,,1242,16232,,,,"worn, washed, donated, got rid of, burnt.",1
599082bccceb0f0001b39949,wdtku1v228,"Affordance Norms_Prolific",1,26,2023-05-10T23:41:30+00:00,12.088162183762,47,"updated stim.csv",Version47.csv,"Version 47","List 47",newt,,1396,4.391304348,1765,0.685149421,1397,BOI,-,-,"Please name all of the ways you could use this object. Keep in mind that one object can have many uses. Separate your responses with a comma.",,y,11626,,,3569,10671,,,,"seen, stepped on.",1
599082bccceb0f0001b39949,wdtku1v228,"Affordance Norms_Prolific",1,27,2023-05-10T23:41:44+00:00,13.746217012405,47,"updated stim.csv",Version47.csv,"Version 47","List 47",handkerchief,,1410,5.72,1238,0.781838357,1411,BOI,-,-,"Please name all of the ways you could use this object. Keep in mind that one object can have many uses. Separate your responses with a comma.",,y,13294,,,1539,12370,,,,"used, washed, thrown away, gifted, inhereted.",1
599082bccceb0f0001b39949,wdtku1v228,"Affordance Norms_Prolific",1,28,2023-05-10T23:41:58+00:00,14.640444993973,47,"updated stim.csv",Version47.csv,"Version 47","List 47",radiologist,,1399,4.913043478,2123,0.268459121,1400,BOI,-,-,"Please name all of the ways you could use this object. Keep in mind that one object can have many uses. Separate your responses with a comma.",,y,14190,,,7418,12478,,,,"spoke to, respected.",1
599082bccceb0f0001b39949,wdtku1v228,"Affordance Norms_Prolific",1,29,2023-05-10T23:42:14+00:00,15.813925981522,47,"updated stim.csv",Version47.csv,"Version 47","List 47",chest,,1403,5.851851852,513,0.740799147,1404,BOI,-,-,"Please name all of the ways you could use this object. Keep in mind that one object can have many uses. Separate your responses with a comma.",,y,15344,,,1491,14483,,,,"lay on, breathed with, punched.",1
599082bccceb0f0001b39949,wdtku1v228,"Affordance Norms_Prolific",1,30,2023-05-10T23:42:24+00:00,9.7946538925171,47,"updated stim.csv",Version47.csv,"Version 47","List 47",spear,,1382,5.208333333,2465,0.087926144,1383,BOI,-,-,"Please name all of the ways you could use this object. Keep in mind that one object can have many uses. Separate your responses with a comma.",,y,9341,,,1437,7151,,,,"thrown, cleaned.",1
599082bccceb0f0001b39949,wdtku1v228,"Affordance Norms_Prolific",1,31,2023-05-10T23:42:44+00:00,19.889760971069,47,"updated stim.csv",Version47.csv,"Version 47","List 47",firstborn,,1394,4.518518519,988,0.444358474,1395,BOI,-,-,"Please name all of the ways you could use this object. Keep in mind that one object can have many uses. Separate your responses with a comma.",,y,19427,,,2041,17677,,,,"fed, washed, raised, loved.",1
599082bccceb0f0001b39949,wdtku1v228,"Affordance Norms_Prolific",1,32,2023-05-10T23:42:51+00:00,7.4822461605072,47,"updated stim.csv",Version47.csv,"Version 47","List 47",mink,,1381,4.904761905,1664,0.367518385,1382,BOI,-,-,"Please name all of the ways you could use this object. Keep in mind that one object can have many uses. Separate your responses with a comma.",,y,7026,,,2317,6133,,,,worn.,1
599082bccceb0f0001b39949,wdtku1v228,"Affordance Norms_Prolific",1,33,2023-05-10T23:43:08+00:00,16.273360967636,47,"updated stim.csv",Version47.csv,"Version 47","List 47",secretary,,1405,5.2,2305,0.924368647,1406,BOI,-,-,"Please name all of the ways you could use this object. Keep in mind that one object can have many uses. Separate your responses with a comma.",,y,15817,,,2693,14313,,,,"spoke to, respected, employed, fired.",1
599082bccceb0f0001b39949,wdtku1v228,"Affordance Norms_Prolific",1,34,2023-05-10T23:43:19+00:00,11.239346981049,47,"updated stim.csv",Version47.csv,"Version 47","List 47",stream,,1391,4.678571429,2562,0.675991491,1392,BOI,-,-,"Please name all of the ways you could use this object. Keep in mind that one object can have many uses. Separate your responses with a comma.",,y,10764,,,2871,9829,,,,"watched, washed in.",1
599082bccceb0f0001b39949,wdtku1v228,"Affordance Norms_Prolific",1,35,2023-05-10T23:43:34+00:00,14.786366939545,47,"updated stim.csv",Version47.csv,"Version 47","List 47",confetti,,1389,4.76,626,0.133315159,1390,BOI,-,-,"Please name all of the ways you could use this object. Keep in mind that one object can have many uses. Separate your responses with a comma.",,y,14330,,,1844,13440,,,,"thrown, caught, collected, bought.",1
599082bccceb0f0001b39949,wdtku1v228,"Affordance Norms_Prolific",1,36,2023-05-10T23:43:42+00:00,8.0985898971558,47,"updated stim.csv",Version47.csv,"Version 47","List 47",axle,,1398,4.904761905,108,0.159786934,1399,BOI,-,-,"Please name all of the ways you could use this object. Keep in mind that one object can have many uses. Separate your responses with a comma.",,y,7647,,,3568,6748,,,,"used, broken.",1
599082bccceb0f0001b39949,wdtku1v228,"Affordance Norms_Prolific",1,37,2023-05-10T23:44:00+00:00,17.912674188614,47,"updated stim.csv",Version47.csv,"Version 47","List 47",sled,,1392,6.086956522,2406,0.940566266,1393,BOI,-,-,"Please name all of the ways you could use this object. Keep in mind that one object can have many uses. Separate your responses with a comma.",,y,17455,,,2377,16444,,,,"rode, broke, bought.",1
599082bccceb0f0001b39949,wdtku1v228,"Affordance Norms_Prolific",1,38,2023-05-10T23:44:13+00:00,12.949721813202,47,"updated stim.csv",Version47.csv,"Version 47","List 47",tortoise,,1402,4.541666667,2741,0.896019588,1403,BOI,-,-,"Please name all of the ways you could use this object. Keep in mind that one object can have many uses. Separate your responses with a comma.",,y,12481,,,3058,11653,,,,"fed, watered, watched.",1
599082bccceb0f0001b39949,wdtku1v228,"Affordance Norms_Prolific",1,39,2023-05-10T23:44:23+00:00,10.197199106216,47,"updated stim.csv",Version47.csv,"Version 47","List 47",kit,,1404,4.739130435,1424,0.351244605,1405,BOI,-,-,"Please name all of the ways you could use this object. Keep in mind that one object can have many uses. Separate your responses with a comma.",,y,9727,,,1205,8341,,,,"used, resupplied, packed.",1
599082bccceb0f0001b39949,wdtku1v228,"Affordance Norms_Prolific",1,40,2023-05-10T23:44:38+00:00,15.446398019791,47,"updated stim.csv",Version47.csv,"Version 47","List 47",duckweed,,1408,4.4,861,0.109146869,1409,BOI,-,-,"Please name all of the ways you could use this object. Keep in mind that one object can have many uses. Separate your responses with a comma.",,y,14975,,,1657,7480,,,,"sold, fond.",1
599082bccceb0f0001b39949,wdtku1v228,"Affordance Norms_Prolific",1,41,2023-05-10T23:44:42+00:00,4.2030320167542,47,"updated stim.csv",Version47.csv,"Version 47","List 47",,,,,,,0,Instruct,,,"You will now be asked a few questions about your experience today.",,"Instruct 4",3746,,,-1,-1,,,,,1
