Username,ID,ExperimentName,Session,Trial,Date,TimeDif,"Condition Number","Stimuli File","Order File","Condition Description","Condition Notes",Stimuli*Cue,Stimuli*Answer,Stimuli*Shuffle,"Stimuli*Stimuli Notes",Stimuli*Value,Stimuli*Rand,Procedure*Item,"Procedure*Trial Type","Procedure*Max Time","Procedure*Min Time",Procedure*Text,"Procedure*Procedure Notes",Procedure*Shuffle,Response*RT,Response*Response,Response*Accuracy,Response*RTfirst,Response*RTlast,Response*strictAcc,Response*lenientAcc,Response*focus,Response*JOL,Response*Focus
63d0222ddec45c91058a3430,4a4gpiq97w,"Affordance Norms_Prolific",1,1,2023-05-10T22:45:43+00:00,11.420058012009,25,"updated stim.csv",Version25.csv,"Version 25","List 25",,,,,,,0,Instruct,-,10,"In this section, you will be presented with a series of objects. Please name as many possible uses for this object as you can think of by typing them in the box below each object.",,Instruct1,10901,,,-1,-1,,,,,1
63d0222ddec45c91058a3430,4a4gpiq97w,"Affordance Norms_Prolific",1,2,2023-05-10T22:45:53+00:00,10.816110134125,25,"updated stim.csv",Version25.csv,"Version 25","List 25",,,,,,,0,Instruct,-,10,"Please keep in mind that a single object will have more than one use. For example, a ball can be thrown or can be bounced or even stepped on. When listing multiple uses for one object, please separate each use with a comma (i.e., thrown, bounced, stepped on)",,Instruct2,10136,,,-1,-1,,,,,1
63d0222ddec45c91058a3430,4a4gpiq97w,"Affordance Norms_Prolific",1,3,2023-05-10T22:45:59+00:00,5.8556129932404,25,"updated stim.csv",Version25.csv,"Version 25","List 25",,,,,,,0,Instruct,-,-,"Before starting the experiment, you will complete a short practice sesstion. Press ENTER when you are ready to begin.",,Instruct3,4882,,,-1,-1,,,,,1
63d0222ddec45c91058a3430,4a4gpiq97w,"Affordance Norms_Prolific",1,4,2023-05-10T22:46:38+00:00,38.669955015182,25,"updated stim.csv",Version25.csv,"Version 25","List 25",grain,,3004,5.217391304,1143,0.226863762,3005,BOI,-,-,"Please name all of the ways you could use this object. Keep in mind that one object can have many uses. Separate your responses with a comma.",,n,37742,,,11168,36056,,,,"food, maracas, gardening",0.791
63d0222ddec45c91058a3430,4a4gpiq97w,"Affordance Norms_Prolific",1,5,2023-05-10T22:46:55+00:00,16.95015001297,25,"updated stim.csv",Version25.csv,"Version 25","List 25",spaghetti,,3003,6,2461,0.090379998,3004,BOI,-,-,"Please name all of the ways you could use this object. Keep in mind that one object can have many uses. Separate your responses with a comma.",,n,16003,,,1494,12479,,,,"food, collage",1
63d0222ddec45c91058a3430,4a4gpiq97w,"Affordance Norms_Prolific",1,6,2023-05-10T22:47:08+00:00,12.879824876785,25,"updated stim.csv",Version25.csv,"Version 25","List 25",saucer,,3005,5.777777778,2249,0.304808074,3006,BOI,-,-,"Please name all of the ways you could use this object. Keep in mind that one object can have many uses. Separate your responses with a comma.",,n,11898,,,2904,9007,,,,"coaster, little plate",1
63d0222ddec45c91058a3430,4a4gpiq97w,"Affordance Norms_Prolific",1,7,2023-05-10T22:47:35+00:00,26.984576940536,25,"updated stim.csv",Version25.csv,"Version 25","List 25",paperwork,,3001,5.625,1866,0.124284162,3002,BOI,-,-,"Please name all of the ways you could use this object. Keep in mind that one object can have many uses. Separate your responses with a comma.",,n,26179,,,8653,24190,,,,"coaster, stand",1
63d0222ddec45c91058a3430,4a4gpiq97w,"Affordance Norms_Prolific",1,8,2023-05-10T22:47:40+00:00,5.0587470531464,25,"updated stim.csv",Version25.csv,"Version 25","List 25",shortening,,3002,4.92,2358,0.604328482,3003,BOI,-,-,"Please name all of the ways you could use this object. Keep in mind that one object can have many uses. Separate your responses with a comma.",,n,4302,,,2103,2881,,,,baking,1
63d0222ddec45c91058a3430,4a4gpiq97w,"Affordance Norms_Prolific",1,9,2023-05-10T22:47:43+00:00,2.6998021602631,25,"updated stim.csv",Version25.csv,"Version 25","List 25",,,,,,,0,Instruct,-,-,"You have completed this section. Press ENTER to continue",,"Instruct 5",1856,,,-1,-1,,,,,1
63d0222ddec45c91058a3430,4a4gpiq97w,"Affordance Norms_Prolific",1,10,2023-05-10T22:47:46+00:00,3.0609719753265,25,"updated stim.csv",Version25.csv,"Version 25","List 25",,,,,,,0,Instruct,-,-,"You will now start the full experiment. Press ENTER when you are ready to begin.",,,1954,,,-1,-1,,,,,1
63d0222ddec45c91058a3430,4a4gpiq97w,"Affordance Norms_Prolific",1,11,2023-05-10T22:47:57+00:00,11.313608884811,25,"updated stim.csv",Version25.csv,"Version 25","List 25",toupee,,749,6.217391304,2743,0.759692007,750,BOI,-,-,"Please name all of the ways you could use this object. Keep in mind that one object can have many uses. Separate your responses with a comma.",,y,10490,,,2114,6550,,,,"wig, costume",1
63d0222ddec45c91058a3430,4a4gpiq97w,"Affordance Norms_Prolific",1,12,2023-05-10T22:48:10+00:00,13.40247797966,25,"updated stim.csv",Version25.csv,"Version 25","List 25",pickaxe,,746,5.333333333,1949,0.272116032,747,BOI,-,-,"Please name all of the ways you could use this object. Keep in mind that one object can have many uses. Separate your responses with a comma.",,y,12693,,,1758,11622,,,,"mining, murder",1
63d0222ddec45c91058a3430,4a4gpiq97w,"Affordance Norms_Prolific",1,13,2023-05-10T22:48:21+00:00,10.503004074097,25,"updated stim.csv",Version25.csv,"Version 25","List 25",microphone,,726,6.043478261,1654,0.730798037,727,BOI,-,-,"Please name all of the ways you could use this object. Keep in mind that one object can have many uses. Separate your responses with a comma.",,y,9775,,,3677,5227,,,,recording,1
63d0222ddec45c91058a3430,4a4gpiq97w,"Affordance Norms_Prolific",1,14,2023-05-10T22:48:36+00:00,14.867383003235,25,"updated stim.csv",Version25.csv,"Version 25","List 25",cutlet,,745,5.272727273,739,0.899271979,746,BOI,-,-,"Please name all of the ways you could use this object. Keep in mind that one object can have many uses. Separate your responses with a comma.",,y,14114,,,4856,13262,,,,"food, implant",1
63d0222ddec45c91058a3430,4a4gpiq97w,"Affordance Norms_Prolific",1,15,2023-05-10T22:48:47+00:00,10.899751901627,25,"updated stim.csv",Version25.csv,"Version 25","List 25",snowflake,,723,5,2434,0.972688735,724,BOI,-,-,"Please name all of the ways you could use this object. Keep in mind that one object can have many uses. Separate your responses with a comma.",,y,10187,,,2166,8500,,,,snowball,1
63d0222ddec45c91058a3430,4a4gpiq97w,"Affordance Norms_Prolific",1,16,2023-05-10T22:48:59+00:00,12.037608146667,25,"updated stim.csv",Version25.csv,"Version 25","List 25",dryer,,731,5.56,857,0.515568196,732,BOI,-,-,"Please name all of the ways you could use this object. Keep in mind that one object can have many uses. Separate your responses with a comma.",,y,11077,,,6019,10244,,,,"drying clothes",1
63d0222ddec45c91058a3430,4a4gpiq97w,"Affordance Norms_Prolific",1,17,2023-05-10T22:49:18+00:00,19.415638923645,25,"updated stim.csv",Version25.csv,"Version 25","List 25",railroad,,735,4.333333333,2128,0.54684231,736,BOI,-,-,"Please name all of the ways you could use this object. Keep in mind that one object can have many uses. Separate your responses with a comma.",,y,18650,,,4971,7648,,,,"train tracks",1
63d0222ddec45c91058a3430,4a4gpiq97w,"Affordance Norms_Prolific",1,18,2023-05-10T22:49:33+00:00,15.229197978973,25,"updated stim.csv",Version25.csv,"Version 25","List 25",capes,,730,4.481481481,425,0.058894933,731,BOI,-,-,"Please name all of the ways you could use this object. Keep in mind that one object can have many uses. Separate your responses with a comma.",,y,14494,,,2557,14371,,,,"costume, disguise, table cloth",1
63d0222ddec45c91058a3430,4a4gpiq97w,"Affordance Norms_Prolific",1,19,2023-05-10T22:49:47+00:00,13.848278999329,25,"updated stim.csv",Version25.csv,"Version 25","List 25",dude,,721,5,863,0.226292389,722,BOI,-,-,"Please name all of the ways you could use this object. Keep in mind that one object can have many uses. Separate your responses with a comma.",,y,12838,,,8558,12418,,,,"i got nothing here",1
63d0222ddec45c91058a3430,4a4gpiq97w,"Affordance Norms_Prolific",1,20,2023-05-10T22:50:09+00:00,22.182008981705,25,"updated stim.csv",Version25.csv,"Version 25","List 25",lock,,740,5.173913043,1535,0.90554972,741,BOI,-,-,"Please name all of the ways you could use this object. Keep in mind that one object can have many uses. Separate your responses with a comma.",,y,21445,,,5101,20815,,,,"jewellery, security",1
63d0222ddec45c91058a3430,4a4gpiq97w,"Affordance Norms_Prolific",1,21,2023-05-10T22:50:24+00:00,14.516760110855,25,"updated stim.csv",Version25.csv,"Version 25","List 25",painkiller,,743,5.518518519,1846,0.316542551,744,BOI,-,-,"Please name all of the ways you could use this object. Keep in mind that one object can have many uses. Separate your responses with a comma.",,y,13828,,,2134,13521,,,,"headaches, flu, tattoos",1
63d0222ddec45c91058a3430,4a4gpiq97w,"Affordance Norms_Prolific",1,22,2023-05-10T22:50:32+00:00,8.0509278774261,25,"updated stim.csv",Version25.csv,"Version 25","List 25",seam,,727,4.44,2295,0.029681861,728,BOI,-,-,"Please name all of the ways you could use this object. Keep in mind that one object can have many uses. Separate your responses with a comma.",,y,7086,,,4402,6712,,,,"for clothes",1
63d0222ddec45c91058a3430,4a4gpiq97w,"Affordance Norms_Prolific",1,23,2023-05-10T22:50:43+00:00,11.516381025314,25,"updated stim.csv",Version25.csv,"Version 25","List 25",dice,,750,6.192307692,789,0.967128532,751,BOI,-,-,"Please name all of the ways you could use this object. Keep in mind that one object can have many uses. Separate your responses with a comma.",,y,10823,,,1483,8983,,,,"gambling, DnD",1
63d0222ddec45c91058a3430,4a4gpiq97w,"Affordance Norms_Prolific",1,24,2023-05-10T22:50:50+00:00,6.2102520465851,25,"updated stim.csv",Version25.csv,"Version 25","List 25",sheep,,736,4.5,2328,0.939177216,737,BOI,-,-,"Please name all of the ways you could use this object. Keep in mind that one object can have many uses. Separate your responses with a comma.",,y,5240,,,1779,4060,,,,"wool, food",1
63d0222ddec45c91058a3430,4a4gpiq97w,"Affordance Norms_Prolific",1,25,2023-05-10T22:50:55+00:00,5.2985210418701,25,"updated stim.csv",Version25.csv,"Version 25","List 25",sandbag,,734,5.25,2233,0.672046976,735,BOI,-,-,"Please name all of the ways you could use this object. Keep in mind that one object can have many uses. Separate your responses with a comma.",,y,4463,,,2710,4047,,,,defense,1
63d0222ddec45c91058a3430,4a4gpiq97w,"Affordance Norms_Prolific",1,26,2023-05-10T22:51:10+00:00,15.084029912949,25,"updated stim.csv",Version25.csv,"Version 25","List 25",spike,,742,4.615384615,2473,0.545940367,743,BOI,-,-,"Please name all of the ways you could use this object. Keep in mind that one object can have many uses. Separate your responses with a comma.",,y,14051,,,6204,13657,,,,"stack tickets",1
63d0222ddec45c91058a3430,4a4gpiq97w,"Affordance Norms_Prolific",1,27,2023-05-10T22:51:25+00:00,15.522541046143,25,"updated stim.csv",Version25.csv,"Version 25","List 25",perspiration,,722,4.826086957,1931,0.818188278,723,BOI,-,-,"Please name all of the ways you could use this object. Keep in mind that one object can have many uses. Separate your responses with a comma.",,y,14824,,,9111,14476,,,,"again nothinh",1
63d0222ddec45c91058a3430,4a4gpiq97w,"Affordance Norms_Prolific",1,28,2023-05-10T22:51:30+00:00,4.2284870147705,25,"updated stim.csv",Version25.csv,"Version 25","List 25",kindling,,747,4.583333333,1421,0.039325736,748,BOI,-,-,"Please name all of the ways you could use this object. Keep in mind that one object can have many uses. Separate your responses with a comma.",,y,3534,,,1631,2113,,,,fire,1
63d0222ddec45c91058a3430,4a4gpiq97w,"Affordance Norms_Prolific",1,29,2023-05-10T22:51:43+00:00,13.670314073563,25,"updated stim.csv",Version25.csv,"Version 25","List 25",boxer,,737,4.608695652,295,0.635874427,738,BOI,-,-,"Please name all of the ways you could use this object. Keep in mind that one object can have many uses. Separate your responses with a comma.",,y,12976,,,3842,12512,,,,"security guard, athlete",1
63d0222ddec45c91058a3430,4a4gpiq97w,"Affordance Norms_Prolific",1,30,2023-05-10T22:51:56+00:00,12.499917984009,25,"updated stim.csv",Version25.csv,"Version 25","List 25",baton,,744,5.913043478,171,0.883078478,745,BOI,-,-,"Please name all of the ways you could use this object. Keep in mind that one object can have many uses. Separate your responses with a comma.",,y,11722,,,4291,11285,,,,"self-defence, parade",1
63d0222ddec45c91058a3430,4a4gpiq97w,"Affordance Norms_Prolific",1,31,2023-05-10T22:52:10+00:00,14.262635946274,25,"updated stim.csv",Version25.csv,"Version 25","List 25",cornstarch,,729,5.043478261,650,0.322303839,730,BOI,-,-,"Please name all of the ways you could use this object. Keep in mind that one object can have many uses. Separate your responses with a comma.",,y,13580,,,2273,10170,,,,"frying food, sauce thickener",1
63d0222ddec45c91058a3430,4a4gpiq97w,"Affordance Norms_Prolific",1,32,2023-05-10T22:52:15+00:00,5.0174858570099,25,"updated stim.csv",Version25.csv,"Version 25","List 25",grape,,733,6.214285714,1156,0.457304665,734,BOI,-,-,"Please name all of the ways you could use this object. Keep in mind that one object can have many uses. Separate your responses with a comma.",,y,4118,,,1477,3421,,,,"wine, snack",1
63d0222ddec45c91058a3430,4a4gpiq97w,"Affordance Norms_Prolific",1,33,2023-05-10T22:52:29+00:00,14.288085222244,25,"updated stim.csv",Version25.csv,"Version 25","List 25",salmon,,748,4.454545455,2224,0.308621104,749,BOI,-,-,"Please name all of the ways you could use this object. Keep in mind that one object can have many uses. Separate your responses with a comma.",,y,13287,,,1918,12958,,,,"sushi, pan-seared",1
63d0222ddec45c91058a3430,4a4gpiq97w,"Affordance Norms_Prolific",1,34,2023-05-10T22:52:37+00:00,7.2731418609619,25,"updated stim.csv",Version25.csv,"Version 25","List 25",drunkard,,739,4.571428571,856,0.285998193,740,BOI,-,-,"Please name all of the ways you could use this object. Keep in mind that one object can have many uses. Separate your responses with a comma.",,y,6481,,,5585,6126,,,,nothing,1
63d0222ddec45c91058a3430,4a4gpiq97w,"Affordance Norms_Prolific",1,35,2023-05-10T22:52:43+00:00,6.1976640224457,25,"updated stim.csv",Version25.csv,"Version 25","List 25",turntable,,725,5.347826087,2804,0.886697019,726,BOI,-,-,"Please name all of the ways you could use this object. Keep in mind that one object can have many uses. Separate your responses with a comma.",,y,5531,,,3029,5161,,,,music,1
63d0222ddec45c91058a3430,4a4gpiq97w,"Affordance Norms_Prolific",1,36,2023-05-10T22:52:50+00:00,6.7788429260254,25,"updated stim.csv",Version25.csv,"Version 25","List 25",carpet,,728,6.041666667,437,0.091069871,729,BOI,-,-,"Please name all of the ways you could use this object. Keep in mind that one object can have many uses. Separate your responses with a comma.",,y,6012,,,3775,5374,,,,"goes on floor",1
63d0222ddec45c91058a3430,4a4gpiq97w,"Affordance Norms_Prolific",1,37,2023-05-10T22:52:52+00:00,2.4736661911011,25,"updated stim.csv",Version25.csv,"Version 25","List 25",cod,,732,4.458333333,591,0.408947955,733,BOI,-,-,"Please name all of the ways you could use this object. Keep in mind that one object can have many uses. Separate your responses with a comma.",,y,1752,,,1248,1746,,,,food],1
63d0222ddec45c91058a3430,4a4gpiq97w,"Affordance Norms_Prolific",1,38,2023-05-10T22:53:01+00:00,8.7541007995605,25,"updated stim.csv",Version25.csv,"Version 25","List 25",housemaid,,724,4.84,1332,0.082167944,725,BOI,-,-,"Please name all of the ways you could use this object. Keep in mind that one object can have many uses. Separate your responses with a comma.",,y,7952,,,3239,7535,,,,"chores, teaching",1
63d0222ddec45c91058a3430,4a4gpiq97w,"Affordance Norms_Prolific",1,39,2023-05-10T22:53:05+00:00,3.9140961170197,25,"updated stim.csv",Version25.csv,"Version 25","List 25",polyester,,738,5.086956522,2025,0.486062522,739,BOI,-,-,"Please name all of the ways you could use this object. Keep in mind that one object can have many uses. Separate your responses with a comma.",,y,2913,,,1817,2737,,,,clothes,1
63d0222ddec45c91058a3430,4a4gpiq97w,"Affordance Norms_Prolific",1,40,2023-05-10T22:53:20+00:00,15.398686885834,25,"updated stim.csv",Version25.csv,"Version 25","List 25",sandcastle,,741,5.095238095,2236,0.511491024,742,BOI,-,-,"Please name all of the ways you could use this object. Keep in mind that one object can have many uses. Separate your responses with a comma.",,y,14473,,,3053,13885,,,,entertainment,1
63d0222ddec45c91058a3430,4a4gpiq97w,"Affordance Norms_Prolific",1,41,2023-05-10T22:53:23+00:00,2.961629152298,25,"updated stim.csv",Version25.csv,"Version 25","List 25",,,,,,,0,Instruct,,,"You will now be asked a few questions about your experience today.",,"Instruct 4",2076,,,-1,-1,,,,,1
