Username,ID,ExperimentName,Session,Trial,Date,TimeDif,"Condition Number","Stimuli File","Order File","Condition Description","Condition Notes",Stimuli*Cue,Stimuli*Answer,Stimuli*Shuffle,"Stimuli*Stimuli Notes",Stimuli*Value,Stimuli*Rand,Procedure*Item,"Procedure*Trial Type","Procedure*Max Time","Procedure*Min Time",Procedure*Text,"Procedure*Procedure Notes",Procedure*Shuffle,Response*RT,Response*Response,Response*Accuracy,Response*RTfirst,Response*RTlast,Response*strictAcc,Response*lenientAcc,Response*focus,Response*JOL,Response*Focus
6384d0078a415eacb99de0f6,kyc2c83f97,"Affordance Norms_Prolific",1,1,2023-05-09T20:17:10+00:00,11.74399805069,38,"updated stim.csv",Version38.csv,"Version 38","List 38",,,,,,,0,Instruct,-,10,"In this section, you will be presented with a series of objects. Please name as many possible uses for this object as you can think of by typing them in the box below each object.",,Instruct1,10963,,,-1,-1,,,,,1
6384d0078a415eacb99de0f6,kyc2c83f97,"Affordance Norms_Prolific",1,2,2023-05-09T20:17:25+00:00,15.054063081741,38,"updated stim.csv",Version38.csv,"Version 38","List 38",,,,,,,0,Instruct,-,10,"Please keep in mind that a single object will have more than one use. For example, a ball can be thrown or can be bounced or even stepped on. When listing multiple uses for one object, please separate each use with a comma (i.e., thrown, bounced, stepped on)",,Instruct2,14040,,,-1,-1,,,,,1
6384d0078a415eacb99de0f6,kyc2c83f97,"Affordance Norms_Prolific",1,3,2023-05-09T20:17:28+00:00,3.6139600276947,38,"updated stim.csv",Version38.csv,"Version 38","List 38",,,,,,,0,Instruct,-,-,"Before starting the experiment, you will complete a short practice sesstion. Press ENTER when you are ready to begin.",,Instruct3,2787,,,-1,-1,,,,,1
6384d0078a415eacb99de0f6,kyc2c83f97,"Affordance Norms_Prolific",1,4,2023-05-09T20:17:59+00:00,30.688230991364,38,"updated stim.csv",Version38.csv,"Version 38","List 38",saucer,,3005,5.777777778,2249,0.304808074,3006,BOI,-,-,"Please name all of the ways you could use this object. Keep in mind that one object can have many uses. Separate your responses with a comma.",,n,29664,,,6224,28205,,,,"hold, fling, smash, sit a cup on, wash, spin",1
6384d0078a415eacb99de0f6,kyc2c83f97,"Affordance Norms_Prolific",1,5,2023-05-09T20:18:30+00:00,31.423542976379,38,"updated stim.csv",Version38.csv,"Version 38","List 38",paperwork,,3001,5.625,1866,0.124284162,3002,BOI,-,-,"Please name all of the ways you could use this object. Keep in mind that one object can have many uses. Separate your responses with a comma.",,n,30354,,,5964,28248,,,,"read, file, rip, shred, burn, fold, drop",1
6384d0078a415eacb99de0f6,kyc2c83f97,"Affordance Norms_Prolific",1,6,2023-05-09T20:19:03+00:00,32.071085929871,38,"updated stim.csv",Version38.csv,"Version 38","List 38",shortening,,3002,4.92,2358,0.604328482,3003,BOI,-,-,"Please name all of the ways you could use this object. Keep in mind that one object can have many uses. Separate your responses with a comma.",,n,30921,,,19787,29369,,,,"cook, hold, melt, rub",0.891
6384d0078a415eacb99de0f6,kyc2c83f97,"Affordance Norms_Prolific",1,7,2023-05-09T20:19:35+00:00,31.997949123383,38,"updated stim.csv",Version38.csv,"Version 38","List 38",grain,,3004,5.217391304,1143,0.226863762,3005,BOI,-,-,"Please name all of the ways you could use this object. Keep in mind that one object can have many uses. Separate your responses with a comma.",,n,30843,,,2876,29238,,,,"grind, dust, plant, eat, sprinkle",1
6384d0078a415eacb99de0f6,kyc2c83f97,"Affordance Norms_Prolific",1,8,2023-05-09T20:19:57+00:00,22.717597961426,38,"updated stim.csv",Version38.csv,"Version 38","List 38",spaghetti,,3003,6,2461,0.090379998,3004,BOI,-,-,"Please name all of the ways you could use this object. Keep in mind that one object can have many uses. Separate your responses with a comma.",,n,21214,,,5231,15181,,,,"cook, eat, break, crunch",1
6384d0078a415eacb99de0f6,kyc2c83f97,"Affordance Norms_Prolific",1,9,2023-05-09T20:20:00+00:00,2.8368909358978,38,"updated stim.csv",Version38.csv,"Version 38","List 38",,,,,,,0,Instruct,-,-,"You have completed this section. Press ENTER to continue",,"Instruct 5",2102,,,-1,-1,,,,,1
6384d0078a415eacb99de0f6,kyc2c83f97,"Affordance Norms_Prolific",1,10,2023-05-09T20:20:10+00:00,10.045896053314,38,"updated stim.csv",Version38.csv,"Version 38","List 38",,,,,,,0,Instruct,-,-,"You will now start the full experiment. Press ENTER when you are ready to begin.",,,8892,,,-1,-1,,,,,1
6384d0078a415eacb99de0f6,kyc2c83f97,"Affordance Norms_Prolific",1,11,2023-05-09T20:20:33+00:00,22.54974603653,38,"updated stim.csv",Version38.csv,"Version 38","List 38",rhinestone,,1116,5.291666667,2162,0.764546581,1117,BOI,-,-,"Please name all of the ways you could use this object. Keep in mind that one object can have many uses. Separate your responses with a comma.",,y,21522,,,3534,20642,,,,"decorate, hold, sew, polish",1
6384d0078a415eacb99de0f6,kyc2c83f97,"Affordance Norms_Prolific",1,12,2023-05-09T20:20:45+00:00,12.058399915695,38,"updated stim.csv",Version38.csv,"Version 38","List 38",mosquito,,1136,4.4,1687,0.362043012,1137,BOI,-,-,"Please name all of the ways you could use this object. Keep in mind that one object can have many uses. Separate your responses with a comma.",,y,10860,,,3459,4729,,,,swat,1
6384d0078a415eacb99de0f6,kyc2c83f97,"Affordance Norms_Prolific",1,13,2023-05-09T20:20:56+00:00,11.084017038345,38,"updated stim.csv",Version38.csv,"Version 38","List 38",cock,,1135,5.04,586,0.404077222,1136,BOI,-,-,"Please name all of the ways you could use this object. Keep in mind that one object can have many uses. Separate your responses with a comma.",,y,10021,,,4629,8182,,,,"hold, kiss, suck",1
6384d0078a415eacb99de0f6,kyc2c83f97,"Affordance Norms_Prolific",1,14,2023-05-09T20:21:08+00:00,11.845447063446,38,"updated stim.csv",Version38.csv,"Version 38","List 38",amphibian,,1128,4.357142857,37,0.854205204,1129,BOI,-,-,"Please name all of the ways you could use this object. Keep in mind that one object can have many uses. Separate your responses with a comma.",,y,10757,,,5823,9530,,,,"swim, walk",1
6384d0078a415eacb99de0f6,kyc2c83f97,"Affordance Norms_Prolific",1,15,2023-05-09T20:21:21+00:00,13.100849866867,38,"updated stim.csv",Version38.csv,"Version 38","List 38",forceps,,1118,4.869565217,1041,0.373524564,1119,BOI,-,-,"Please name all of the ways you could use this object. Keep in mind that one object can have many uses. Separate your responses with a comma.",,y,11914,,,3079,11332,,,,"grip, hold, pull, twist, turn",1
6384d0078a415eacb99de0f6,kyc2c83f97,"Affordance Norms_Prolific",1,16,2023-05-09T20:21:33+00:00,12.528105974197,38,"updated stim.csv",Version38.csv,"Version 38","List 38",shuttle,,1126,4.695652174,2372,0.501454535,1127,BOI,-,-,"Please name all of the ways you could use this object. Keep in mind that one object can have many uses. Separate your responses with a comma.",,y,11282,,,4171,10159,,,,"hit, swat, smash",1
6384d0078a415eacb99de0f6,kyc2c83f97,"Affordance Norms_Prolific",1,17,2023-05-09T20:21:44+00:00,10.824773073196,38,"updated stim.csv",Version38.csv,"Version 38","List 38",shrub,,1137,5.259259259,2368,0.148866381,1138,BOI,-,-,"Please name all of the ways you could use this object. Keep in mind that one object can have many uses. Separate your responses with a comma.",,y,9634,,,2535,8946,,,,"trim, plant, water, smell",1
6384d0078a415eacb99de0f6,kyc2c83f97,"Affordance Norms_Prolific",1,18,2023-05-09T20:22:02+00:00,18.026091098785,38,"updated stim.csv",Version38.csv,"Version 38","List 38",tuxedo,,1119,5.259259259,2809,0.354602152,1120,BOI,-,-,"Please name all of the ways you could use this object. Keep in mind that one object can have many uses. Separate your responses with a comma.",,y,17073,,,2331,16204,,,,"wear, trim, iron, brush, clean",1
6384d0078a415eacb99de0f6,kyc2c83f97,"Affordance Norms_Prolific",1,19,2023-05-09T20:22:22+00:00,20.068203926086,38,"updated stim.csv",Version38.csv,"Version 38","List 38",trucks,,1129,6.2,2786,0.24192954,1130,BOI,-,-,"Please name all of the ways you could use this object. Keep in mind that one object can have many uses. Separate your responses with a comma.",,y,18614,,,3569,17939,,,,"drive, push, pull, load, unload",1
6384d0078a415eacb99de0f6,kyc2c83f97,"Affordance Norms_Prolific",1,20,2023-05-09T20:22:43+00:00,20.962393045425,38,"updated stim.csv",Version38.csv,"Version 38","List 38",stamp,,1130,5.304347826,2506,0.459475683,1131,BOI,-,-,"Please name all of the ways you could use this object. Keep in mind that one object can have many uses. Separate your responses with a comma.",,y,20029,,,3573,19382,,,,"hit, punch, mark",1
6384d0078a415eacb99de0f6,kyc2c83f97,"Affordance Norms_Prolific",1,21,2023-05-09T20:22:53+00:00,10.283037900925,38,"updated stim.csv",Version38.csv,"Version 38","List 38",algae,,1140,4.458333333,27,0.687227414,1141,BOI,-,-,"Please name all of the ways you could use this object. Keep in mind that one object can have many uses. Separate your responses with a comma.",,y,9199,,,2497,5644,,,,"scrape, clean",1
6384d0078a415eacb99de0f6,kyc2c83f97,"Affordance Norms_Prolific",1,22,2023-05-09T20:23:09+00:00,15.559333086014,38,"updated stim.csv",Version38.csv,"Version 38","List 38",flask,,1131,5.416666667,1003,0.410538704,1132,BOI,-,-,"Please name all of the ways you could use this object. Keep in mind that one object can have many uses. Separate your responses with a comma.",,y,14462,,,2576,8138,,,,"fill, drink, pour",1
6384d0078a415eacb99de0f6,kyc2c83f97,"Affordance Norms_Prolific",1,23,2023-05-09T20:23:23+00:00,14.225129842758,38,"updated stim.csv",Version38.csv,"Version 38","List 38",cathedral,,1132,4.5,460,0.986915949,1133,BOI,-,-,"Please name all of the ways you could use this object. Keep in mind that one object can have many uses. Separate your responses with a comma.",,y,13235,,,1538,10157,,,,"sit, worship, pray, sing",1
6384d0078a415eacb99de0f6,kyc2c83f97,"Affordance Norms_Prolific",1,24,2023-05-09T20:23:36+00:00,13.011474132538,38,"updated stim.csv",Version38.csv,"Version 38","List 38",wheelhouse,,1112,4.434782609,2924,0.948512904,1113,BOI,-,-,"Please name all of the ways you could use this object. Keep in mind that one object can have many uses. Separate your responses with a comma.",,y,11927,,,2044,11401,,,,"drive, steer, pilot, captain",1
6384d0078a415eacb99de0f6,kyc2c83f97,"Affordance Norms_Prolific",1,25,2023-05-09T20:23:48+00:00,11.367806911469,38,"updated stim.csv",Version38.csv,"Version 38","List 38",hog,,1125,4.407407407,1295,0.339782842,1126,BOI,-,-,"Please name all of the ways you could use this object. Keep in mind that one object can have many uses. Separate your responses with a comma.",,y,10383,,,2652,9755,,,,"sweat, eat, chase, wrestle",1
6384d0078a415eacb99de0f6,kyc2c83f97,"Affordance Norms_Prolific",1,26,2023-05-09T20:24:09+00:00,21.109512090683,38,"updated stim.csv",Version38.csv,"Version 38","List 38",playground,,1111,4.695652174,2000,0.897793338,1112,BOI,-,-,"Please name all of the ways you could use this object. Keep in mind that one object can have many uses. Separate your responses with a comma.",,y,20131,,,2000,17836,,,,"play, run, swing",1
6384d0078a415eacb99de0f6,kyc2c83f97,"Affordance Norms_Prolific",1,27,2023-05-09T20:24:33+00:00,24.045858860016,38,"updated stim.csv",Version38.csv,"Version 38","List 38",yacht,,1115,4.88,2987,0.325030182,1116,BOI,-,-,"Please name all of the ways you could use this object. Keep in mind that one object can have many uses. Separate your responses with a comma.",,y,23013,,,3448,22538,,,,"sail, pilot, crash, sink, ground",1
6384d0078a415eacb99de0f6,kyc2c83f97,"Affordance Norms_Prolific",1,28,2023-05-09T20:24:42+00:00,8.762020111084,38,"updated stim.csv",Version38.csv,"Version 38","List 38",entomologist,,1127,4.583333333,911,0.614583519,1128,BOI,-,-,"Please name all of the ways you could use this object. Keep in mind that one object can have many uses. Separate your responses with a comma.",,y,7823,,,5813,7233,,,,question,1
6384d0078a415eacb99de0f6,kyc2c83f97,"Affordance Norms_Prolific",1,29,2023-05-09T20:24:50+00:00,8.8480460643768,38,"updated stim.csv",Version38.csv,"Version 38","List 38",crucifix,,1134,5.68,712,0.375137674,1135,BOI,-,-,"Please name all of the ways you could use this object. Keep in mind that one object can have many uses. Separate your responses with a comma.",,y,7842,,,1439,7382,,,,"wear, swing, hit",1
6384d0078a415eacb99de0f6,kyc2c83f97,"Affordance Norms_Prolific",1,30,2023-05-09T20:25:07+00:00,16.590569972992,38,"updated stim.csv",Version38.csv,"Version 38","List 38",masseuse,,1113,5.086956522,1616,0.143923019,1114,BOI,-,-,"Please name all of the ways you could use this object. Keep in mind that one object can have many uses. Separate your responses with a comma.",,y,15613,,,5467,7935,,,,"rub, massage",1
6384d0078a415eacb99de0f6,kyc2c83f97,"Affordance Norms_Prolific",1,31,2023-05-09T20:25:20+00:00,12.797575950623,38,"updated stim.csv",Version38.csv,"Version 38","List 38",vegetable,,1138,6.391304348,2841,0.189885729,1139,BOI,-,-,"Please name all of the ways you could use this object. Keep in mind that one object can have many uses. Separate your responses with a comma.",,y,11832,,,1440,11280,,,,"eat, cook, peel, grow",1
6384d0078a415eacb99de0f6,kyc2c83f97,"Affordance Norms_Prolific",1,32,2023-05-09T20:25:31+00:00,11.548640966415,38,"updated stim.csv",Version38.csv,"Version 38","List 38",horn,,1114,5.291666667,1311,0.976975589,1115,BOI,-,-,"Please name all of the ways you could use this object. Keep in mind that one object can have many uses. Separate your responses with a comma.",,y,10520,,,2234,9346,,,,"press, blast, honk",1
6384d0078a415eacb99de0f6,kyc2c83f97,"Affordance Norms_Prolific",1,33,2023-05-09T20:25:47+00:00,15.498158931732,38,"updated stim.csv",Version38.csv,"Version 38","List 38",steamboat,,1117,4.541666667,2516,0.220694021,1118,BOI,-,-,"Please name all of the ways you could use this object. Keep in mind that one object can have many uses. Separate your responses with a comma.",,y,14563,,,3671,13023,,,,"captain, steer, embark",1
6384d0078a415eacb99de0f6,kyc2c83f97,"Affordance Norms_Prolific",1,34,2023-05-09T20:26:13+00:00,26.553196191788,38,"updated stim.csv",Version38.csv,"Version 38","List 38",maidservant,,1121,4.333333333,1576,0.698218704,1122,BOI,-,-,"Please name all of the ways you could use this object. Keep in mind that one object can have many uses. Separate your responses with a comma.",,y,25484,,,10455,23129,,,,"fetch, carry, serve, dress, cook, ",1
6384d0078a415eacb99de0f6,kyc2c83f97,"Affordance Norms_Prolific",1,35,2023-05-09T20:26:29+00:00,15.594597816467,38,"updated stim.csv",Version38.csv,"Version 38","List 38",generator,,1139,4.47826087,1094,0.708062581,1140,BOI,-,-,"Please name all of the ways you could use this object. Keep in mind that one object can have many uses. Separate your responses with a comma.",,y,14624,,,2065,9750,,,,"power, drive, shock",1
6384d0078a415eacb99de0f6,kyc2c83f97,"Affordance Norms_Prolific",1,36,2023-05-09T20:27:10+00:00,40.663612127304,38,"updated stim.csv",Version38.csv,"Version 38","List 38",earphone,,1133,5.52173913,877,0.340328788,1134,BOI,-,-,"Please name all of the ways you could use this object. Keep in mind that one object can have many uses. Separate your responses with a comma.",,y,39593,,,1424,39028,,,,"listen, hear, press",1
6384d0078a415eacb99de0f6,kyc2c83f97,"Affordance Norms_Prolific",1,37,2023-05-09T20:27:19+00:00,9.5587079524994,38,"updated stim.csv",Version38.csv,"Version 38","List 38",birthmark,,1123,4.333333333,223,0.501657581,1124,BOI,-,-,"Please name all of the ways you could use this object. Keep in mind that one object can have many uses. Separate your responses with a comma.",,y,7919,,,2031,4516,,,,hide,1
6384d0078a415eacb99de0f6,kyc2c83f97,"Affordance Norms_Prolific",1,38,2023-05-09T20:27:33+00:00,13.609101057053,38,"updated stim.csv",Version38.csv,"Version 38","List 38",lapdog,,1124,4.739130435,1465,0.335948226,1125,BOI,-,-,"Please name all of the ways you could use this object. Keep in mind that one object can have many uses. Separate your responses with a comma.",,y,12650,,,2988,11414,,,,"brush, pet, comb, tickle",1
6384d0078a415eacb99de0f6,kyc2c83f97,"Affordance Norms_Prolific",1,39,2023-05-09T20:27:47+00:00,13.725056886673,38,"updated stim.csv",Version38.csv,"Version 38","List 38",clarinet,,1122,5.923076923,548,0.471063365,1123,BOI,-,-,"Please name all of the ways you could use this object. Keep in mind that one object can have many uses. Separate your responses with a comma.",,y,12757,,,2602,12318,,,,"play, honk, blast, screech",1
6384d0078a415eacb99de0f6,kyc2c83f97,"Affordance Norms_Prolific",1,40,2023-05-09T20:27:53+00:00,6.8637700080872,38,"updated stim.csv",Version38.csv,"Version 38","List 38",gunnysack,,1120,4.666666667,1200,0.457718486,1121,BOI,-,-,"Please name all of the ways you could use this object. Keep in mind that one object can have many uses. Separate your responses with a comma.",,y,5743,,,3415,5311,,,,"hold, carry",1
6384d0078a415eacb99de0f6,kyc2c83f97,"Affordance Norms_Prolific",1,41,2023-05-09T20:27:56+00:00,2.2979390621185,38,"updated stim.csv",Version38.csv,"Version 38","List 38",,,,,,,0,Instruct,,,"You will now be asked a few questions about your experience today.",,"Instruct 4",1529,,,-1,-1,,,,,1
