Username,ID,ExperimentName,Session,Trial,Date,TimeDif,"Condition Number","Stimuli File","Order File","Condition Description","Condition Notes",Stimuli*Cue,Stimuli*Answer,Stimuli*Shuffle,"Stimuli*Stimuli Notes",Stimuli*Value,Stimuli*Rand,Procedure*Item,"Procedure*Trial Type","Procedure*Max Time","Procedure*Min Time",Procedure*Text,"Procedure*Procedure Notes",Procedure*Shuffle,Response*RT,Response*Response,Response*Accuracy,Response*RTfirst,Response*RTlast,Response*strictAcc,Response*lenientAcc,Response*focus,Response*JOL,Response*Focus
57165ba7c5aca2000a8d32ca,v6wn803xfi,"Affordance Norms_Prolific",1,1,2023-05-09T17:16:24+00:00,146.13239002228,4,"updated stim.csv",Version4.csv,"Version 4","List 4",,,,,,,0,Instruct,-,10,"In this section, you will be presented with a series of objects. Please name as many possible uses for this object as you can think of by typing them in the box below each object.",,Instruct1,145697,,,-1,-1,,,,,0.357
57165ba7c5aca2000a8d32ca,v6wn803xfi,"Affordance Norms_Prolific",1,2,2023-05-09T17:17:33+00:00,68.723628997803,4,"updated stim.csv",Version4.csv,"Version 4","List 4",,,,,,,0,Instruct,-,10,"Please keep in mind that a single object will have more than one use. For example, a ball can be thrown or can be bounced or even stepped on. When listing multiple uses for one object, please separate each use with a comma (i.e., thrown, bounced, stepped on)",,Instruct2,67845,,,-1,-1,,,,,0.521
57165ba7c5aca2000a8d32ca,v6wn803xfi,"Affordance Norms_Prolific",1,3,2023-05-09T17:17:35+00:00,2.0816478729248,4,"updated stim.csv",Version4.csv,"Version 4","List 4",,,,,,,0,Instruct,-,-,"Before starting the experiment, you will complete a short practice sesstion. Press ENTER when you are ready to begin.",,Instruct3,1619,,,-1,-1,,,,,1
57165ba7c5aca2000a8d32ca,v6wn803xfi,"Affordance Norms_Prolific",1,4,2023-05-09T17:21:19+00:00,223.98433303833,4,"updated stim.csv",Version4.csv,"Version 4","List 4",spaghetti,,3003,6,2461,0.090379998,3004,BOI,-,-,"Please name all of the ways you could use this object. Keep in mind that one object can have many uses. Separate your responses with a comma.",,n,223425,,,8670,19015,,,,"Eat, cook, boil, cover, top",0.547
57165ba7c5aca2000a8d32ca,v6wn803xfi,"Affordance Norms_Prolific",1,5,2023-05-09T17:22:08+00:00,49.379461050034,4,"updated stim.csv",Version4.csv,"Version 4","List 4",saucer,,3005,5.777777778,2249,0.304808074,3006,BOI,-,-,"Please name all of the ways you could use this object. Keep in mind that one object can have many uses. Separate your responses with a comma.",,n,48485,,,20163,45791,,,,"placing a coffee cup, a flying saucer, wash it, dry it, break it, make it, ",0.967
57165ba7c5aca2000a8d32ca,v6wn803xfi,"Affordance Norms_Prolific",1,6,2023-05-09T17:22:49+00:00,40.895128011703,4,"updated stim.csv",Version4.csv,"Version 4","List 4",shortening,,3002,4.92,2358,0.604328482,3003,BOI,-,-,"Please name all of the ways you could use this object. Keep in mind that one object can have many uses. Separate your responses with a comma.",,n,40436,,,13384,39459,,,,"you can shorten stuff, you can reduce the size of something",1
57165ba7c5aca2000a8d32ca,v6wn803xfi,"Affordance Norms_Prolific",1,7,2023-05-09T17:23:33+00:00,44.345071077347,4,"updated stim.csv",Version4.csv,"Version 4","List 4",paperwork,,3001,5.625,1866,0.124284162,3002,BOI,-,-,"Please name all of the ways you could use this object. Keep in mind that one object can have many uses. Separate your responses with a comma.",,n,43885,,,1974,42893,,,,"you can read it, you can shred it, you can save it, you can write it, you can burn it, you can lock it in a filing cabinet, you can sue people with it, you can plagiarise it, you can make paper aeroplanes out of it.",1
57165ba7c5aca2000a8d32ca,v6wn803xfi,"Affordance Norms_Prolific",1,8,2023-05-09T17:24:20+00:00,46.942032814026,4,"updated stim.csv",Version4.csv,"Version 4","List 4",grain,,3004,5.217391304,1143,0.226863762,3005,BOI,-,-,"Please name all of the ways you could use this object. Keep in mind that one object can have many uses. Separate your responses with a comma.",,n,46493,,,1573,44248,,,,"you can eat it, you can make cereal out of it, you can feed it to pigs, you can feed it to chickens, you can feed it to ducks, you can mill it into flour then you can bake it into bread, or croissants.",1
57165ba7c5aca2000a8d32ca,v6wn803xfi,"Affordance Norms_Prolific",1,9,2023-05-09T17:24:23+00:00,2.7956221103668,4,"updated stim.csv",Version4.csv,"Version 4","List 4",,,,,,,0,Instruct,-,-,"You have completed this section. Press ENTER to continue",,"Instruct 5",2045,,,-1,-1,,,,,1
57165ba7c5aca2000a8d32ca,v6wn803xfi,"Affordance Norms_Prolific",1,10,2023-05-09T17:24:28+00:00,4.6935498714447,4,"updated stim.csv",Version4.csv,"Version 4","List 4",,,,,,,0,Instruct,-,-,"You will now start the full experiment. Press ENTER when you are ready to begin.",,,4239,,,-1,-1,,,,,1
57165ba7c5aca2000a8d32ca,v6wn803xfi,"Affordance Norms_Prolific",1,11,2023-05-09T17:25:10+00:00,42.160178184509,4,"updated stim.csv",Version4.csv,"Version 4","List 4",stove,,109,5.75,2555,0.06185654,110,BOI,-,-,"Please name all of the ways you could use this object. Keep in mind that one object can have many uses. Separate your responses with a comma.",,y,41688,,,2574,40582,,,,"you can cook on it, you can stub your toe on it, you can clean it, you can put stuff on it, you can burn your house down with it, you can burn a finger on it, you can burn a toe on it.",1
57165ba7c5aca2000a8d32ca,v6wn803xfi,"Affordance Norms_Prolific",1,12,2023-05-09T17:25:57+00:00,46.731737852097,4,"updated stim.csv",Version4.csv,"Version 4","List 4",sock,,108,5.833333333,2439,0.34499283,109,BOI,-,-,"Please name all of the ways you could use this object. Keep in mind that one object can have many uses. Separate your responses with a comma.",,y,46262,,,1523,44612,,,,"you can wear it, on your left or right feet, you can wash it, you can dry it, you can hang it on the washing line, you can throw it on the floor, you can throw it in the bin",1
57165ba7c5aca2000a8d32ca,v6wn803xfi,"Affordance Norms_Prolific",1,13,2023-05-09T17:26:15+00:00,18.309535980225,4,"updated stim.csv",Version4.csv,"Version 4","List 4",fireplace,,110,5.458333333,986,0.340651121,111,BOI,-,-,"Please name all of the ways you could use this object. Keep in mind that one object can have many uses. Separate your responses with a comma.",,y,17853,,,1201,16694,,,,"you can light it, you can add coal to it, you can warmup a house with it, you can burn down a house with it.",1
57165ba7c5aca2000a8d32ca,v6wn803xfi,"Affordance Norms_Prolific",1,14,2023-05-09T17:26:37+00:00,22.555904150009,4,"updated stim.csv",Version4.csv,"Version 4","List 4",pacifier,,101,6.090909091,1836,0.787837108,102,BOI,-,-,"Please name all of the ways you could use this object. Keep in mind that one object can have many uses. Separate your responses with a comma.",,y,22098,,,1307,20821,,,,"you can make babies shut up with it, you can put it in a babies mouth, you can wash it,",1
57165ba7c5aca2000a8d32ca,v6wn803xfi,"Affordance Norms_Prolific",1,15,2023-05-09T17:27:00+00:00,22.217409849167,4,"updated stim.csv",Version4.csv,"Version 4","List 4",ashtray,,103,5.44,84,0.252057786,104,BOI,-,-,"Please name all of the ways you could use this object. Keep in mind that one object can have many uses. Separate your responses with a comma.",,y,21754,,,1190,20077,,,,"you can put used cigarettes in it, you can wash it, you can throw it, you can empty it",1
57165ba7c5aca2000a8d32ca,v6wn803xfi,"Affordance Norms_Prolific",1,16,2023-05-09T17:27:54+00:00,54.134804010391,4,"updated stim.csv",Version4.csv,"Version 4","List 4",bloke,,100,4.541666667,240,0.465962689,101,BOI,-,-,"Please name all of the ways you could use this object. Keep in mind that one object can have many uses. Separate your responses with a comma.",,y,53673,,,2459,51893,,,,"you can talk to it, you can leave it alone, you can murder it, you can feed it, you can walk with it, you can hug it, you can kiss it, you can make babies with it, you can marry it, you can wash it.",1
57165ba7c5aca2000a8d32ca,v6wn803xfi,"Affordance Norms_Prolific",1,17,2023-05-09T17:28:48+00:00,54.242946147919,4,"updated stim.csv",Version4.csv,"Version 4","List 4",hippie,,105,4.56,1292,0.109871009,106,BOI,-,-,"Please name all of the ways you could use this object. Keep in mind that one object can have many uses. Separate your responses with a comma.",,y,53326,,,2227,51470,,,,"have sex with it, talk to it, eat with it, walk with it, dress with it, go on holiday with it, ignore it, drink with it, bury it, kill it, ",1
57165ba7c5aca2000a8d32ca,v6wn803xfi,"Affordance Norms_Prolific",1,18,2023-05-09T17:29:10+00:00,22.194993019104,4,"updated stim.csv",Version4.csv,"Version 4","List 4",calf,,119,5.08,402,0.030067237,120,BOI,-,-,"Please name all of the ways you could use this object. Keep in mind that one object can have many uses. Separate your responses with a comma.",,y,21755,,,2360,19622,,,,"eat it, kill it, moo to it, walk with it, nurture it, ",1
57165ba7c5aca2000a8d32ca,v6wn803xfi,"Affordance Norms_Prolific",1,19,2023-05-09T17:29:31+00:00,20.279826879501,4,"updated stim.csv",Version4.csv,"Version 4","List 4",nephew,,118,5.16,1750,0.027468228,119,BOI,-,-,"Please name all of the ways you could use this object. Keep in mind that one object can have many uses. Separate your responses with a comma.",,y,19822,,,2358,16020,,,,"you can hug it, take it shopping, talk to it, teach it, ",1
57165ba7c5aca2000a8d32ca,v6wn803xfi,"Affordance Norms_Prolific",1,20,2023-05-09T17:30:00+00:00,29.264605998993,4,"updated stim.csv",Version4.csv,"Version 4","List 4",chalice,,93,5.208333333,490,0.93770869,94,BOI,-,-,"Please name all of the ways you could use this object. Keep in mind that one object can have many uses. Separate your responses with a comma.",,y,28787,,,4948,27863,,,,"you can drink from it, you can pour a drink into it, you can clean it, you can make it, you can break it, you can make noises with it, you can cheers glasses with it.",1
57165ba7c5aca2000a8d32ca,v6wn803xfi,"Affordance Norms_Prolific",1,21,2023-05-09T17:30:28+00:00,28.551214933395,4,"updated stim.csv",Version4.csv,"Version 4","List 4",cube,,114,4.75,721,0.382136645,115,BOI,-,-,"Please name all of the ways you could use this object. Keep in mind that one object can have many uses. Separate your responses with a comma.",,y,28094,,,3257,26607,,,,"you can make a ruubix cube with it, you can stack them ontop of eachother, you can turn them into dice, you can build things with it.",1
57165ba7c5aca2000a8d32ca,v6wn803xfi,"Affordance Norms_Prolific",1,22,2023-05-09T17:30:56+00:00,28.13894200325,4,"updated stim.csv",Version4.csv,"Version 4","List 4",cable,,115,4.913043478,390,0.962937957,116,BOI,-,-,"Please name all of the ways you could use this object. Keep in mind that one object can have many uses. Separate your responses with a comma.",,y,27684,,,1393,26655,,,,"you can connect electrical objects with it, you can tie someone up with it, you can make it, you can break it, you can sell it, you can refuse it.",1
57165ba7c5aca2000a8d32ca,v6wn803xfi,"Affordance Norms_Prolific",1,23,2023-05-09T17:31:24+00:00,27.869868993759,4,"updated stim.csv",Version4.csv,"Version 4","List 4",blouse,,102,6.47826087,244,0.637010138,103,BOI,-,-,"Please name all of the ways you could use this object. Keep in mind that one object can have many uses. Separate your responses with a comma.",,y,27416,,,2052,26245,,,,"you can put it on, you can take it off, you can stitch it together, you can repair it, you can sell it, you can put it in the bin, you can dye it",1
57165ba7c5aca2000a8d32ca,v6wn803xfi,"Affordance Norms_Prolific",1,24,2023-05-09T17:31:53+00:00,28.924478054047,4,"updated stim.csv",Version4.csv,"Version 4","List 4",housecoat,,91,5.653846154,1329,0.879948299,92,BOI,-,-,"Please name all of the ways you could use this object. Keep in mind that one object can have many uses. Separate your responses with a comma.",,y,28060,,,2649,24385,,,,"you can put it on, you can use it like a blanket, you can repair it, you can wash it, you can buy it, you can make it, you can sell it, ",1
57165ba7c5aca2000a8d32ca,v6wn803xfi,"Affordance Norms_Prolific",1,25,2023-05-09T17:32:17+00:00,23.693408966064,4,"updated stim.csv",Version4.csv,"Version 4","List 4",Robot,,112,4.861185984,2182,0.615183644,113,BOI,-,-,"Please name all of the ways you could use this object. Keep in mind that one object can have many uses. Separate your responses with a comma.",,y,23217,,,1258,22206,,,,"you can talk to it, you can train it, you can help it, you can get it to help you, you can simplify your day to day tasks with it.",1
57165ba7c5aca2000a8d32ca,v6wn803xfi,"Affordance Norms_Prolific",1,26,2023-05-09T17:32:35+00:00,17.927226066589,4,"updated stim.csv",Version4.csv,"Version 4","List 4",fleece,,117,4.5,1006,0.638440057,118,BOI,-,-,"Please name all of the ways you could use this object. Keep in mind that one object can have many uses. Separate your responses with a comma.",,y,17479,,,1042,16401,,,,"you can wear it, you can buy it, you can sell it, you can stitch it, you can repair it, you can use it like a blanket.",1
57165ba7c5aca2000a8d32ca,v6wn803xfi,"Affordance Norms_Prolific",1,27,2023-05-09T17:32:58+00:00,22.722836971283,4,"updated stim.csv",Version4.csv,"Version 4","List 4",windowsill,,97,5.391304348,2944,0.762834183,98,BOI,-,-,"Please name all of the ways you could use this object. Keep in mind that one object can have many uses. Separate your responses with a comma.",,y,22258,,,1181,20502,,,,"you can lean on it, you can put a window above it.",1
57165ba7c5aca2000a8d32ca,v6wn803xfi,"Affordance Norms_Prolific",1,28,2023-05-09T17:33:17+00:00,18.936061143875,4,"updated stim.csv",Version4.csv,"Version 4","List 4",daybed,,95,5.28,761,0.138632098,96,BOI,-,-,"Please name all of the ways you could use this object. Keep in mind that one object can have many uses. Separate your responses with a comma.",,y,18456,,,1592,17390,,,,"you can sleep on it, you can rest on it, you can lay on eat, you can jump on it, you can eat on it.",1
57165ba7c5aca2000a8d32ca,v6wn803xfi,"Affordance Norms_Prolific",1,29,2023-05-09T17:33:34+00:00,17.019744873047,4,"updated stim.csv",Version4.csv,"Version 4","List 4",lounger,,98,4.692307692,1551,0.8649799,99,BOI,-,-,"Please name all of the ways you could use this object. Keep in mind that one object can have many uses. Separate your responses with a comma.",,y,16568,,,1186,15070,,,,"you can sunbathe on it, you can lay on it, you can sleep on it.",1
57165ba7c5aca2000a8d32ca,v6wn803xfi,"Affordance Norms_Prolific",1,30,2023-05-09T17:33:48+00:00,14.087645053864,4,"updated stim.csv",Version4.csv,"Version 4","List 4",grits,,120,5.291666667,1177,0.650827048,121,BOI,-,-,"Please name all of the ways you could use this object. Keep in mind that one object can have many uses. Separate your responses with a comma.",,y,13612,,,1011,12389,,,,"you can eat it, you can cook it, you can make it, you can give it to someone.",1
57165ba7c5aca2000a8d32ca,v6wn803xfi,"Affordance Norms_Prolific",1,31,2023-05-09T17:34:04+00:00,16.271077871323,4,"updated stim.csv",Version4.csv,"Version 4","List 4",chessboard,,111,6.04,512,0.022831047,112,BOI,-,-,"Please name all of the ways you could use this object. Keep in mind that one object can have many uses. Separate your responses with a comma.",,y,15810,,,1011,14201,,,,"you can play chess on it.",1
57165ba7c5aca2000a8d32ca,v6wn803xfi,"Affordance Norms_Prolific",1,32,2023-05-09T17:35:15+00:00,71.343438148499,4,"updated stim.csv",Version4.csv,"Version 4","List 4",step,,113,5.2,2522,0.855940638,114,BOI,-,-,"Please name all of the ways you could use this object. Keep in mind that one object can have many uses. Separate your responses with a comma.",,y,70772,,,53389,69258,,,,"step on it, make a staircase with it, elevate yourself on it, create a podium with it",0.679
57165ba7c5aca2000a8d32ca,v6wn803xfi,"Affordance Norms_Prolific",1,33,2023-05-09T17:35:40+00:00,24.887955904007,4,"updated stim.csv",Version4.csv,"Version 4","List 4",pool,,104,6.041666667,2033,0.323434189,105,BOI,-,-,"Please name all of the ways you could use this object. Keep in mind that one object can have many uses. Separate your responses with a comma.",,y,24033,,,1841,22542,,,,"swim in it, play it, reset it, clean it, play water polo in it,",1
57165ba7c5aca2000a8d32ca,v6wn803xfi,"Affordance Norms_Prolific",1,34,2023-05-09T17:35:55+00:00,15.295570135117,4,"updated stim.csv",Version4.csv,"Version 4","List 4",blazer,,106,5.652173913,233,0.291050238,107,BOI,-,-,"Please name all of the ways you could use this object. Keep in mind that one object can have many uses. Separate your responses with a comma.",,y,14823,,,1462,13740,,,,"wear it, repair it, wash it, clean it, buy it, sell it, write on it",1
57165ba7c5aca2000a8d32ca,v6wn803xfi,"Affordance Norms_Prolific",1,35,2023-05-09T17:36:14+00:00,18.271095991135,4,"updated stim.csv",Version4.csv,"Version 4","List 4",scalpel,,96,5.545454545,2263,0.063596043,97,BOI,-,-,"Please name all of the ways you could use this object. Keep in mind that one object can have many uses. Separate your responses with a comma.",,y,17763,,,4245,16507,,,,"operate on someone with it, clean it, make it, sell it, buy it, stab someone with it",0.976
57165ba7c5aca2000a8d32ca,v6wn803xfi,"Affordance Norms_Prolific",1,36,2023-05-09T17:36:35+00:00,20.942425012589,4,"updated stim.csv",Version4.csv,"Version 4","List 4",yam,,94,5.259259259,2989,0.89961033,95,BOI,-,-,"Please name all of the ways you could use this object. Keep in mind that one object can have many uses. Separate your responses with a comma.",,y,20491,,,2829,19523,,,,"eat it, cook with it, make a dish with it, grow it, sell it, buy it, chop it up, mash it",1
57165ba7c5aca2000a8d32ca,v6wn803xfi,"Affordance Norms_Prolific",1,37,2023-05-09T17:37:32+00:00,56.940640926361,4,"updated stim.csv",Version4.csv,"Version 4","List 4",preschooler,,116,4.409090909,2059,0.435620803,117,BOI,-,-,"Please name all of the ways you could use this object. Keep in mind that one object can have many uses. Separate your responses with a comma.",,y,56501,,,16002,54367,,,,"Talk to it, feed it, bathe it, clothe it, walk it, teach it",1
57165ba7c5aca2000a8d32ca,v6wn803xfi,"Affordance Norms_Prolific",1,38,2023-05-09T17:38:15+00:00,43.403094053268,4,"updated stim.csv",Version4.csv,"Version 4","List 4",kissing,,107,5.458333333,1423,0.486295703,108,BOI,-,-,"Please name all of the ways you could use this object. Keep in mind that one object can have many uses. Separate your responses with a comma.",,y,42397,,,24081,41145,,,,"to show affection, to initiate intercourse, to show a family member you love them",1
57165ba7c5aca2000a8d32ca,v6wn803xfi,"Affordance Norms_Prolific",1,39,2023-05-09T17:38:50+00:00,35.245059013367,4,"updated stim.csv",Version4.csv,"Version 4","List 4",drumstick,,99,5.708333333,855,0.1283264,100,BOI,-,-,"Please name all of the ways you could use this object. Keep in mind that one object can have many uses. Separate your responses with a comma.",,y,34748,,,9361,33630,,,,"eat it, play the drums with it, throw it in the bin, play music with it, make loud noises with it, chop it up, cook it",0.945
57165ba7c5aca2000a8d32ca,v6wn803xfi,"Affordance Norms_Prolific",1,40,2023-05-09T17:39:02+00:00,11.328293800354,4,"updated stim.csv",Version4.csv,"Version 4","List 4",valet,,92,4.625,2834,0.128717005,93,BOI,-,-,"Please name all of the ways you could use this object. Keep in mind that one object can have many uses. Separate your responses with a comma.",,y,10867,,,2341,9539,,,,"have your car cleaned by it",1
57165ba7c5aca2000a8d32ca,v6wn803xfi,"Affordance Norms_Prolific",1,41,2023-05-09T17:39:03+00:00,1.5807521343231,4,"updated stim.csv",Version4.csv,"Version 4","List 4",,,,,,,0,Instruct,,,"You will now be asked a few questions about your experience today.",,"Instruct 4",1106,,,-1,-1,,,,,1
