Username,ID,ExperimentName,Session,Trial,Date,TimeDif,"Condition Number","Stimuli File","Order File","Condition Description","Condition Notes",Stimuli*Cue,Stimuli*Answer,Stimuli*Shuffle,"Stimuli*Stimuli Notes",Stimuli*Value,Stimuli*Rand,Procedure*Item,"Procedure*Trial Type","Procedure*Max Time","Procedure*Min Time",Procedure*Text,"Procedure*Procedure Notes",Procedure*Shuffle,Response*RT,Response*Response,Response*Accuracy,Response*RTfirst,Response*RTlast,Response*strictAcc,Response*lenientAcc,Response*focus,Response*JOL,Response*Focus
5c92f797803bff0017fef8dd,1c3wkb1ie4,"Affordance Norms_Prolific",1,1,2023-05-10T23:03:55+00:00,32.181046962738,35,"updated stim.csv",Version35.csv,"Version 35","List 35",,,,,,,0,Instruct,-,10,"In this section, you will be presented with a series of objects. Please name as many possible uses for this object as you can think of by typing them in the box below each object.",,Instruct1,31905,,,-1,-1,,,,,0.019
5c92f797803bff0017fef8dd,1c3wkb1ie4,"Affordance Norms_Prolific",1,2,2023-05-10T23:04:21+00:00,26.397829055786,35,"updated stim.csv",Version35.csv,"Version 35","List 35",,,,,,,0,Instruct,-,10,"Please keep in mind that a single object will have more than one use. For example, a ball can be thrown or can be bounced or even stepped on. When listing multiple uses for one object, please separate each use with a comma (i.e., thrown, bounced, stepped on)",,Instruct2,25943,,,-1,-1,,,,,0.015
5c92f797803bff0017fef8dd,1c3wkb1ie4,"Affordance Norms_Prolific",1,3,2023-05-10T23:04:23+00:00,1.870306968689,35,"updated stim.csv",Version35.csv,"Version 35","List 35",,,,,,,0,Instruct,-,-,"Before starting the experiment, you will complete a short practice sesstion. Press ENTER when you are ready to begin.",,Instruct3,1417,,,-1,-1,,,,,0.5
5c92f797803bff0017fef8dd,1c3wkb1ie4,"Affordance Norms_Prolific",1,4,2023-05-10T23:05:01+00:00,38.492228984833,35,"updated stim.csv",Version35.csv,"Version 35","List 35",grain,,3004,5.217391304,1143,0.226863762,3005,BOI,-,-,"Please name all of the ways you could use this object. Keep in mind that one object can have many uses. Separate your responses with a comma.",,n,38033,,,7599,35662,,,,"you can count them, eat them, pile them up",0.581
5c92f797803bff0017fef8dd,1c3wkb1ie4,"Affordance Norms_Prolific",1,5,2023-05-10T23:05:19+00:00,17.876871824265,35,"updated stim.csv",Version35.csv,"Version 35","List 35",saucer,,3005,5.777777778,2249,0.304808074,3006,BOI,-,-,"Please name all of the ways you could use this object. Keep in mind that one object can have many uses. Separate your responses with a comma.",,n,17405,,,5257,15816,,,,"eating from it, throwing the saucer, using it as a hat, spin them",0.793
5c92f797803bff0017fef8dd,1c3wkb1ie4,"Affordance Norms_Prolific",1,6,2023-05-10T23:06:05+00:00,45.505046129227,35,"updated stim.csv",Version35.csv,"Version 35","List 35",shortening,,3002,4.92,2358,0.604328482,3003,BOI,-,-,"Please name all of the ways you could use this object. Keep in mind that one object can have many uses. Separate your responses with a comma.",,n,45032,,,23158,43950,,,,"you can shorten a book, you can shorten some clothes, you can shorten a story, you can shorten a sentence",0.544
5c92f797803bff0017fef8dd,1c3wkb1ie4,"Affordance Norms_Prolific",1,7,2023-05-10T23:06:52+00:00,47.216924905777,35,"updated stim.csv",Version35.csv,"Version 35","List 35",spaghetti,,3003,6,2461,0.090379998,3004,BOI,-,-,"Please name all of the ways you could use this object. Keep in mind that one object can have many uses. Separate your responses with a comma.",,n,46759,,,24885,45764,,,,"eating the spaghetti, cooking the spaghetti, mixing the spaghetti with other food, placing the spaghetti in a bowl or a plate",0.594
5c92f797803bff0017fef8dd,1c3wkb1ie4,"Affordance Norms_Prolific",1,8,2023-05-10T23:07:22+00:00,29.700813055038,35,"updated stim.csv",Version35.csv,"Version 35","List 35",paperwork,,3001,5.625,1866,0.124284162,3002,BOI,-,-,"Please name all of the ways you could use this object. Keep in mind that one object can have many uses. Separate your responses with a comma.",,n,29242,,,10816,28135,,,,"you can file paperwork, you can hand over paperwork, you can keep paperwork, you can read paperwork",0.932
5c92f797803bff0017fef8dd,1c3wkb1ie4,"Affordance Norms_Prolific",1,9,2023-05-10T23:07:25+00:00,2.8933999538422,35,"updated stim.csv",Version35.csv,"Version 35","List 35",,,,,,,0,Instruct,-,-,"You have completed this section. Press ENTER to continue",,"Instruct 5",2448,,,-1,-1,,,,,0.385
5c92f797803bff0017fef8dd,1c3wkb1ie4,"Affordance Norms_Prolific",1,10,2023-05-10T23:07:48+00:00,23.692541122437,35,"updated stim.csv",Version35.csv,"Version 35","List 35",,,,,,,0,Instruct,-,-,"You will now start the full experiment. Press ENTER when you are ready to begin.",,,23242,,,-1,-1,,,,,0.034
5c92f797803bff0017fef8dd,1c3wkb1ie4,"Affordance Norms_Prolific",1,11,2023-05-10T23:08:22+00:00,33.419546842575,35,"updated stim.csv",Version35.csv,"Version 35","List 35",cream,,1035,5.153846154,688,0.561859435,1036,BOI,-,-,"Please name all of the ways you could use this object. Keep in mind that one object can have many uses. Separate your responses with a comma.",,y,32965,,,21545,32024,,,,"you can eat cream, lick the cream, smell the cream, mix the cream with your food",0.436
5c92f797803bff0017fef8dd,1c3wkb1ie4,"Affordance Norms_Prolific",1,12,2023-05-10T23:09:08+00:00,46.158224105835,35,"updated stim.csv",Version35.csv,"Version 35","List 35",tobacco,,1038,5.666666667,2712,0.348773592,1039,BOI,-,-,"Please name all of the ways you could use this object. Keep in mind that one object can have many uses. Separate your responses with a comma.",,y,45684,,,33821,44390,,,,"smoke the tobacco, you can fill a pipe with tobacco, you can purchase tobacco",0.275
5c92f797803bff0017fef8dd,1c3wkb1ie4,"Affordance Norms_Prolific",1,13,2023-05-10T23:09:37+00:00,28.969897985458,35,"updated stim.csv",Version35.csv,"Version 35","List 35",corvette,,1043,5.875,654,0.484986472,1044,BOI,-,-,"Please name all of the ways you could use this object. Keep in mind that one object can have many uses. Separate your responses with a comma.",,y,28505,,,13354,27314,,,,"you can drive the corvette, you can clean the corvette, you can fix the corvette",0.566
5c92f797803bff0017fef8dd,1c3wkb1ie4,"Affordance Norms_Prolific",1,14,2023-05-10T23:10:07+00:00,29.937595129013,35,"updated stim.csv",Version35.csv,"Version 35","List 35",scar,,1025,4.608695652,2266,0.369745255,1026,BOI,-,-,"Please name all of the ways you could use this object. Keep in mind that one object can have many uses. Separate your responses with a comma.",,y,29477,,,17925,28308,,,,"you can touch a scar, you can show people a scar, you can talk about a scar",0.453
5c92f797803bff0017fef8dd,1c3wkb1ie4,"Affordance Norms_Prolific",1,15,2023-05-10T23:10:59+00:00,52.611020803452,35,"updated stim.csv",Version35.csv,"Version 35","List 35",broom,,1022,6.416666667,332,0.112184071,1023,BOI,-,-,"Please name all of the ways you could use this object. Keep in mind that one object can have many uses. Separate your responses with a comma.",,y,52154,,,29001,51241,,,,"you can clean with a broom, sweep with a broom, attack people with a broom, you can buy a broom",0.479
5c92f797803bff0017fef8dd,1c3wkb1ie4,"Affordance Norms_Prolific",1,16,2023-05-10T23:11:54+00:00,54.974287986755,35,"updated stim.csv",Version35.csv,"Version 35","List 35",shortcake,,1030,5.846153846,2357,0.658470232,1031,BOI,-,-,"Please name all of the ways you could use this object. Keep in mind that one object can have many uses. Separate your responses with a comma.",,y,54507,,,32263,53254,,,,"you can eat the shortcake, throw it in someone's face, you can smell a shortcake, you can stomp on a shortcake",0.451
5c92f797803bff0017fef8dd,1c3wkb1ie4,"Affordance Norms_Prolific",1,17,2023-05-10T23:12:30+00:00,35.320492982864,35,"updated stim.csv",Version35.csv,"Version 35","List 35",lint,,1048,5.04,1520,0.72200839,1049,BOI,-,-,"Please name all of the ways you could use this object. Keep in mind that one object can have many uses. Separate your responses with a comma.",,y,34867,,,16074,33746,,,,"you can pick up lint, you can throw lint away, you can clean lint, you can hoover lint",0.594
5c92f797803bff0017fef8dd,1c3wkb1ie4,"Affordance Norms_Prolific",1,18,2023-05-10T23:13:18+00:00,48.321016073227,35,"updated stim.csv",Version35.csv,"Version 35","List 35",goat,,1045,4.8,1122,0.331985791,1046,BOI,-,-,"Please name all of the ways you could use this object. Keep in mind that one object can have many uses. Separate your responses with a comma.",,y,47856,,,28520,46575,,,,"you can feed a goat, water a goat, you can ride a goat, you can play with a goat, you can milk a goat",0.429
5c92f797803bff0017fef8dd,1c3wkb1ie4,"Affordance Norms_Prolific",1,19,2023-05-10T23:13:55+00:00,37.270617961884,35,"updated stim.csv",Version35.csv,"Version 35","List 35",fountain,,1049,5.208333333,1050,0.633891842,1050,BOI,-,-,"Please name all of the ways you could use this object. Keep in mind that one object can have many uses. Separate your responses with a comma.",,y,36817,,,24719,35559,,,,"you can splash in a fountain, you can drink from a fountain, you can throw coins into a fountain",0.395
5c92f797803bff0017fef8dd,1c3wkb1ie4,"Affordance Norms_Prolific",1,20,2023-05-10T23:14:42+00:00,47.000586986542,35,"updated stim.csv",Version35.csv,"Version 35","List 35",neck,,1032,6.12,1738,0.15096981,1033,BOI,-,-,"Please name all of the ways you could use this object. Keep in mind that one object can have many uses. Separate your responses with a comma.",,y,46546,,,29922,45594,,,,"you can rest things on a neck, you can kiss a neck, you can bite a neck, you can smell a neck, you can touch a neck",0.468
5c92f797803bff0017fef8dd,1c3wkb1ie4,"Affordance Norms_Prolific",1,21,2023-05-10T23:15:44+00:00,62.146385192871,35,"updated stim.csv",Version35.csv,"Version 35","List 35",patrolman,,1044,4.814814815,1888,0.383790265,1045,BOI,-,-,"Please name all of the ways you could use this object. Keep in mind that one object can have many uses. Separate your responses with a comma.",,y,61538,,,46853,60493,,,,"talk to a patrolman, be a patrolman, be friends with a patrolman",0.269
5c92f797803bff0017fef8dd,1c3wkb1ie4,"Affordance Norms_Prolific",1,22,2023-05-10T23:16:43+00:00,58.359947919846,35,"updated stim.csv",Version35.csv,"Version 35","List 35",encyclopedia,,1042,6.16,906,0.733115728,1043,BOI,-,-,"Please name all of the ways you could use this object. Keep in mind that one object can have many uses. Separate your responses with a comma.",,y,57901,,,32113,56832,,,,"you can learn things, look up any topic, use it to hit someone with, put it under a table to keep one of the legs from being wonky",0.466
5c92f797803bff0017fef8dd,1c3wkb1ie4,"Affordance Norms_Prolific",1,23,2023-05-10T23:17:25+00:00,42.761481046677,35,"updated stim.csv",Version35.csv,"Version 35","List 35",nurse,,1033,5.130434783,1786,0.42839703,1034,BOI,-,-,"Please name all of the ways you could use this object. Keep in mind that one object can have many uses. Separate your responses with a comma.",,y,42291,,,20818,41106,,,,"ask a nurse for help, talk to them about their job, ask them lots of questions, help you when you're sick",0.557
5c92f797803bff0017fef8dd,1c3wkb1ie4,"Affordance Norms_Prolific",1,24,2023-05-10T23:18:07+00:00,41.602053880692,35,"updated stim.csv",Version35.csv,"Version 35","List 35",fence,,1046,5.62962963,962,0.462536133,1047,BOI,-,-,"Please name all of the ways you could use this object. Keep in mind that one object can have many uses. Separate your responses with a comma.",,y,41138,,,22671,35791,,,,"use it to block other people from getting into your garden, paint a fence, build a fence, knock down a fence,",0.481
5c92f797803bff0017fef8dd,1c3wkb1ie4,"Affordance Norms_Prolific",1,25,2023-05-10T23:18:51+00:00,44.281983137131,35,"updated stim.csv",Version35.csv,"Version 35","List 35",slipcover,,1036,5.409090909,2415,0.202075766,1037,BOI,-,-,"Please name all of the ways you could use this object. Keep in mind that one object can have many uses. Separate your responses with a comma.",,y,43820,,,29201,42721,,,,"you can put this over your chair or couch, you can use it as a blanket, hide things underneath it",0.451
5c92f797803bff0017fef8dd,1c3wkb1ie4,"Affordance Norms_Prolific",1,26,2023-05-10T23:19:48+00:00,56.640365839005,35,"updated stim.csv",Version35.csv,"Version 35","List 35",farmhand,,1026,4.4,948,0.830285329,1027,BOI,-,-,"Please name all of the ways you could use this object. Keep in mind that one object can have many uses. Separate your responses with a comma.",,y,56186,,,42337,55057,,,,"ask to help you out with your farm, tell them to get to work",0.297
5c92f797803bff0017fef8dd,1c3wkb1ie4,"Affordance Norms_Prolific",1,27,2023-05-10T23:20:31+00:00,43.455604076385,35,"updated stim.csv",Version35.csv,"Version 35","List 35",workbook,,1029,5.703703704,2969,0.59413977,1030,BOI,-,-,"Please name all of the ways you could use this object. Keep in mind that one object can have many uses. Separate your responses with a comma.",,y,42980,,,32149,42061,,,,"keep up to date with your work or class, write things down, keep notes",0.41
5c92f797803bff0017fef8dd,1c3wkb1ie4,"Affordance Norms_Prolific",1,28,2023-05-10T23:21:06+00:00,34.730591058731,35,"updated stim.csv",Version35.csv,"Version 35","List 35",watchmaker,,1050,4.56,2908,0.381450512,1051,BOI,-,-,"Please name all of the ways you could use this object. Keep in mind that one object can have many uses. Separate your responses with a comma.",,y,34279,,,24148,31860,,,,"get them to make you a watch",0.442
5c92f797803bff0017fef8dd,1c3wkb1ie4,"Affordance Norms_Prolific",1,29,2023-05-10T23:21:35+00:00,28.38520693779,35,"updated stim.csv",Version35.csv,"Version 35","List 35",creamer,,1047,5.24,689,0.976952276,1048,BOI,-,-,"Please name all of the ways you could use this object. Keep in mind that one object can have many uses. Separate your responses with a comma.",,y,27935,,,16021,27004,,,,"you can add this to your coffee, you can add this to your tea or milk",0.5
5c92f797803bff0017fef8dd,1c3wkb1ie4,"Affordance Norms_Prolific",1,30,2023-05-10T23:22:11+00:00,36.757751941681,35,"updated stim.csv",Version35.csv,"Version 35","List 35",receipt,,1028,5.28,2143,0.827374267,1029,BOI,-,-,"Please name all of the ways you could use this object. Keep in mind that one object can have many uses. Separate your responses with a comma.",,y,36256,,,20481,34353,,,,"you can rip up a receipt, ask for a receipt, you can read a receipt, eat a receipt",0.682
5c92f797803bff0017fef8dd,1c3wkb1ie4,"Affordance Norms_Prolific",1,31,2023-05-10T23:22:43+00:00,31.709695100784,35,"updated stim.csv",Version35.csv,"Version 35","List 35",caseworker,,1039,4.32,447,0.044631855,1040,BOI,-,-,"Please name all of the ways you could use this object. Keep in mind that one object can have many uses. Separate your responses with a comma.",,y,31252,,,25578,30017,,,,"you can get them to work your case",0.26
5c92f797803bff0017fef8dd,1c3wkb1ie4,"Affordance Norms_Prolific",1,32,2023-05-10T23:23:36+00:00,52.64542889595,35,"updated stim.csv",Version35.csv,"Version 35","List 35",crumpet,,1021,5.136363636,715,0.332334364,1022,BOI,-,-,"Please name all of the ways you could use this object. Keep in mind that one object can have many uses. Separate your responses with a comma.",,y,52168,,,33838,50902,,,,"eat a crumpet, throw a crumpet, you can stand on a crumpet, you can smush a crumpet in your hand",0.379
5c92f797803bff0017fef8dd,1c3wkb1ie4,"Affordance Norms_Prolific",1,33,2023-05-10T23:24:17+00:00,41.010025978088,35,"updated stim.csv",Version35.csv,"Version 35","List 35",toboggan,,1027,5.68,2713,0.731617262,1028,BOI,-,-,"Please name all of the ways you could use this object. Keep in mind that one object can have many uses. Separate your responses with a comma.",,y,40554,,,21032,39631,,,,"you can slide down the snow in a toboggan, race people in a toboggan, you can sleep in a toboggan",0.557
5c92f797803bff0017fef8dd,1c3wkb1ie4,"Affordance Norms_Prolific",1,34,2023-05-10T23:24:58+00:00,41.699004173279,35,"updated stim.csv",Version35.csv,"Version 35","List 35",stethoscope,,1031,5.8,2533,0.032379282,1032,BOI,-,-,"Please name all of the ways you could use this object. Keep in mind that one object can have many uses. Separate your responses with a comma.",,y,41229,,,28422,39878,,,,"you can hear other people's heartbeats, put it on someone's skin to make them feel cold",0.348
5c92f797803bff0017fef8dd,1c3wkb1ie4,"Affordance Norms_Prolific",1,35,2023-05-10T23:25:48+00:00,49.978504896164,35,"updated stim.csv",Version35.csv,"Version 35","List 35",Toilet,,1024,6.368918919,2719,0.789000486,1025,BOI,-,-,"Please name all of the ways you could use this object. Keep in mind that one object can have many uses. Separate your responses with a comma.",,y,49510,,,30373,48589,,,,"you can sit on a toilet, pee into it, use it for another bathroom break, your dog can drink from it",0.448
5c92f797803bff0017fef8dd,1c3wkb1ie4,"Affordance Norms_Prolific",1,36,2023-05-10T23:26:19+00:00,30.326497077942,35,"updated stim.csv",Version35.csv,"Version 35","List 35",partner,,1037,5.230769231,1879,0.171448302,1038,BOI,-,-,"Please name all of the ways you could use this object. Keep in mind that one object can have many uses. Separate your responses with a comma.",,y,29853,,,14283,28979,,,,"you can kiss your partner, hug them, sleep with them, fall in love with them, get them to do things with you",0.607
5c92f797803bff0017fef8dd,1c3wkb1ie4,"Affordance Norms_Prolific",1,37,2023-05-10T23:26:36+00:00,17.334821939468,35,"updated stim.csv",Version35.csv,"Version 35","List 35",watch,,1041,5.269230769,2905,0.235496905,1042,BOI,-,-,"Please name all of the ways you could use this object. Keep in mind that one object can have many uses. Separate your responses with a comma.",,y,16885,,,10243,13434,,,,"tell the time",0.541
5c92f797803bff0017fef8dd,1c3wkb1ie4,"Affordance Norms_Prolific",1,38,2023-05-10T23:27:11+00:00,34.754060983658,35,"updated stim.csv",Version35.csv,"Version 35","List 35",genitalia,,1034,5.64,1096,0.737455521,1035,BOI,-,-,"Please name all of the ways you could use this object. Keep in mind that one object can have many uses. Separate your responses with a comma.",,y,34292,,,23525,33117,,,,"you can play with your genitalia, look at it, touch it, admire it",0.36
5c92f797803bff0017fef8dd,1c3wkb1ie4,"Affordance Norms_Prolific",1,39,2023-05-10T23:28:17+00:00,65.959919929504,35,"updated stim.csv",Version35.csv,"Version 35","List 35",coke,,1023,6.2,596,0.089822276,1024,BOI,-,-,"Please name all of the ways you could use this object. Keep in mind that one object can have many uses. Separate your responses with a comma.",,y,65341,,,54137,63881,,,,"drink the coke, hit someone with a coke can, peel off the label",0.199
5c92f797803bff0017fef8dd,1c3wkb1ie4,"Affordance Norms_Prolific",1,40,2023-05-10T23:28:32+00:00,15.545222043991,35,"updated stim.csv",Version35.csv,"Version 35","List 35",machetes,,1040,5.260869565,1566,0.890397938,1041,BOI,-,-,"Please name all of the ways you could use this object. Keep in mind that one object can have many uses. Separate your responses with a comma.",,y,15093,,,2296,14191,,,,"chop down trees with machetes, you can kill someone with machetes, use it as a dangerous way to cook",1
5c92f797803bff0017fef8dd,1c3wkb1ie4,"Affordance Norms_Prolific",1,41,2023-05-10T23:28:34+00:00,1.3646969795227,35,"updated stim.csv",Version35.csv,"Version 35","List 35",,,,,,,0,Instruct,,,"You will now be asked a few questions about your experience today.",,"Instruct 4",924,,,-1,-1,,,,,1
