Username,ID,ExperimentName,Session,Trial,Date,TimeDif,"Condition Number","Stimuli File","Order File","Condition Description","Condition Notes",Stimuli*Cue,Stimuli*Answer,Stimuli*Shuffle,"Stimuli*Stimuli Notes",Stimuli*Value,Stimuli*Rand,Procedure*Item,"Procedure*Trial Type","Procedure*Max Time","Procedure*Min Time",Procedure*Text,"Procedure*Procedure Notes",Procedure*Shuffle,Response*RT,Response*Response,Response*Accuracy,Response*RTfirst,Response*RTlast,Response*strictAcc,Response*lenientAcc,Response*focus,Response*JOL,Response*Focus
62714a240ed387f760f6741b,zlpazpt2xp,"Affordance Norms_Prolific",1,1,2023-05-10T23:38:32+00:00,28.954465150833,48,"updated stim.csv",Version48.csv,"Version 48","List 48",,,,,,,0,Instruct,-,10,"In this section, you will be presented with a series of objects. Please name as many possible uses for this object as you can think of by typing them in the box below each object.",,Instruct1,28721,,,-1,-1,,,,,1
62714a240ed387f760f6741b,zlpazpt2xp,"Affordance Norms_Prolific",1,2,2023-05-10T23:38:48+00:00,16.738844871521,48,"updated stim.csv",Version48.csv,"Version 48","List 48",,,,,,,0,Instruct,-,10,"Please keep in mind that a single object will have more than one use. For example, a ball can be thrown or can be bounced or even stepped on. When listing multiple uses for one object, please separate each use with a comma (i.e., thrown, bounced, stepped on)",,Instruct2,16341,,,-1,-1,,,,,1
62714a240ed387f760f6741b,zlpazpt2xp,"Affordance Norms_Prolific",1,3,2023-05-10T23:38:53+00:00,4.2902920246124,48,"updated stim.csv",Version48.csv,"Version 48","List 48",,,,,,,0,Instruct,-,-,"Before starting the experiment, you will complete a short practice sesstion. Press ENTER when you are ready to begin.",,Instruct3,3867,,,-1,-1,,,,,1
62714a240ed387f760f6741b,zlpazpt2xp,"Affordance Norms_Prolific",1,4,2023-05-10T23:39:51+00:00,58.502584934235,48,"updated stim.csv",Version48.csv,"Version 48","List 48",shortening,,3002,4.92,2358,0.604328482,3003,BOI,-,-,"Please name all of the ways you could use this object. Keep in mind that one object can have many uses. Separate your responses with a comma.",,n,57836,,,49036,55069,,,,"baking, frying",0.791
62714a240ed387f760f6741b,zlpazpt2xp,"Affordance Norms_Prolific",1,5,2023-05-10T23:40:47+00:00,56.295242071152,48,"updated stim.csv",Version48.csv,"Version 48","List 48",grain,,3004,5.217391304,1143,0.226863762,3005,BOI,-,-,"Please name all of the ways you could use this object. Keep in mind that one object can have many uses. Separate your responses with a comma.",,n,55879,,,26363,53872,,,,"beer, flour, cereal",0.989
62714a240ed387f760f6741b,zlpazpt2xp,"Affordance Norms_Prolific",1,6,2023-05-10T23:42:00+00:00,72.640404939651,48,"updated stim.csv",Version48.csv,"Version 48","List 48",paperwork,,3001,5.625,1866,0.124284162,3002,BOI,-,-,"Please name all of the ways you could use this object. Keep in mind that one object can have many uses. Separate your responses with a comma.",,n,71968,,,41969,67406,,,,"deeds, correspondence",1
62714a240ed387f760f6741b,zlpazpt2xp,"Affordance Norms_Prolific",1,7,2023-05-10T23:43:42+00:00,102.27745604515,48,"updated stim.csv",Version48.csv,"Version 48","List 48",spaghetti,,3003,6,2461,0.090379998,3004,BOI,-,-,"Please name all of the ways you could use this object. Keep in mind that one object can have many uses. Separate your responses with a comma.",,n,101596,,,97055,98396,,,,food,1
62714a240ed387f760f6741b,zlpazpt2xp,"Affordance Norms_Prolific",1,8,2023-05-10T23:44:01+00:00,18.993684053421,48,"updated stim.csv",Version48.csv,"Version 48","List 48",saucer,,3005,5.777777778,2249,0.304808074,3006,BOI,-,-,"Please name all of the ways you could use this object. Keep in mind that one object can have many uses. Separate your responses with a comma.",,n,18595,,,4645,16258,,,,"cup, milk, biscuits",1
62714a240ed387f760f6741b,zlpazpt2xp,"Affordance Norms_Prolific",1,9,2023-05-10T23:44:04+00:00,2.515163898468,48,"updated stim.csv",Version48.csv,"Version 48","List 48",,,,,,,0,Instruct,-,-,"You have completed this section. Press ENTER to continue",,"Instruct 5",2111,,,-1,-1,,,,,1
62714a240ed387f760f6741b,zlpazpt2xp,"Affordance Norms_Prolific",1,10,2023-05-10T23:44:07+00:00,2.9910471439362,48,"updated stim.csv",Version48.csv,"Version 48","List 48",,,,,,,0,Instruct,-,-,"You will now start the full experiment. Press ENTER when you are ready to begin.",,,2606,,,-1,-1,,,,,1
62714a240ed387f760f6741b,zlpazpt2xp,"Affordance Norms_Prolific",1,11,2023-05-10T23:44:41+00:00,33.829108953476,48,"updated stim.csv",Version48.csv,"Version 48","List 48",detergent,,1428,5.227272727,782,0.134090484,1429,BOI,-,-,"Please name all of the ways you could use this object. Keep in mind that one object can have many uses. Separate your responses with a comma.",,y,33420,,,1840,31316,,,,"clean, protect, freshen",1
62714a240ed387f760f6741b,zlpazpt2xp,"Affordance Norms_Prolific",1,12,2023-05-10T23:45:10+00:00,29.796724081039,48,"updated stim.csv",Version48.csv,"Version 48","List 48",chick,,1435,4.47826087,516,0.375770088,1436,BOI,-,-,"Please name all of the ways you could use this object. Keep in mind that one object can have many uses. Separate your responses with a comma.",,y,29404,,,6986,9220,,,,pet,1
62714a240ed387f760f6741b,zlpazpt2xp,"Affordance Norms_Prolific",1,13,2023-05-10T23:45:29+00:00,18.592243909836,48,"updated stim.csv",Version48.csv,"Version 48","List 48",primrose,,1429,4.368421053,2065,0.199237215,1430,BOI,-,-,"Please name all of the ways you could use this object. Keep in mind that one object can have many uses. Separate your responses with a comma.",,y,18200,,,8532,15634,,,,"gift, remedy",1
62714a240ed387f760f6741b,zlpazpt2xp,"Affordance Norms_Prolific",1,14,2023-05-10T23:46:40+00:00,70.663861989975,48,"updated stim.csv",Version48.csv,"Version 48","List 48",tattoo,,1423,4.730769231,2637,0.262771603,1424,BOI,-,-,"Please name all of the ways you could use this object. Keep in mind that one object can have many uses. Separate your responses with a comma.",,y,69988,,,9086,67790,,,,"expression, statement",1
62714a240ed387f760f6741b,zlpazpt2xp,"Affordance Norms_Prolific",1,15,2023-05-10T23:47:08+00:00,28.457369089127,48,"updated stim.csv",Version48.csv,"Version 48","List 48",peppercorn,,1412,5.181818182,1922,0.599717574,1413,BOI,-,-,"Please name all of the ways you could use this object. Keep in mind that one object can have many uses. Separate your responses with a comma.",,y,28051,,,2758,22502,,,,"flavoring, antiseptic",1
62714a240ed387f760f6741b,zlpazpt2xp,"Affordance Norms_Prolific",1,16,2023-05-10T23:47:59+00:00,50.452816963196,48,"updated stim.csv",Version48.csv,"Version 48","List 48",yoga,,1438,4.44,2993,0.035434403,1439,BOI,-,-,"Please name all of the ways you could use this object. Keep in mind that one object can have many uses. Separate your responses with a comma.",,y,49438,,,36622,47410,,,,"keep fit, expression",1
62714a240ed387f760f6741b,zlpazpt2xp,"Affordance Norms_Prolific",1,17,2023-05-10T23:48:37+00:00,38.679347991943,48,"updated stim.csv",Version48.csv,"Version 48","List 48",brass,,1418,4.4,305,0.321619527,1419,BOI,-,-,"Please name all of the ways you could use this object. Keep in mind that one object can have many uses. Separate your responses with a comma.",,y,38272,,,7972,14039,,,,decoration,1
62714a240ed387f760f6741b,zlpazpt2xp,"Affordance Norms_Prolific",1,18,2023-05-10T23:49:37+00:00,59.96582698822,48,"updated stim.csv",Version48.csv,"Version 48","List 48",eggshell,,1430,5.791666667,895,0.087416572,1431,BOI,-,-,"Please name all of the ways you could use this object. Keep in mind that one object can have many uses. Separate your responses with a comma.",,y,59273,,,5540,57047,,,,"artwork, decoration",1
62714a240ed387f760f6741b,zlpazpt2xp,"Affordance Norms_Prolific",1,19,2023-05-10T23:50:02+00:00,24.760498046875,48,"updated stim.csv",Version48.csv,"Version 48","List 48",peelings,,1417,4.652173913,1906,0.398942529,1418,BOI,-,-,"Please name all of the ways you could use this object. Keep in mind that one object can have many uses. Separate your responses with a comma.",,y,24367,,,8768,20862,,,,"pet food, compost",1
62714a240ed387f760f6741b,zlpazpt2xp,"Affordance Norms_Prolific",1,20,2023-05-10T23:50:19+00:00,17.384738922119,48,"updated stim.csv",Version48.csv,"Version 48","List 48",condom,,1439,6.346153846,622,0.103953581,1440,BOI,-,-,"Please name all of the ways you could use this object. Keep in mind that one object can have many uses. Separate your responses with a comma.",,y,16994,,,2685,15368,,,,"protection, enjoyment",1
62714a240ed387f760f6741b,zlpazpt2xp,"Affordance Norms_Prolific",1,21,2023-05-10T23:50:38+00:00,19.023639917374,48,"updated stim.csv",Version48.csv,"Version 48","List 48",talisman,,1413,4.708333333,2627,0.005932136,1414,BOI,-,-,"Please name all of the ways you could use this object. Keep in mind that one object can have many uses. Separate your responses with a comma.",,y,18627,,,5348,16556,,,,"expression, statement",1
62714a240ed387f760f6741b,zlpazpt2xp,"Affordance Norms_Prolific",1,22,2023-05-10T23:51:12+00:00,33.643289089203,48,"updated stim.csv",Version48.csv,"Version 48","List 48",bone,,1426,5.259259259,267,0.140077408,1427,BOI,-,-,"Please name all of the ways you could use this object. Keep in mind that one object can have many uses. Separate your responses with a comma.",,y,33242,,,27608,29003,,,,teeth,1
62714a240ed387f760f6741b,zlpazpt2xp,"Affordance Norms_Prolific",1,23,2023-05-10T23:51:43+00:00,30.700813055038,48,"updated stim.csv",Version48.csv,"Version 48","List 48",hut,,1422,5.130434783,1341,0.526968441,1423,BOI,-,-,"Please name all of the ways you could use this object. Keep in mind that one object can have many uses. Separate your responses with a comma.",,y,30296,,,13465,26748,,,,"home, protection",1
62714a240ed387f760f6741b,zlpazpt2xp,"Affordance Norms_Prolific",1,24,2023-05-10T23:51:59+00:00,16.665922880173,48,"updated stim.csv",Version48.csv,"Version 48","List 48",morsel,,1414,4.833333333,1685,0.02893838,1415,BOI,-,-,"Please name all of the ways you could use this object. Keep in mind that one object can have many uses. Separate your responses with a comma.",,y,16290,,,10078,11801,,,,food,1
62714a240ed387f760f6741b,zlpazpt2xp,"Affordance Norms_Prolific",1,25,2023-05-10T23:52:20+00:00,20.072955131531,48,"updated stim.csv",Version48.csv,"Version 48","List 48",tape,,1421,5.833333333,2632,0.30460712,1422,BOI,-,-,"Please name all of the ways you could use this object. Keep in mind that one object can have many uses. Separate your responses with a comma.",,y,19673,,,4370,16769,,,,"repair, measure",1
62714a240ed387f760f6741b,zlpazpt2xp,"Affordance Norms_Prolific",1,26,2023-05-10T23:52:50+00:00,30.797341823578,48,"updated stim.csv",Version48.csv,"Version 48","List 48",oat,,1427,4.8,1796,0.352517853,1428,BOI,-,-,"Please name all of the ways you could use this object. Keep in mind that one object can have many uses. Separate your responses with a comma.",,y,30394,,,2634,28201,,,,"cereal, cake, smoothie",1
62714a240ed387f760f6741b,zlpazpt2xp,"Affordance Norms_Prolific",1,27,2023-05-10T23:58:21+00:00,331.12232518196,48,"updated stim.csv",Version48.csv,"Version 48","List 48",pegboard,,1434,5.04,1909,0.555933724,1435,BOI,-,-,"Please name all of the ways you could use this object. Keep in mind that one object can have many uses. Separate your responses with a comma.",,y,330473,,,317229,327973,,,,"noteholder, toolholder",0.993
62714a240ed387f760f6741b,zlpazpt2xp,"Affordance Norms_Prolific",1,28,2023-05-10T23:58:54+00:00,32.461588859558,48,"updated stim.csv",Version48.csv,"Version 48","List 48",earpiece,,1424,5.76,878,0.23746492,1425,BOI,-,-,"Please name all of the ways you could use this object. Keep in mind that one object can have many uses. Separate your responses with a comma.",,y,32052,,,7154,30528,,,,"communication, entertainment",1
62714a240ed387f760f6741b,zlpazpt2xp,"Affordance Norms_Prolific",1,29,2023-05-10T23:59:09+00:00,14.885818958282,48,"updated stim.csv",Version48.csv,"Version 48","List 48",maize,,1419,5.416666667,1579,0.156397365,1420,BOI,-,-,"Please name all of the ways you could use this object. Keep in mind that one object can have many uses. Separate your responses with a comma.",,y,14482,,,2305,12167,,,,"cereal, oil, fuel",1
62714a240ed387f760f6741b,zlpazpt2xp,"Affordance Norms_Prolific",1,30,2023-05-11T00:01:15+00:00,126.27532315254,48,"updated stim.csv",Version48.csv,"Version 48","List 48",graveyard,,1432,4.608695652,1166,0.485713951,1433,BOI,-,-,"Please name all of the ways you could use this object. Keep in mind that one object can have many uses. Separate your responses with a comma.",,y,125620,,,107978,118052,,,,"respect of the dead",1
62714a240ed387f760f6741b,zlpazpt2xp,"Affordance Norms_Prolific",1,31,2023-05-11T00:01:40+00:00,24.580429077148,48,"updated stim.csv",Version48.csv,"Version 48","List 48",latex,,1431,5.086956522,1470,0.646968808,1432,BOI,-,-,"Please name all of the ways you could use this object. Keep in mind that one object can have many uses. Separate your responses with a comma.",,y,24174,,,3743,22492,,,,"protection, comfort",1
62714a240ed387f760f6741b,zlpazpt2xp,"Affordance Norms_Prolific",1,32,2023-05-11T00:02:03+00:00,23.174133777618,48,"updated stim.csv",Version48.csv,"Version 48","List 48",bloodhound,,1415,4.833333333,242,0.954266813,1416,BOI,-,-,"Please name all of the ways you could use this object. Keep in mind that one object can have many uses. Separate your responses with a comma.",,y,22768,,,4100,20546,,,,"crime solver, pet",1
62714a240ed387f760f6741b,zlpazpt2xp,"Affordance Norms_Prolific",1,33,2023-05-11T00:02:20+00:00,16.708739042282,48,"updated stim.csv",Version48.csv,"Version 48","List 48",neckband,,1416,5.217391304,1739,0.026922113,1417,BOI,-,-,"Please name all of the ways you could use this object. Keep in mind that one object can have many uses. Separate your responses with a comma.",,y,16313,,,10168,12716,,,,fashion,1
62714a240ed387f760f6741b,zlpazpt2xp,"Affordance Norms_Prolific",1,34,2023-05-11T00:02:34+00:00,14.697084188461,48,"updated stim.csv",Version48.csv,"Version 48","List 48",childbirth,,1433,4.391304348,521,0.697932722,1434,BOI,-,-,"Please name all of the ways you could use this object. Keep in mind that one object can have many uses. Separate your responses with a comma.",,y,14301,,,2915,9609,,,,"creation of life",1
62714a240ed387f760f6741b,zlpazpt2xp,"Affordance Norms_Prolific",1,35,2023-05-11T00:03:46+00:00,71.776579856873,48,"updated stim.csv",Version48.csv,"Version 48","List 48",newsletter,,1437,5.826086957,1758,0.278421308,1438,BOI,-,-,"Please name all of the ways you could use this object. Keep in mind that one object can have many uses. Separate your responses with a comma.",,y,71142,,,1839,7505,,,,information,1
62714a240ed387f760f6741b,zlpazpt2xp,"Affordance Norms_Prolific",1,36,2023-05-11T00:04:10+00:00,23.56508398056,48,"updated stim.csv",Version48.csv,"Version 48","List 48",pencil,,1436,5.869565217,1913,0.835877001,1437,BOI,-,-,"Please name all of the ways you could use this object. Keep in mind that one object can have many uses. Separate your responses with a comma.",,y,23168,,,4322,20603,,,,"art, communication",1
62714a240ed387f760f6741b,zlpazpt2xp,"Affordance Norms_Prolific",1,37,2023-05-11T00:04:39+00:00,29.837430000305,48,"updated stim.csv",Version48.csv,"Version 48","List 48",cuisine,,1440,4.652173913,725,0.032570305,1441,BOI,-,-,"Please name all of the ways you could use this object. Keep in mind that one object can have many uses. Separate your responses with a comma.",,y,29426,,,5755,27426,,,,"sustenance, expression",1
62714a240ed387f760f6741b,zlpazpt2xp,"Affordance Norms_Prolific",1,38,2023-05-11T00:08:53+00:00,253.86540603638,48,"updated stim.csv",Version48.csv,"Version 48","List 48",land,,1420,5.56,1460,0.035515029,1421,BOI,-,-,"Please name all of the ways you could use this object. Keep in mind that one object can have many uses. Separate your responses with a comma.",,y,253198,,,6704,251488,,,,"live, exist, freedom",1
62714a240ed387f760f6741b,zlpazpt2xp,"Affordance Norms_Prolific",1,39,2023-05-11T00:09:06+00:00,13.018790006638,48,"updated stim.csv",Version48.csv,"Version 48","List 48",acne,,1425,4.391304348,7,0.86435638,1426,BOI,-,-,"Please name all of the ways you could use this object. Keep in mind that one object can have many uses. Separate your responses with a comma.",,y,12613,,,7510,11063,,,,painful,1
62714a240ed387f760f6741b,zlpazpt2xp,"Affordance Norms_Prolific",1,40,2023-05-11T00:09:17+00:00,11.113806009293,48,"updated stim.csv",Version48.csv,"Version 48","List 48",terrycloth,,1411,4.692307692,2669,0.727236998,1412,BOI,-,-,"Please name all of the ways you could use this object. Keep in mind that one object can have many uses. Separate your responses with a comma.",,y,10743,,,4118,6560,,,,clean,1
62714a240ed387f760f6741b,zlpazpt2xp,"Affordance Norms_Prolific",1,41,2023-05-11T00:09:20+00:00,2.9114921092987,48,"updated stim.csv",Version48.csv,"Version 48","List 48",,,,,,,0,Instruct,,,"You will now be asked a few questions about your experience today.",,"Instruct 4",2528,,,-1,-1,,,,,1
