Username,ID,ExperimentName,Session,Trial,Date,TimeDif,"Condition Number","Stimuli File","Order File","Condition Description","Condition Notes",Stimuli*Cue,Stimuli*Answer,Stimuli*Shuffle,"Stimuli*Stimuli Notes",Stimuli*Value,Stimuli*Rand,Procedure*Item,"Procedure*Trial Type","Procedure*Max Time","Procedure*Min Time",Procedure*Text,"Procedure*Procedure Notes",Procedure*Shuffle,Response*RT,Response*Response,Response*Accuracy,Response*RTfirst,Response*RTlast,Response*strictAcc,Response*lenientAcc,Response*focus,Response*JOL,Response*Focus
63fc9ac5b3caf86d29e7b736,fblcecpn6b,"Affordance Norms_Prolific",1,1,2023-05-09T18:08:44+00:00,15.464106082916,14,"updated stim.csv",Version14.csv,"Version 14","List 14",,,,,,,0,Instruct,-,10,"In this section, you will be presented with a series of objects. Please name as many possible uses for this object as you can think of by typing them in the box below each object.",,Instruct1,14660,,,-1,-1,,,,,1
63fc9ac5b3caf86d29e7b736,fblcecpn6b,"Affordance Norms_Prolific",1,2,2023-05-09T18:09:10+00:00,26.539485931396,14,"updated stim.csv",Version14.csv,"Version 14","List 14",,,,,,,0,Instruct,-,10,"Please keep in mind that a single object will have more than one use. For example, a ball can be thrown or can be bounced or even stepped on. When listing multiple uses for one object, please separate each use with a comma (i.e., thrown, bounced, stepped on)",,Instruct2,25675,,,-1,-1,,,,,1
63fc9ac5b3caf86d29e7b736,fblcecpn6b,"Affordance Norms_Prolific",1,3,2023-05-09T18:09:16+00:00,5.7265911102295,14,"updated stim.csv",Version14.csv,"Version 14","List 14",,,,,,,0,Instruct,-,-,"Before starting the experiment, you will complete a short practice sesstion. Press ENTER when you are ready to begin.",,Instruct3,4907,,,-1,-1,,,,,1
63fc9ac5b3caf86d29e7b736,fblcecpn6b,"Affordance Norms_Prolific",1,4,2023-05-09T18:09:43+00:00,27.23263001442,14,"updated stim.csv",Version14.csv,"Version 14","List 14",saucer,,3005,5.777777778,2249,0.304808074,3006,BOI,-,-,"Please name all of the ways you could use this object. Keep in mind that one object can have many uses. Separate your responses with a comma.",,n,26348,,,24105,25120,,,,throw,1
63fc9ac5b3caf86d29e7b736,fblcecpn6b,"Affordance Norms_Prolific",1,5,2023-05-09T18:10:32+00:00,48.427034854889,14,"updated stim.csv",Version14.csv,"Version 14","List 14",paperwork,,3001,5.625,1866,0.124284162,3002,BOI,-,-,"Please name all of the ways you could use this object. Keep in mind that one object can have many uses. Separate your responses with a comma.",,n,47595,,,12821,44429,,,,"read, write, review, firelighter,shred,insulation",1
63fc9ac5b3caf86d29e7b736,fblcecpn6b,"Affordance Norms_Prolific",1,6,2023-05-09T18:10:57+00:00,25.21139216423,14,"updated stim.csv",Version14.csv,"Version 14","List 14",spaghetti,,3003,6,2461,0.090379998,3004,BOI,-,-,"Please name all of the ways you could use this object. Keep in mind that one object can have many uses. Separate your responses with a comma.",,n,24359,,,2278,20512,,,,"eat,shape, decoration",1
63fc9ac5b3caf86d29e7b736,fblcecpn6b,"Affordance Norms_Prolific",1,7,2023-05-09T18:11:13+00:00,16.365193843842,14,"updated stim.csv",Version14.csv,"Version 14","List 14",shortening,,3002,4.92,2358,0.604328482,3003,BOI,-,-,"Please name all of the ways you could use this object. Keep in mind that one object can have many uses. Separate your responses with a comma.",,n,15536,,,8148,12594,,,,"bake, eat",1
63fc9ac5b3caf86d29e7b736,fblcecpn6b,"Affordance Norms_Prolific",1,8,2023-05-09T18:11:58+00:00,44.679342031479,14,"updated stim.csv",Version14.csv,"Version 14","List 14",grain,,3004,5.217391304,1143,0.226863762,3005,BOI,-,-,"Please name all of the ways you could use this object. Keep in mind that one object can have many uses. Separate your responses with a comma.",,n,43834,,,6004,29484,,,,"mill, grind, eat,",1
63fc9ac5b3caf86d29e7b736,fblcecpn6b,"Affordance Norms_Prolific",1,9,2023-05-09T18:12:00+00:00,2.6133151054382,14,"updated stim.csv",Version14.csv,"Version 14","List 14",,,,,,,0,Instruct,-,-,"You have completed this section. Press ENTER to continue",,"Instruct 5",2078,,,-1,-1,,,,,1
63fc9ac5b3caf86d29e7b736,fblcecpn6b,"Affordance Norms_Prolific",1,10,2023-05-09T18:12:03+00:00,2.5904629230499,14,"updated stim.csv",Version14.csv,"Version 14","List 14",,,,,,,0,Instruct,-,-,"You will now start the full experiment. Press ENTER when you are ready to begin.",,,2073,,,-1,-1,,,,,1
63fc9ac5b3caf86d29e7b736,fblcecpn6b,"Affordance Norms_Prolific",1,11,2023-05-09T18:12:51+00:00,48.345600128174,14,"updated stim.csv",Version14.csv,"Version 14","List 14",suede,,391,5,2579,0.789364521,392,BOI,-,-,"Please name all of the ways you could use this object. Keep in mind that one object can have many uses. Separate your responses with a comma.",,y,47514,,,8666,43409,,,,"clothing, upholstery, wear, sit on, shoes",1
63fc9ac5b3caf86d29e7b736,fblcecpn6b,"Affordance Norms_Prolific",1,12,2023-05-09T18:14:04+00:00,73.103895902634,14,"updated stim.csv",Version14.csv,"Version 14","List 14",vagina,,399,6.041666667,2832,0.891669639,400,BOI,-,-,"Please name all of the ways you could use this object. Keep in mind that one object can have many uses. Separate your responses with a comma.",,y,72046,,,8202,70465,,,,"reproduce, menstruate, sell, quiff, decorate, pleasure",1
63fc9ac5b3caf86d29e7b736,fblcecpn6b,"Affordance Norms_Prolific",1,13,2023-05-09T18:14:27+00:00,22.354746103287,14,"updated stim.csv",Version14.csv,"Version 14","List 14",earring,,405,6.428571429,881,0.521190906,406,BOI,-,-,"Please name all of the ways you could use this object. Keep in mind that one object can have many uses. Separate your responses with a comma.",,y,21461,,,2465,18554,,,,"wear, decorate",1
63fc9ac5b3caf86d29e7b736,fblcecpn6b,"Affordance Norms_Prolific",1,14,2023-05-09T18:14:51+00:00,23.901233911514,14,"updated stim.csv",Version14.csv,"Version 14","List 14",tuba,,401,5.130434783,2790,0.842475897,402,BOI,-,-,"Please name all of the ways you could use this object. Keep in mind that one object can have many uses. Separate your responses with a comma.",,y,23052,,,3568,12437,,,,"play, doorstop, polish",1
63fc9ac5b3caf86d29e7b736,fblcecpn6b,"Affordance Norms_Prolific",1,15,2023-05-09T18:15:25+00:00,33.990695953369,14,"updated stim.csv",Version14.csv,"Version 14","List 14",booth,,403,4.92,282,0.969318496,404,BOI,-,-,"Please name all of the ways you could use this object. Keep in mind that one object can have many uses. Separate your responses with a comma.",,y,33112,,,3120,19233,,,,"eat in, sit in, phone in, ",1
63fc9ac5b3caf86d29e7b736,fblcecpn6b,"Affordance Norms_Prolific",1,16,2023-05-09T18:16:20+00:00,55.303727149963,14,"updated stim.csv",Version14.csv,"Version 14","List 14",fisherman,,418,4.851851852,991,0.998556078,419,BOI,-,-,"Please name all of the ways you could use this object. Keep in mind that one object can have many uses. Separate your responses with a comma.",,y,54423,,,11968,52920,,,,"sail boat, catch fish, work, harvest, talk to, sing with, fish with",1
63fc9ac5b3caf86d29e7b736,fblcecpn6b,"Affordance Norms_Prolific",1,17,2023-05-09T18:16:57+00:00,37.330446004868,14,"updated stim.csv",Version14.csv,"Version 14","List 14",granddaughter,,392,5,1146,0.297785625,393,BOI,-,-,"Please name all of the ways you could use this object. Keep in mind that one object can have many uses. Separate your responses with a comma.",,y,36492,,,10217,26373,,,,"go shopping, walk dog, play games, sing with",1
63fc9ac5b3caf86d29e7b736,fblcecpn6b,"Affordance Norms_Prolific",1,18,2023-05-09T18:17:36+00:00,38.424325942993,14,"updated stim.csv",Version14.csv,"Version 14","List 14",paperhanger,,410,4.625,1864,0.502533879,411,BOI,-,-,"Please name all of the ways you could use this object. Keep in mind that one object can have many uses. Separate your responses with a comma.",,y,37517,,,22056,34774,,,,"wall paper application",1
63fc9ac5b3caf86d29e7b736,fblcecpn6b,"Affordance Norms_Prolific",1,19,2023-05-09T18:17:59+00:00,23.311595916748,14,"updated stim.csv",Version14.csv,"Version 14","List 14",doorstep,,396,5.333333333,828,0.890046073,397,BOI,-,-,"Please name all of the ways you could use this object. Keep in mind that one object can have many uses. Separate your responses with a comma.",,y,22443,,,3528,21052,,,,"climb, stand on, exercise on, trip over",1
63fc9ac5b3caf86d29e7b736,fblcecpn6b,"Affordance Norms_Prolific",1,20,2023-05-09T18:18:46+00:00,46.847780942917,14,"updated stim.csv",Version14.csv,"Version 14","List 14",doctor,,417,5.68,809,0.103957311,418,BOI,-,-,"Please name all of the ways you could use this object. Keep in mind that one object can have many uses. Separate your responses with a comma.",,y,46016,,,7198,44148,,,,"visit, talk with, share feelings, share illnesses, confide in",1
63fc9ac5b3caf86d29e7b736,fblcecpn6b,"Affordance Norms_Prolific",1,21,2023-05-09T18:19:05+00:00,19.401386976242,14,"updated stim.csv",Version14.csv,"Version 14","List 14",hamstring,,408,5.08,1227,0.328162604,409,BOI,-,-,"Please name all of the ways you could use this object. Keep in mind that one object can have many uses. Separate your responses with a comma.",,y,18502,,,2805,16968,,,,"walk, run, stand, jump, sit",1
63fc9ac5b3caf86d29e7b736,fblcecpn6b,"Affordance Norms_Prolific",1,22,2023-05-09T18:19:34+00:00,28.34491109848,14,"updated stim.csv",Version14.csv,"Version 14","List 14",hairpin,,397,6.125,1216,0.666214022,398,BOI,-,-,"Please name all of the ways you could use this object. Keep in mind that one object can have many uses. Separate your responses with a comma.",,y,27471,,,4493,26303,,,,"hold up hair, clean ears, attach papers",1
63fc9ac5b3caf86d29e7b736,fblcecpn6b,"Affordance Norms_Prolific",1,23,2023-05-09T18:19:53+00:00,19.064254045486,14,"updated stim.csv",Version14.csv,"Version 14","List 14",crayon,,394,6.36,687,0.757072392,395,BOI,-,-,"Please name all of the ways you could use this object. Keep in mind that one object can have many uses. Separate your responses with a comma.",,y,18207,,,2329,14448,,,,"colour, draw, write, melt, eat",1
63fc9ac5b3caf86d29e7b736,fblcecpn6b,"Affordance Norms_Prolific",1,24,2023-05-09T18:20:18+00:00,25.544100999832,14,"updated stim.csv",Version14.csv,"Version 14","List 14",author,,398,4.4,99,0.200635735,399,BOI,-,-,"Please name all of the ways you could use this object. Keep in mind that one object can have many uses. Separate your responses with a comma.",,y,24700,,,9788,22691,,,,"write autobiography",1
63fc9ac5b3caf86d29e7b736,fblcecpn6b,"Affordance Norms_Prolific",1,25,2023-05-09T18:20:35+00:00,16.921372890472,14,"updated stim.csv",Version14.csv,"Version 14","List 14",seasoning,,411,4.47826087,2300,0.716339829,412,BOI,-,-,"Please name all of the ways you could use this object. Keep in mind that one object can have many uses. Separate your responses with a comma.",,y,16078,,,3792,7121,,,,"add flavour",1
63fc9ac5b3caf86d29e7b736,fblcecpn6b,"Affordance Norms_Prolific",1,26,2023-05-09T18:21:04+00:00,28.478657960892,14,"updated stim.csv",Version14.csv,"Version 14","List 14",broker,,404,4.464285714,330,0.943244842,405,BOI,-,-,"Please name all of the ways you could use this object. Keep in mind that one object can have many uses. Separate your responses with a comma.",,y,27644,,,2217,26128,,,,"sell shares, sell stocks, arbitrate, import items, export items",1
63fc9ac5b3caf86d29e7b736,fblcecpn6b,"Affordance Norms_Prolific",1,27,2023-05-09T18:21:29+00:00,25.407655000687,14,"updated stim.csv",Version14.csv,"Version 14","List 14",clip,,406,4.833333333,560,0.891548733,407,BOI,-,-,"Please name all of the ways you could use this object. Keep in mind that one object can have many uses. Separate your responses with a comma.",,y,24364,,,3507,13460,,,,"fasten paper, hold hair, ",1
63fc9ac5b3caf86d29e7b736,fblcecpn6b,"Affordance Norms_Prolific",1,28,2023-05-09T18:21:47+00:00,17.749307155609,14,"updated stim.csv",Version14.csv,"Version 14","List 14",milkshake,,393,6.4,1661,0.405807635,394,BOI,-,-,"Please name all of the ways you could use this object. Keep in mind that one object can have many uses. Separate your responses with a comma.",,y,16910,,,2867,13138,,,,"drink, share, flavour",1
63fc9ac5b3caf86d29e7b736,fblcecpn6b,"Affordance Norms_Prolific",1,29,2023-05-09T18:22:13+00:00,25.850322008133,14,"updated stim.csv",Version14.csv,"Version 14","List 14",tonic,,414,5.086956522,2729,0.364464127,415,BOI,-,-,"Please name all of the ways you could use this object. Keep in mind that one object can have many uses. Separate your responses with a comma.",,y,25002,,,2898,18297,,,,"drink, use as mixer, use as medicine",1
63fc9ac5b3caf86d29e7b736,fblcecpn6b,"Affordance Norms_Prolific",1,30,2023-05-09T18:23:06+00:00,53.286278963089,14,"updated stim.csv",Version14.csv,"Version 14","List 14",cord,,420,6.103448276,640,0.523772766,421,BOI,-,-,"Please name all of the ways you could use this object. Keep in mind that one object can have many uses. Separate your responses with a comma.",,y,52423,,,5195,48595,,,,"tie things, fasten objects together, play on musical instrument, use on electrical item",1
63fc9ac5b3caf86d29e7b736,fblcecpn6b,"Affordance Norms_Prolific",1,31,2023-05-09T18:23:31+00:00,25.163493871689,14,"updated stim.csv",Version14.csv,"Version 14","List 14",cleat,,407,4.5,552,0.773806135,408,BOI,-,-,"Please name all of the ways you could use this object. Keep in mind that one object can have many uses. Separate your responses with a comma.",,y,24313,,,3925,14583,,,,"shoe fastener, clothes fastener",1
63fc9ac5b3caf86d29e7b736,fblcecpn6b,"Affordance Norms_Prolific",1,32,2023-05-09T18:23:49+00:00,17.814441204071,14,"updated stim.csv",Version14.csv,"Version 14","List 14",hutch,,400,4.708333333,1342,0.734778001,401,BOI,-,-,"Please name all of the ways you could use this object. Keep in mind that one object can have many uses. Separate your responses with a comma.",,y,16982,,,6142,8806,,,,"keep animals",1
63fc9ac5b3caf86d29e7b736,fblcecpn6b,"Affordance Norms_Prolific",1,33,2023-05-09T18:24:27+00:00,38.370358943939,14,"updated stim.csv",Version14.csv,"Version 14","List 14",turnip,,412,6.12,2802,0.422574159,413,BOI,-,-,"Please name all of the ways you could use this object. Keep in mind that one object can have many uses. Separate your responses with a comma.",,y,37528,,,1664,33293,,,,"eat, boil, fry, grow, harvest, plant, Halloween lantern",1
63fc9ac5b3caf86d29e7b736,fblcecpn6b,"Affordance Norms_Prolific",1,34,2023-05-09T18:24:48+00:00,20.428123950958,14,"updated stim.csv",Version14.csv,"Version 14","List 14",driftwood,,395,5.416666667,847,0.062436585,396,BOI,-,-,"Please name all of the ways you could use this object. Keep in mind that one object can have many uses. Separate your responses with a comma.",,y,19565,,,3715,17973,,,,"collect, use in aquarium, use for modelling",1
63fc9ac5b3caf86d29e7b736,fblcecpn6b,"Affordance Norms_Prolific",1,35,2023-05-09T18:25:40+00:00,52.241323947906,14,"updated stim.csv",Version14.csv,"Version 14","List 14",brassiere,,409,5.666666667,306,0.051810651,410,BOI,-,-,"Please name all of the ways you could use this object. Keep in mind that one object can have many uses. Separate your responses with a comma.",,y,51202,,,3290,47548,,,,"hold breast up, provide support, catapult, head wear",1
63fc9ac5b3caf86d29e7b736,fblcecpn6b,"Affordance Norms_Prolific",1,36,2023-05-09T18:26:00+00:00,20.021949052811,14,"updated stim.csv",Version14.csv,"Version 14","List 14",cocktail,,415,5.481481481,588,0.859802123,416,BOI,-,-,"Please name all of the ways you could use this object. Keep in mind that one object can have many uses. Separate your responses with a comma.",,y,19056,,,2386,16176,,,,"mix, drink, freeze, enjoy",1
63fc9ac5b3caf86d29e7b736,fblcecpn6b,"Affordance Norms_Prolific",1,37,2023-05-09T18:26:32+00:00,32.340092897415,14,"updated stim.csv",Version14.csv,"Version 14","List 14",flannels,,413,5.681818182,999,0.343571271,414,BOI,-,-,"Please name all of the ways you could use this object. Keep in mind that one object can have many uses. Separate your responses with a comma.",,y,31473,,,2422,29750,,,,"wash, make sheets, make clothes, mop liquid, clean,",1
63fc9ac5b3caf86d29e7b736,fblcecpn6b,"Affordance Norms_Prolific",1,38,2023-05-09T18:26:58+00:00,26.018049001694,14,"updated stim.csv",Version14.csv,"Version 14","List 14",pedestal,,419,4.88,1901,0.811557585,420,BOI,-,-,"Please name all of the ways you could use this object. Keep in mind that one object can have many uses. Separate your responses with a comma.",,y,25168,,,2619,24119,,,,"stand on, sit on, pose on, exercise on",1
63fc9ac5b3caf86d29e7b736,fblcecpn6b,"Affordance Norms_Prolific",1,39,2023-05-09T18:27:34+00:00,35.494101047516,14,"updated stim.csv",Version14.csv,"Version 14","List 14",Cheeseburger,,402,,3001,0.984642943,403,BOI,-,-,"Please name all of the ways you could use this object. Keep in mind that one object can have many uses. Separate your responses with a comma.",,y,34652,,,4259,27159,,,,"deconstruct, eat, squash, add sauce, enjoy, throw",1
63fc9ac5b3caf86d29e7b736,fblcecpn6b,"Affordance Norms_Prolific",1,40,2023-05-09T18:28:00+00:00,26.526782989502,14,"updated stim.csv",Version14.csv,"Version 14","List 14",pellet,,416,4.296296296,1910,0.819706786,417,BOI,-,-,"Please name all of the ways you could use this object. Keep in mind that one object can have many uses. Separate your responses with a comma.",,y,25671,,,2783,22443,,,,"fire from gun, feed to fish, animal feed",1
63fc9ac5b3caf86d29e7b736,fblcecpn6b,"Affordance Norms_Prolific",1,41,2023-05-09T18:28:03+00:00,2.9334111213684,14,"updated stim.csv",Version14.csv,"Version 14","List 14",,,,,,,0,Instruct,,,"You will now be asked a few questions about your experience today.",,"Instruct 4",2420,,,-1,-1,,,,,1
