Username,ID,ExperimentName,Session,Trial,Date,TimeDif,"Condition Number","Stimuli File","Order File","Condition Description","Condition Notes",Stimuli*Cue,Stimuli*Answer,Stimuli*Shuffle,"Stimuli*Stimuli Notes",Stimuli*Value,Stimuli*Rand,Procedure*Item,"Procedure*Trial Type","Procedure*Max Time","Procedure*Min Time",Procedure*Text,"Procedure*Procedure Notes",Procedure*Shuffle,Response*RT,Response*Response,Response*Accuracy,Response*RTfirst,Response*RTlast,Response*strictAcc,Response*lenientAcc,Response*focus,Response*JOL,Response*Focus
60394fde95a5a03dcc668c4b,9b45cj1rhy,"Affordance Norms_Prolific",1,1,2023-05-11T00:15:47+00:00,11.530214071274,61,"updated stim.csv",Version61.csv,"Version 61","List 61",,,,,,,0,Instruct,-,10,"In this section, you will be presented with a series of objects. Please name as many possible uses for this object as you can think of by typing them in the box below each object.",,Instruct1,11121,,,-1,-1,,,,,1
60394fde95a5a03dcc668c4b,9b45cj1rhy,"Affordance Norms_Prolific",1,2,2023-05-11T00:15:59+00:00,11.774118900299,61,"updated stim.csv",Version61.csv,"Version 61","List 61",,,,,,,0,Instruct,-,10,"Please keep in mind that a single object will have more than one use. For example, a ball can be thrown or can be bounced or even stepped on. When listing multiple uses for one object, please separate each use with a comma (i.e., thrown, bounced, stepped on)",,Instruct2,11116,,,-1,-1,,,,,1
60394fde95a5a03dcc668c4b,9b45cj1rhy,"Affordance Norms_Prolific",1,3,2023-05-11T00:16:02+00:00,3.7078800201416,61,"updated stim.csv",Version61.csv,"Version 61","List 61",,,,,,,0,Instruct,-,-,"Before starting the experiment, you will complete a short practice sesstion. Press ENTER when you are ready to begin.",,Instruct3,3246,,,-1,-1,,,,,1
60394fde95a5a03dcc668c4b,9b45cj1rhy,"Affordance Norms_Prolific",1,4,2023-05-11T00:16:43+00:00,41.043189048767,61,"updated stim.csv",Version61.csv,"Version 61","List 61",saucer,,3005,5.777777778,2249,0.304808074,3006,BOI,-,-,"Please name all of the ways you could use this object. Keep in mind that one object can have many uses. Separate your responses with a comma.",,n,40389,,,6067,18859,,,,"eating, throwing, spinning, licking, smashing",0.969
60394fde95a5a03dcc668c4b,9b45cj1rhy,"Affordance Norms_Prolific",1,5,2023-05-11T00:17:08+00:00,24.272466897964,61,"updated stim.csv",Version61.csv,"Version 61","List 61",spaghetti,,3003,6,2461,0.090379998,3004,BOI,-,-,"Please name all of the ways you could use this object. Keep in mind that one object can have many uses. Separate your responses with a comma.",,n,23576,,,2771,20291,,,,"Eating, making, crafting, snapping, boiling",1
60394fde95a5a03dcc668c4b,9b45cj1rhy,"Affordance Norms_Prolific",1,6,2023-05-11T00:17:25+00:00,16.793148994446,61,"updated stim.csv",Version61.csv,"Version 61","List 61",grain,,3004,5.217391304,1143,0.226863762,3005,BOI,-,-,"Please name all of the ways you could use this object. Keep in mind that one object can have many uses. Separate your responses with a comma.",,n,16125,,,2183,14959,,,,"Harvesting, eating, blending, crushing, ploughing",1
60394fde95a5a03dcc668c4b,9b45cj1rhy,"Affordance Norms_Prolific",1,7,2023-05-11T00:17:50+00:00,24.981528043747,61,"updated stim.csv",Version61.csv,"Version 61","List 61",shortening,,3002,4.92,2358,0.604328482,3003,BOI,-,-,"Please name all of the ways you could use this object. Keep in mind that one object can have many uses. Separate your responses with a comma.",,n,24278,,,4320,22862,,,,"Fattening, reducing, spreading, kneading",1
60394fde95a5a03dcc668c4b,9b45cj1rhy,"Affordance Norms_Prolific",1,8,2023-05-11T00:18:17+00:00,27.856861114502,61,"updated stim.csv",Version61.csv,"Version 61","List 61",paperwork,,3001,5.625,1866,0.124284162,3002,BOI,-,-,"Please name all of the ways you could use this object. Keep in mind that one object can have many uses. Separate your responses with a comma.",,n,27172,,,2854,26057,,,,"Filing, drawing, completing, shredding, scrap, sending, signing",1
60394fde95a5a03dcc668c4b,9b45cj1rhy,"Affordance Norms_Prolific",1,9,2023-05-11T00:18:23+00:00,5.155455827713,61,"updated stim.csv",Version61.csv,"Version 61","List 61",,,,,,,0,Instruct,-,-,"You have completed this section. Press ENTER to continue",,"Instruct 5",4573,,,-1,-1,,,,,1
60394fde95a5a03dcc668c4b,9b45cj1rhy,"Affordance Norms_Prolific",1,10,2023-05-11T00:18:25+00:00,2.0476911067963,61,"updated stim.csv",Version61.csv,"Version 61","List 61",,,,,,,0,Instruct,-,-,"You will now start the full experiment. Press ENTER when you are ready to begin.",,,1692,,,-1,-1,,,,,1
60394fde95a5a03dcc668c4b,9b45cj1rhy,"Affordance Norms_Prolific",1,11,2023-05-11T00:18:39+00:00,14.527033090591,61,"updated stim.csv",Version61.csv,"Version 61","List 61",paw,,1824,5,1889,0.144536089,1825,BOI,-,-,"Please name all of the ways you could use this object. Keep in mind that one object can have many uses. Separate your responses with a comma.",,y,14003,,,3373,12317,,,,"Pat, tap, stroke, cut, wash",1
60394fde95a5a03dcc668c4b,9b45cj1rhy,"Affordance Norms_Prolific",1,12,2023-05-11T00:19:07+00:00,27.720353841782,61,"updated stim.csv",Version61.csv,"Version 61","List 61",cymbals,,1810,5.695652174,742,0.757322857,1811,BOI,-,-,"Please name all of the ways you could use this object. Keep in mind that one object can have many uses. Separate your responses with a comma.",,y,27194,,,3074,25410,,,,"Play, clang, shine, brush, hit",1
60394fde95a5a03dcc668c4b,9b45cj1rhy,"Affordance Norms_Prolific",1,13,2023-05-11T00:19:37+00:00,30.497661113739,61,"updated stim.csv",Version61.csv,"Version 61","List 61",earmuff,,1825,6.260869565,876,0.752282936,1826,BOI,-,-,"Please name all of the ways you could use this object. Keep in mind that one object can have many uses. Separate your responses with a comma.",,y,29979,,,5897,28945,,,,"Wear, remove, wash, recycle",1
60394fde95a5a03dcc668c4b,9b45cj1rhy,"Affordance Norms_Prolific",1,14,2023-05-11T00:20:01+00:00,24.001678943634,61,"updated stim.csv",Version61.csv,"Version 61","List 61",chihuahua,,1803,6.25,519,0.066027752,1804,BOI,-,-,"Please name all of the ways you could use this object. Keep in mind that one object can have many uses. Separate your responses with a comma.",,y,23379,,,2708,21864,,,,"Walk it, feed, stroke, photograph, shave, groom",1
60394fde95a5a03dcc668c4b,9b45cj1rhy,"Affordance Norms_Prolific",1,15,2023-05-11T00:20:25+00:00,23.351058959961,61,"updated stim.csv",Version61.csv,"Version 61","List 61",sportswoman,,1814,4.68,2483,0.084318788,1815,BOI,-,-,"Please name all of the ways you could use this object. Keep in mind that one object can have many uses. Separate your responses with a comma.",,y,22704,,,3431,21556,,,,"Listen, watch, congratulate, copy, investigate, follow, support",1
60394fde95a5a03dcc668c4b,9b45cj1rhy,"Affordance Norms_Prolific",1,16,2023-05-11T00:20:45+00:00,20.374969005585,61,"updated stim.csv",Version61.csv,"Version 61","List 61",strap,,1815,4.923076923,2559,0.385944754,1816,BOI,-,-,"Please name all of the ways you could use this object. Keep in mind that one object can have many uses. Separate your responses with a comma.",,y,19755,,,2499,18207,,,,"Pull, straighten, buckle, tighten, loosen, wear",1
60394fde95a5a03dcc668c4b,9b45cj1rhy,"Affordance Norms_Prolific",1,17,2023-05-11T00:21:06+00:00,21.194324970245,61,"updated stim.csv",Version61.csv,"Version 61","List 61",item,,1813,5.739130435,1369,0.286827578,1814,BOI,-,-,"Please name all of the ways you could use this object. Keep in mind that one object can have many uses. Separate your responses with a comma.",,y,20519,,,3512,19203,,,,"Send, package, wrap, list, file",1
60394fde95a5a03dcc668c4b,9b45cj1rhy,"Affordance Norms_Prolific",1,18,2023-05-11T00:21:25+00:00,19.147859096527,61,"updated stim.csv",Version61.csv,"Version 61","List 61",chalet,,1808,4.416666667,489,0.980553455,1809,BOI,-,-,"Please name all of the ways you could use this object. Keep in mind that one object can have many uses. Separate your responses with a comma.",,y,18457,,,2865,17107,,,,"Live, rent, draw, paint, offer",1
60394fde95a5a03dcc668c4b,9b45cj1rhy,"Affordance Norms_Prolific",1,19,2023-05-11T00:21:44+00:00,18.735929012299,61,"updated stim.csv",Version61.csv,"Version 61","List 61",tearoom,,1822,4.458333333,2652,0.35124029,1823,BOI,-,-,"Please name all of the ways you could use this object. Keep in mind that one object can have many uses. Separate your responses with a comma.",,y,18110,,,2936,16444,,,,"Drink, entertain, host, polish, clean",1
60394fde95a5a03dcc668c4b,9b45cj1rhy,"Affordance Norms_Prolific",1,20,2023-05-11T00:22:35+00:00,50.896142959595,61,"updated stim.csv",Version61.csv,"Version 61","List 61",cement,,1805,5.04,476,0.716445356,1806,BOI,-,-,"Please name all of the ways you could use this object. Keep in mind that one object can have many uses. Separate your responses with a comma.",,y,50225,,,4609,7620,,,,"Lay, mix, ",0.967
60394fde95a5a03dcc668c4b,9b45cj1rhy,"Affordance Norms_Prolific",1,21,2023-05-11T00:22:51+00:00,15.979962110519,61,"updated stim.csv",Version61.csv,"Version 61","List 61",camisole,,1820,5.476190476,407,0.11875186,1821,BOI,-,-,"Please name all of the ways you could use this object. Keep in mind that one object can have many uses. Separate your responses with a comma.",,y,15311,,,3034,14113,,,,"Protect, wear, dye, remove",1
60394fde95a5a03dcc668c4b,9b45cj1rhy,"Affordance Norms_Prolific",1,22,2023-05-11T00:23:15+00:00,24.316427946091,61,"updated stim.csv",Version61.csv,"Version 61","List 61",mask,,1809,5.92,1614,0.454173155,1810,BOI,-,-,"Please name all of the ways you could use this object. Keep in mind that one object can have many uses. Separate your responses with a comma.",,y,23711,,,2473,22644,,,,"Wear, remove, pretend, cover, create, disguise",1
60394fde95a5a03dcc668c4b,9b45cj1rhy,"Affordance Norms_Prolific",1,23,2023-05-11T00:23:43+00:00,27.901518821716,61,"updated stim.csv",Version61.csv,"Version 61","List 61",journalist,,1807,4.5,1391,0.272833389,1808,BOI,-,-,"Please name all of the ways you could use this object. Keep in mind that one object can have many uses. Separate your responses with a comma.",,y,27274,,,2254,23525,,,,"Listen, share, sell, read, inform, criticise ",1
60394fde95a5a03dcc668c4b,9b45cj1rhy,"Affordance Norms_Prolific",1,24,2023-05-11T00:23:57+00:00,13.311056137085,61,"updated stim.csv",Version61.csv,"Version 61","List 61",piglet,,1804,4.68,1956,0.56265915,1805,BOI,-,-,"Please name all of the ways you could use this object. Keep in mind that one object can have many uses. Separate your responses with a comma.",,y,12669,,,2822,11501,,,,"Protect, feed, care for",1
60394fde95a5a03dcc668c4b,9b45cj1rhy,"Affordance Norms_Prolific",1,25,2023-05-11T00:24:12+00:00,15.462512969971,61,"updated stim.csv",Version61.csv,"Version 61","List 61",bra,,1816,6.52173913,298,0.093715532,1817,BOI,-,-,"Please name all of the ways you could use this object. Keep in mind that one object can have many uses. Separate your responses with a comma.",,y,14744,,,2318,11312,,,,"Wear, remove, adjust",1
60394fde95a5a03dcc668c4b,9b45cj1rhy,"Affordance Norms_Prolific",1,26,2023-05-11T00:24:30+00:00,17.611296892166,61,"updated stim.csv",Version61.csv,"Version 61","List 61",trailer,,1801,5.296296296,2755,0.639574196,1802,BOI,-,-,"Please name all of the ways you could use this object. Keep in mind that one object can have many uses. Separate your responses with a comma.",,y,16870,,,2662,14121,,,,"Watch, pull, like",1
60394fde95a5a03dcc668c4b,9b45cj1rhy,"Affordance Norms_Prolific",1,27,2023-05-11T00:24:57+00:00,27.23241519928,61,"updated stim.csv",Version61.csv,"Version 61","List 61",nettle,,1827,4.529411765,1752,0.15679288,1828,BOI,-,-,"Please name all of the ways you could use this object. Keep in mind that one object can have many uses. Separate your responses with a comma.",,y,26579,,,2642,24346,,,,"Stung, weed, drink, eat, smell, touch",1
60394fde95a5a03dcc668c4b,9b45cj1rhy,"Affordance Norms_Prolific",1,28,2023-05-11T00:25:25+00:00,28.265738964081,61,"updated stim.csv",Version61.csv,"Version 61","List 61",potboiler,,1826,4.84,2048,0.199742675,1827,BOI,-,-,"Please name all of the ways you could use this object. Keep in mind that one object can have many uses. Separate your responses with a comma.",,y,27628,,,8621,26112,,,,"Pour, heat, cool, watch, wash, scour",1
60394fde95a5a03dcc668c4b,9b45cj1rhy,"Affordance Norms_Prolific",1,29,2023-05-11T00:25:48+00:00,22.429386854172,61,"updated stim.csv",Version61.csv,"Version 61","List 61",banana,,1823,6.107142857,136,0.945904325,1824,BOI,-,-,"Please name all of the ways you could use this object. Keep in mind that one object can have many uses. Separate your responses with a comma.",,y,21774,,,2135,18660,,,,"Eat, peel, ripen, mash, slice, fry, boil",1
60394fde95a5a03dcc668c4b,9b45cj1rhy,"Affordance Norms_Prolific",1,30,2023-05-11T00:26:07+00:00,19.555260181427,61,"updated stim.csv",Version61.csv,"Version 61","List 61",prostitute,,1812,5,2080,0.685538766,1813,BOI,-,-,"Please name all of the ways you could use this object. Keep in mind that one object can have many uses. Separate your responses with a comma.",,y,18919,,,3929,11755,,,,"Protect, help, use",1
60394fde95a5a03dcc668c4b,9b45cj1rhy,"Affordance Norms_Prolific",1,31,2023-05-11T00:26:28+00:00,20.479317903519,61,"updated stim.csv",Version61.csv,"Version 61","List 61",igloo,,1828,4.851851852,1349,0.30096055,1829,BOI,-,-,"Please name all of the ways you could use this object. Keep in mind that one object can have many uses. Separate your responses with a comma.",,y,19873,,,2534,18525,,,,"Make, create, live, warm up, build, destroy",1
60394fde95a5a03dcc668c4b,9b45cj1rhy,"Affordance Norms_Prolific",1,32,2023-05-11T00:26:59+00:00,31.135427951813,61,"updated stim.csv",Version61.csv,"Version 61","List 61",bookshelf,,1818,5.727272727,279,0.263397152,1819,BOI,-,-,"Please name all of the ways you could use this object. Keep in mind that one object can have many uses. Separate your responses with a comma.",,y,30462,,,3560,27381,,,,"Stack, remove, bracket, dust, wipe, organise, make",1
60394fde95a5a03dcc668c4b,9b45cj1rhy,"Affordance Norms_Prolific",1,33,2023-05-11T00:27:15+00:00,15.973409175873,61,"updated stim.csv",Version61.csv,"Version 61","List 61",crewman,,1802,4.291666667,693,0.58201584,1803,BOI,-,-,"Please name all of the ways you could use this object. Keep in mind that one object can have many uses. Separate your responses with a comma.",,y,15225,,,3116,14243,,,,"Discuss, ask, plan",1
60394fde95a5a03dcc668c4b,9b45cj1rhy,"Affordance Norms_Prolific",1,34,2023-05-11T00:27:49+00:00,34.717264890671,61,"updated stim.csv",Version61.csv,"Version 61","List 61",pond,,1817,4.5,2029,0.543873026,1818,BOI,-,-,"Please name all of the ways you could use this object. Keep in mind that one object can have many uses. Separate your responses with a comma.",,y,33769,,,3003,32454,,,,"Fish, clean, add, remove, adore, remember",1
60394fde95a5a03dcc668c4b,9b45cj1rhy,"Affordance Norms_Prolific",1,35,2023-05-11T00:28:12+00:00,22.935736894608,61,"updated stim.csv",Version61.csv,"Version 61","List 61",script,,1811,5.041666667,2289,0.451207192,1812,BOI,-,-,"Please name all of the ways you could use this object. Keep in mind that one object can have many uses. Separate your responses with a comma.",,y,22254,,,2829,20671,,,,"Read, change, imagine, critique, try, act",1
60394fde95a5a03dcc668c4b,9b45cj1rhy,"Affordance Norms_Prolific",1,36,2023-05-11T00:28:19+00:00,6.762570142746,61,"updated stim.csv",Version61.csv,"Version 61","List 61",moccasin,,1819,5.458333333,1673,0.97115448,1820,BOI,-,-,"Please name all of the ways you could use this object. Keep in mind that one object can have many uses. Separate your responses with a comma.",,y,6079,,,2333,5015,,,,"Wear, design",1
60394fde95a5a03dcc668c4b,9b45cj1rhy,"Affordance Norms_Prolific",1,37,2023-05-11T00:28:44+00:00,24.57381105423,61,"updated stim.csv",Version61.csv,"Version 61","List 61",employee,,1829,5.045454545,903,0.420658734,1830,BOI,-,-,"Please name all of the ways you could use this object. Keep in mind that one object can have many uses. Separate your responses with a comma.",,y,23849,,,2763,22616,,,,"Encourage, train, criticise, fire, promote, hire, pay, employ",1
60394fde95a5a03dcc668c4b,9b45cj1rhy,"Affordance Norms_Prolific",1,38,2023-05-11T00:29:06+00:00,22.531690835953,61,"updated stim.csv",Version61.csv,"Version 61","List 61",fingertip,,1830,5.928571429,981,0.55677321,1831,BOI,-,-,"Please name all of the ways you could use this object. Keep in mind that one object can have many uses. Separate your responses with a comma.",,y,21819,,,2248,20558,,,,"Cut, bandage, protect, print",1
60394fde95a5a03dcc668c4b,9b45cj1rhy,"Affordance Norms_Prolific",1,39,2023-05-11T00:29:25+00:00,19.251742124557,61,"updated stim.csv",Version61.csv,"Version 61","List 61",bacon,,1806,5.916666667,118,0.688014225,1807,BOI,-,-,"Please name all of the ways you could use this object. Keep in mind that one object can have many uses. Separate your responses with a comma.",,y,18531,,,4257,17199,,,,"Fry, bake, smell, roll, slice",1
60394fde95a5a03dcc668c4b,9b45cj1rhy,"Affordance Norms_Prolific",1,40,2023-05-11T00:29:42+00:00,16.179704904556,61,"updated stim.csv",Version61.csv,"Version 61","List 61",mouthpiece,,1821,5.304347826,1706,0.970919367,1822,BOI,-,-,"Please name all of the ways you could use this object. Keep in mind that one object can have many uses. Separate your responses with a comma.",,y,15440,,,2382,9307,,,,"Speak, clean, move, adjust",1
60394fde95a5a03dcc668c4b,9b45cj1rhy,"Affordance Norms_Prolific",1,41,2023-05-11T00:29:44+00:00,2.6523461341858,61,"updated stim.csv",Version61.csv,"Version 61","List 61",,,,,,,0,Instruct,,,"You will now be asked a few questions about your experience today.",,"Instruct 4",2183,,,-1,-1,,,,,1
