Username,ID,ExperimentName,Session,Trial,Date,TimeDif,"Condition Number","Stimuli File","Order File","Condition Description","Condition Notes",Stimuli*Cue,Stimuli*Answer,Stimuli*Shuffle,"Stimuli*Stimuli Notes",Stimuli*Value,Stimuli*Rand,Procedure*Item,"Procedure*Trial Type","Procedure*Max Time","Procedure*Min Time",Procedure*Text,"Procedure*Procedure Notes",Procedure*Shuffle,Response*RT,Response*Response,Response*Accuracy,Response*RTfirst,Response*RTlast,Response*strictAcc,Response*lenientAcc,Response*focus,Response*JOL,Response*Focus
5a8ad2082a842c0001fce0f2,6886jc6xne,"Affordance Norms_Prolific",1,1,2023-05-11T22:51:45+00:00,15.255566835403,29,"updated stim.csv",Version29.csv,"Version 29","List 29",,,,,,,0,Instruct,-,10,"In this section, you will be presented with a series of objects. Please name as many possible uses for this object as you can think of by typing them in the box below each object.",,Instruct1,14607,,,-1,-1,,,,,1
5a8ad2082a842c0001fce0f2,6886jc6xne,"Affordance Norms_Prolific",1,2,2023-05-11T22:52:00+00:00,14.869486093521,29,"updated stim.csv",Version29.csv,"Version 29","List 29",,,,,,,0,Instruct,-,10,"Please keep in mind that a single object will have more than one use. For example, a ball can be thrown or can be bounced or even stepped on. When listing multiple uses for one object, please separate each use with a comma (i.e., thrown, bounced, stepped on)",,Instruct2,14077,,,-1,-1,,,,,1
5a8ad2082a842c0001fce0f2,6886jc6xne,"Affordance Norms_Prolific",1,3,2023-05-11T22:52:04+00:00,3.9163970947266,29,"updated stim.csv",Version29.csv,"Version 29","List 29",,,,,,,0,Instruct,-,-,"Before starting the experiment, you will complete a short practice sesstion. Press ENTER when you are ready to begin.",,Instruct3,3367,,,-1,-1,,,,,1
5a8ad2082a842c0001fce0f2,6886jc6xne,"Affordance Norms_Prolific",1,4,2023-05-11T22:53:49+00:00,105.56879377365,29,"updated stim.csv",Version29.csv,"Version 29","List 29",grain,,3004,5.217391304,1143,0.226863762,3005,BOI,-,-,"Please name all of the ways you could use this object. Keep in mind that one object can have many uses. Separate your responses with a comma.",,n,104733,,,11464,46541,,,,"eat, pick, bake, farm",1
5a8ad2082a842c0001fce0f2,6886jc6xne,"Affordance Norms_Prolific",1,5,2023-05-11T22:55:03+00:00,74.018158197403,29,"updated stim.csv",Version29.csv,"Version 29","List 29",shortening,,3002,4.92,2358,0.604328482,3003,BOI,-,-,"Please name all of the ways you could use this object. Keep in mind that one object can have many uses. Separate your responses with a comma.",,n,73021,,,17755,38814,,,,crouching,1
5a8ad2082a842c0001fce0f2,6886jc6xne,"Affordance Norms_Prolific",1,6,2023-05-11T22:56:26+00:00,82.850427865982,29,"updated stim.csv",Version29.csv,"Version 29","List 29",saucer,,3005,5.777777778,2249,0.304808074,3006,BOI,-,-,"Please name all of the ways you could use this object. Keep in mind that one object can have many uses. Separate your responses with a comma.",,n,81817,,,6910,31456,,,,"cooking, entertaining, organising",1
5a8ad2082a842c0001fce0f2,6886jc6xne,"Affordance Norms_Prolific",1,7,2023-05-11T22:57:06+00:00,39.90460395813,29,"updated stim.csv",Version29.csv,"Version 29","List 29",spaghetti,,3003,6,2461,0.090379998,3004,BOI,-,-,"Please name all of the ways you could use this object. Keep in mind that one object can have many uses. Separate your responses with a comma.",,n,38908,,,1908,36047,,,,"eating, playing, designing, smelling",1
5a8ad2082a842c0001fce0f2,6886jc6xne,"Affordance Norms_Prolific",1,8,2023-05-11T22:57:46+00:00,40.539964199066,29,"updated stim.csv",Version29.csv,"Version 29","List 29",paperwork,,3001,5.625,1866,0.124284162,3002,BOI,-,-,"Please name all of the ways you could use this object. Keep in mind that one object can have many uses. Separate your responses with a comma.",,n,39753,,,5586,37828,,,,"resting, reading, organising, shredding, recycling",1
5a8ad2082a842c0001fce0f2,6886jc6xne,"Affordance Norms_Prolific",1,9,2023-05-11T22:57:55+00:00,8.4325549602509,29,"updated stim.csv",Version29.csv,"Version 29","List 29",,,,,,,0,Instruct,-,-,"You have completed this section. Press ENTER to continue",,"Instruct 5",7431,,,-1,-1,,,,,1
5a8ad2082a842c0001fce0f2,6886jc6xne,"Affordance Norms_Prolific",1,10,2023-05-11T22:57:59+00:00,3.9361898899078,29,"updated stim.csv",Version29.csv,"Version 29","List 29",,,,,,,0,Instruct,-,-,"You will now start the full experiment. Press ENTER when you are ready to begin.",,,3368,,,-1,-1,,,,,1
5a8ad2082a842c0001fce0f2,6886jc6xne,"Affordance Norms_Prolific",1,11,2023-05-11T22:59:03+00:00,63.937384128571,29,"updated stim.csv",Version29.csv,"Version 29","List 29",stepchild,,860,5.04,2524,0.735613852,861,BOI,-,-,"Please name all of the ways you could use this object. Keep in mind that one object can have many uses. Separate your responses with a comma.",,y,62850,,,9477,60294,,,,"caring, playing, supervising, entertaining, moving, throwing, talking, communicating",1
5a8ad2082a842c0001fce0f2,6886jc6xne,"Affordance Norms_Prolific",1,12,2023-05-11T22:59:32+00:00,29.020013809204,29,"updated stim.csv",Version29.csv,"Version 29","List 29",chopsticks,,855,6.391304348,534,0.12111344,856,BOI,-,-,"Please name all of the ways you could use this object. Keep in mind that one object can have many uses. Separate your responses with a comma.",,y,28124,,,5266,26736,,,,"eating, playing, picking, breaking",1
5a8ad2082a842c0001fce0f2,6886jc6xne,"Affordance Norms_Prolific",1,13,2023-05-11T23:00:19+00:00,47.484822034836,29,"updated stim.csv",Version29.csv,"Version 29","List 29",drawer,,861,6,839,0.020367593,862,BOI,-,-,"Please name all of the ways you could use this object. Keep in mind that one object can have many uses. Separate your responses with a comma.",,y,46707,,,4017,30007,,,,"organising, sorting, keeping",1
5a8ad2082a842c0001fce0f2,6886jc6xne,"Affordance Norms_Prolific",1,14,2023-05-11T23:02:29+00:00,130.03816008568,29,"updated stim.csv",Version29.csv,"Version 29","List 29",loo,,868,4.952380952,1547,0.944259023,869,BOI,-,-,"Please name all of the ways you could use this object. Keep in mind that one object can have many uses. Separate your responses with a comma.",,y,129240,,,106631,128028,,,,"toilet, sitting, fixing, sorting",1
5a8ad2082a842c0001fce0f2,6886jc6xne,"Affordance Norms_Prolific",1,15,2023-05-11T23:03:31+00:00,61.467531919479,29,"updated stim.csv",Version29.csv,"Version 29","List 29",peacock,,852,4.8,1892,0.379182657,853,BOI,-,-,"Please name all of the ways you could use this object. Keep in mind that one object can have many uses. Separate your responses with a comma.",,y,60577,,,6438,58761,,,,"watching, eating, playing, communicating",1
5a8ad2082a842c0001fce0f2,6886jc6xne,"Affordance Norms_Prolific",1,16,2023-05-11T23:05:06+00:00,95.315644025803,29,"updated stim.csv",Version29.csv,"Version 29","List 29",cubical,,848,4.36,722,0.555956074,849,BOI,-,-,"Please name all of the ways you could use this object. Keep in mind that one object can have many uses. Separate your responses with a comma.",,y,94261,,,-1,-1,,,,,1
5a8ad2082a842c0001fce0f2,6886jc6xne,"Affordance Norms_Prolific",1,17,2023-05-11T23:05:12+00:00,6.1692299842834,29,"updated stim.csv",Version29.csv,"Version 29","List 29",seaplane,,858,4.333333333,2297,0.432682347,859,BOI,-,-,"Please name all of the ways you could use this object. Keep in mind that one object can have many uses. Separate your responses with a comma.",,y,5525,,,-1,-1,,,,,1
5a8ad2082a842c0001fce0f2,6886jc6xne,"Affordance Norms_Prolific",1,18,2023-05-11T23:08:27+00:00,194.63264012337,29,"updated stim.csv",Version29.csv,"Version 29","List 29",puppy,,856,6.25,2104,0.657314439,857,BOI,-,-,"Please name all of the ways you could use this object. Keep in mind that one object can have many uses. Separate your responses with a comma.",,y,193727,,,117270,151696,,,,"pet, adopt, stroke, wash, walk",1
5a8ad2082a842c0001fce0f2,6886jc6xne,"Affordance Norms_Prolific",1,19,2023-05-11T23:09:24+00:00,56.919734954834,29,"updated stim.csv",Version29.csv,"Version 29","List 29",drawers,,865,5.869565217,840,0.225533231,866,BOI,-,-,"Please name all of the ways you could use this object. Keep in mind that one object can have many uses. Separate your responses with a comma.",,y,56277,,,4531,52619,,,,"organise, make, build, sort, sit",1
5a8ad2082a842c0001fce0f2,6886jc6xne,"Affordance Norms_Prolific",1,20,2023-05-11T23:10:52+00:00,88.039884090424,29,"updated stim.csv",Version29.csv,"Version 29","List 29",marionette,,849,4.333333333,1607,0.239086256,850,BOI,-,-,"Please name all of the ways you could use this object. Keep in mind that one object can have many uses. Separate your responses with a comma.",,y,86325,,,10535,84708,,,,"play, mimic, touch, watch",0.975
5a8ad2082a842c0001fce0f2,6886jc6xne,"Affordance Norms_Prolific",1,21,2023-05-11T23:11:27+00:00,35.078120946884,29,"updated stim.csv",Version29.csv,"Version 29","List 29",whiskers,,842,4.625,2929,0.016400371,843,BOI,-,-,"Please name all of the ways you could use this object. Keep in mind that one object can have many uses. Separate your responses with a comma.",,y,33732,,,2766,26556,,,,"stroke, touch",1
5a8ad2082a842c0001fce0f2,6886jc6xne,"Affordance Norms_Prolific",1,22,2023-05-11T23:15:31+00:00,244.3625600338,29,"updated stim.csv",Version29.csv,"Version 29","List 29",saffron,,866,4.666666667,2214,0.91541526,867,BOI,-,-,"Please name all of the ways you could use this object. Keep in mind that one object can have many uses. Separate your responses with a comma.",,y,242979,,,21212,24919,,,,"smell, take",0.523
5a8ad2082a842c0001fce0f2,6886jc6xne,"Affordance Norms_Prolific",1,23,2023-05-11T23:16:23+00:00,51.534254789352,29,"updated stim.csv",Version29.csv,"Version 29","List 29",recruiter,,841,4.347826087,2149,0.094929085,842,BOI,-,-,"Please name all of the ways you could use this object. Keep in mind that one object can have many uses. Separate your responses with a comma.",,y,50055,,,5086,16884,,,,"talk, commicate, find",0.964
5a8ad2082a842c0001fce0f2,6886jc6xne,"Affordance Norms_Prolific",1,24,2023-05-11T23:16:36+00:00,12.747937202454,29,"updated stim.csv",Version29.csv,"Version 29","List 29",dartboard,,854,5.608695652,759,0.267211371,855,BOI,-,-,"Please name all of the ways you could use this object. Keep in mind that one object can have many uses. Separate your responses with a comma.",,y,11875,,,4006,10646,,,,"play, hit, target",1
5a8ad2082a842c0001fce0f2,6886jc6xne,"Affordance Norms_Prolific",1,25,2023-05-11T23:16:53+00:00,17.068382978439,29,"updated stim.csv",Version29.csv,"Version 29","List 29",puppet,,869,5.739130435,2103,0.435409395,870,BOI,-,-,"Please name all of the ways you could use this object. Keep in mind that one object can have many uses. Separate your responses with a comma.",,y,16314,,,1838,14899,,,,"play, watch, touch, talk",1
5a8ad2082a842c0001fce0f2,6886jc6xne,"Affordance Norms_Prolific",1,26,2023-05-11T23:17:44+00:00,51.565359830856,29,"updated stim.csv",Version29.csv,"Version 29","List 29",wool,,870,5.392857143,2967,0.698769358,871,BOI,-,-,"Please name all of the ways you could use this object. Keep in mind that one object can have many uses. Separate your responses with a comma.",,y,50066,,,1822,48760,,,,"feel, touch, wear, make",1
5a8ad2082a842c0001fce0f2,6886jc6xne,"Affordance Norms_Prolific",1,27,2023-05-11T23:18:07+00:00,23.18394613266,29,"updated stim.csv",Version29.csv,"Version 29","List 29",canvas,,857,5.590909091,420,0.874071933,858,BOI,-,-,"Please name all of the ways you could use this object. Keep in mind that one object can have many uses. Separate your responses with a comma.",,y,22320,,,2742,20532,,,,"paint, draw, touch, feel",1
5a8ad2082a842c0001fce0f2,6886jc6xne,"Affordance Norms_Prolific",1,28,2023-05-11T23:19:34+00:00,87.166935920715,29,"updated stim.csv",Version29.csv,"Version 29","List 29",kiwi,,844,6.08,1430,0.639617568,845,BOI,-,-,"Please name all of the ways you could use this object. Keep in mind that one object can have many uses. Separate your responses with a comma.",,y,85496,,,1783,21388,,,,"eat, smell, make",1
5a8ad2082a842c0001fce0f2,6886jc6xne,"Affordance Norms_Prolific",1,29,2023-05-11T23:19:56+00:00,21.314851045609,29,"updated stim.csv",Version29.csv,"Version 29","List 29",eggbeater,,862,5.96,893,0.11369401,863,BOI,-,-,"Please name all of the ways you could use this object. Keep in mind that one object can have many uses. Separate your responses with a comma.",,y,20121,,,10036,18637,,,,"bake, cook",1
5a8ad2082a842c0001fce0f2,6886jc6xne,"Affordance Norms_Prolific",1,30,2023-05-11T23:20:41+00:00,45.203144073486,29,"updated stim.csv",Version29.csv,"Version 29","List 29",chinchilla,,846,4.925925926,528,0.932461993,847,BOI,-,-,"Please name all of the ways you could use this object. Keep in mind that one object can have many uses. Separate your responses with a comma.",,y,43916,,,13134,23997,,,,"pet, touch, care",0.868
5a8ad2082a842c0001fce0f2,6886jc6xne,"Affordance Norms_Prolific",1,31,2023-05-11T23:21:10+00:00,29.305467844009,29,"updated stim.csv",Version29.csv,"Version 29","List 29",reefer,,853,4.52173913,2151,0.532492067,854,BOI,-,-,"Please name all of the ways you could use this object. Keep in mind that one object can have many uses. Separate your responses with a comma.",,y,28431,,,19710,26482,,,,"maintain, store",0.87
5a8ad2082a842c0001fce0f2,6886jc6xne,"Affordance Norms_Prolific",1,32,2023-05-11T23:22:37+00:00,86.244522094727,29,"updated stim.csv",Version29.csv,"Version 29","List 29",dancer,,859,5.090909091,754,0.545210897,860,BOI,-,-,"Please name all of the ways you could use this object. Keep in mind that one object can have many uses. Separate your responses with a comma.",,y,84907,,,4528,15970,,,,"watch, join, entertain",1
5a8ad2082a842c0001fce0f2,6886jc6xne,"Affordance Norms_Prolific",1,33,2023-05-11T23:22:48+00:00,10.989665985107,29,"updated stim.csv",Version29.csv,"Version 29","List 29",cassette,,863,5.148148148,453,0.47456788,864,BOI,-,-,"Please name all of the ways you could use this object. Keep in mind that one object can have many uses. Separate your responses with a comma.",,y,10229,,,2221,8745,,,,"play, listen, buy",1
5a8ad2082a842c0001fce0f2,6886jc6xne,"Affordance Norms_Prolific",1,34,2023-05-11T23:22:58+00:00,10.862122058868,29,"updated stim.csv",Version29.csv,"Version 29","List 29",horsefly,,850,4.32,1313,0.128854278,851,BOI,-,-,"Please name all of the ways you could use this object. Keep in mind that one object can have many uses. Separate your responses with a comma.",,y,10000,,,2301,8760,,,,"catch, watch, hear",1
5a8ad2082a842c0001fce0f2,6886jc6xne,"Affordance Norms_Prolific",1,35,2023-05-11T23:24:47+00:00,108.6060769558,29,"updated stim.csv",Version29.csv,"Version 29","List 29",streetwalker,,864,4.84,2566,0.15320214,865,BOI,-,-,"Please name all of the ways you could use this object. Keep in mind that one object can have many uses. Separate your responses with a comma.",,y,107132,,,25732,105661,,,,"watch, join",0.967
5a8ad2082a842c0001fce0f2,6886jc6xne,"Affordance Norms_Prolific",1,36,2023-05-11T23:25:30+00:00,42.605937004089,29,"updated stim.csv",Version29.csv,"Version 29","List 29",ball,,847,6.608695652,128,0.22268434,848,BOI,-,-,"Please name all of the ways you could use this object. Keep in mind that one object can have many uses. Separate your responses with a comma.",,y,41298,,,1897,39670,,,,"play, sit, kick, catch, touch, header, volley",1
5a8ad2082a842c0001fce0f2,6886jc6xne,"Affordance Norms_Prolific",1,37,2023-05-11T23:25:44+00:00,13.883441925049,29,"updated stim.csv",Version29.csv,"Version 29","List 29",shoestring,,845,6.36,2352,0.103386452,846,BOI,-,-,"Please name all of the ways you could use this object. Keep in mind that one object can have many uses. Separate your responses with a comma.",,y,13035,,,2949,6149,,,,"tie, wear",1
5a8ad2082a842c0001fce0f2,6886jc6xne,"Affordance Norms_Prolific",1,38,2023-05-11T23:30:46+00:00,302.14048409462,29,"updated stim.csv",Version29.csv,"Version 29","List 29",melon,,851,5.681818182,1641,0.714880294,852,BOI,-,-,"Please name all of the ways you could use this object. Keep in mind that one object can have many uses. Separate your responses with a comma.",,y,300685,,,271203,299052,,,,"eat, smell, rub",0.822
5a8ad2082a842c0001fce0f2,6886jc6xne,"Affordance Norms_Prolific",1,39,2023-05-11T23:31:04+00:00,18.054049968719,29,"updated stim.csv",Version29.csv,"Version 29","List 29",advisor,,867,4.347826087,16,0.306787272,868,BOI,-,-,"Please name all of the ways you could use this object. Keep in mind that one object can have many uses. Separate your responses with a comma.",,y,17244,,,2881,14798,,,,"help, talk, see",1
5a8ad2082a842c0001fce0f2,6886jc6xne,"Affordance Norms_Prolific",1,40,2023-05-11T23:31:13+00:00,9.6708550453186,29,"updated stim.csv",Version29.csv,"Version 29","List 29",shoelace,,843,6.16,2351,0.491082523,844,BOI,-,-,"Please name all of the ways you could use this object. Keep in mind that one object can have many uses. Separate your responses with a comma.",,y,8752,,,2106,6643,,,,"tie, wear",1
5a8ad2082a842c0001fce0f2,6886jc6xne,"Affordance Norms_Prolific",1,41,2023-05-11T23:31:16+00:00,2.7131209373474,29,"updated stim.csv",Version29.csv,"Version 29","List 29",,,,,,,0,Instruct,,,"You will now be asked a few questions about your experience today.",,"Instruct 4",2144,,,-1,-1,,,,,1
