Username,ID,ExperimentName,Session,Trial,Date,TimeDif,"Condition Number","Stimuli File","Order File","Condition Description","Condition Notes",Stimuli*Cue,Stimuli*Answer,Stimuli*Shuffle,"Stimuli*Stimuli Notes",Stimuli*Value,Stimuli*Rand,Procedure*Item,"Procedure*Trial Type","Procedure*Max Time","Procedure*Min Time",Procedure*Text,"Procedure*Procedure Notes",Procedure*Shuffle,Response*RT,Response*Response,Response*Accuracy,Response*RTfirst,Response*RTlast,Response*strictAcc,Response*lenientAcc,Response*focus,Response*JOL,Response*Focus
5e62ece11e3088084e0039b8,1phqn51ryt,"Affordance Norms_Prolific",1,1,2023-05-11T18:03:10+00:00,11.110560894012,94,"updated stim.csv",Version94.csv,"Version 94","List 94",,,,,,,0,Instruct,-,10,"In this section, you will be presented with a series of objects. Please name as many possible uses for this object as you can think of by typing them in the box below each object.",,Instruct1,10884,,,-1,-1,,,,,1
5e62ece11e3088084e0039b8,1phqn51ryt,"Affordance Norms_Prolific",1,2,2023-05-11T18:03:23+00:00,13.225126028061,94,"updated stim.csv",Version94.csv,"Version 94","List 94",,,,,,,0,Instruct,-,10,"Please keep in mind that a single object will have more than one use. For example, a ball can be thrown or can be bounced or even stepped on. When listing multiple uses for one object, please separate each use with a comma (i.e., thrown, bounced, stepped on)",,Instruct2,12851,,,-1,-1,,,,,1
5e62ece11e3088084e0039b8,1phqn51ryt,"Affordance Norms_Prolific",1,3,2023-05-11T18:03:28+00:00,5.5001180171967,94,"updated stim.csv",Version94.csv,"Version 94","List 94",,,,,,,0,Instruct,-,-,"Before starting the experiment, you will complete a short practice sesstion. Press ENTER when you are ready to begin.",,Instruct3,5120,,,-1,-1,,,,,1
5e62ece11e3088084e0039b8,1phqn51ryt,"Affordance Norms_Prolific",1,4,2023-05-11T18:03:45+00:00,16.610378980637,94,"updated stim.csv",Version94.csv,"Version 94","List 94",saucer,,3005,5.777777778,2249,0.304808074,3006,BOI,-,-,"Please name all of the ways you could use this object. Keep in mind that one object can have many uses. Separate your responses with a comma.",,n,16072,,,2952,11710,,,,"hold a cup, hold food, throwing",1
5e62ece11e3088084e0039b8,1phqn51ryt,"Affordance Norms_Prolific",1,5,2023-05-11T18:04:17+00:00,32.296617031097,94,"updated stim.csv",Version94.csv,"Version 94","List 94",paperwork,,3001,5.625,1866,0.124284162,3002,BOI,-,-,"Please name all of the ways you could use this object. Keep in mind that one object can have many uses. Separate your responses with a comma.",,n,31904,,,4323,20771,,,,"Shred, throw in bin, file",1
5e62ece11e3088084e0039b8,1phqn51ryt,"Affordance Norms_Prolific",1,6,2023-05-11T18:04:40+00:00,22.311661958694,94,"updated stim.csv",Version94.csv,"Version 94","List 94",spaghetti,,3003,6,2461,0.090379998,3004,BOI,-,-,"Please name all of the ways you could use this object. Keep in mind that one object can have many uses. Separate your responses with a comma.",,n,21074,,,2246,19399,,,,"eat, make art, cook, crafts",1
5e62ece11e3088084e0039b8,1phqn51ryt,"Affordance Norms_Prolific",1,7,2023-05-11T18:05:08+00:00,28.567656993866,94,"updated stim.csv",Version94.csv,"Version 94","List 94",shortening,,3002,4.92,2358,0.604328482,3003,BOI,-,-,"Please name all of the ways you could use this object. Keep in mind that one object can have many uses. Separate your responses with a comma.",,n,28098,,,9628,26534,,,,"baking, compress",1
5e62ece11e3088084e0039b8,1phqn51ryt,"Affordance Norms_Prolific",1,8,2023-05-11T18:05:35+00:00,26.54634308815,94,"updated stim.csv",Version94.csv,"Version 94","List 94",grain,,3004,5.217391304,1143,0.226863762,3005,BOI,-,-,"Please name all of the ways you could use this object. Keep in mind that one object can have many uses. Separate your responses with a comma.",,n,26149,,,3461,16281,,,,"eat, cook, use for crafting",1
5e62ece11e3088084e0039b8,1phqn51ryt,"Affordance Norms_Prolific",1,9,2023-05-11T18:05:37+00:00,2.8254568576813,94,"updated stim.csv",Version94.csv,"Version 94","List 94",,,,,,,0,Instruct,-,-,"You have completed this section. Press ENTER to continue",,"Instruct 5",2299,,,-1,-1,,,,,1
5e62ece11e3088084e0039b8,1phqn51ryt,"Affordance Norms_Prolific",1,10,2023-05-11T18:05:40+00:00,2.8339900970459,94,"updated stim.csv",Version94.csv,"Version 94","List 94",,,,,,,0,Instruct,-,-,"You will now start the full experiment. Press ENTER when you are ready to begin.",,,2462,,,-1,-1,,,,,1
5e62ece11e3088084e0039b8,1phqn51ryt,"Affordance Norms_Prolific",1,11,2023-05-11T18:06:08+00:00,27.724597930908,94,"updated stim.csv",Version94.csv,"Version 94","List 94",snorkel,,2807,4.814814815,2428,0.530703777,2808,BOI,-,-,"Please name all of the ways you could use this object. Keep in mind that one object can have many uses. Separate your responses with a comma.",,y,27348,,,2006,25629,,,,"snorkelling, breathe under water, do shots",1
5e62ece11e3088084e0039b8,1phqn51ryt,"Affordance Norms_Prolific",1,12,2023-05-11T18:06:38+00:00,29.462090015411,94,"updated stim.csv",Version94.csv,"Version 94","List 94",sackcloth,,2802,4.913043478,2211,0.489130765,2803,BOI,-,-,"Please name all of the ways you could use this object. Keep in mind that one object can have many uses. Separate your responses with a comma.",,y,29066,,,4592,25471,,,,"for a sack, as clothing, storage",1
5e62ece11e3088084e0039b8,1phqn51ryt,"Affordance Norms_Prolific",1,13,2023-05-11T18:07:47+00:00,69.821957111359,94,"updated stim.csv",Version94.csv,"Version 94","List 94",toothpaste,,2805,5.76,2733,0.042102383,2806,BOI,-,-,"Please name all of the ways you could use this object. Keep in mind that one object can have many uses. Separate your responses with a comma.",,y,69219,,,2741,66836,,,,"clean teeth, freshen breath, clean tarnish, help spots",1
5e62ece11e3088084e0039b8,1phqn51ryt,"Affordance Norms_Prolific",1,14,2023-05-11T18:08:14+00:00,26.189076900482,94,"updated stim.csv",Version94.csv,"Version 94","List 94",sack,,2817,5.083333333,2210,0.51753878,2818,BOI,-,-,"Please name all of the ways you could use this object. Keep in mind that one object can have many uses. Separate your responses with a comma.",,y,25817,,,4401,18439,,,,"storage, luggage, clothing",1
5e62ece11e3088084e0039b8,1phqn51ryt,"Affordance Norms_Prolific",1,15,2023-05-11T18:08:51+00:00,37.074223041534,94,"updated stim.csv",Version94.csv,"Version 94","List 94",jeep,,2812,5.409090909,1380,0.355780564,2813,BOI,-,-,"Please name all of the ways you could use this object. Keep in mind that one object can have many uses. Separate your responses with a comma.",,y,36697,,,5118,34843,,,,"travel in, live in, expensive drive ornament, drive",1
5e62ece11e3088084e0039b8,1phqn51ryt,"Affordance Norms_Prolific",1,16,2023-05-11T18:09:34+00:00,43.110363006592,94,"updated stim.csv",Version94.csv,"Version 94","List 94",booze,,2800,5.84,285,0.455584343,2801,BOI,-,-,"Please name all of the ways you could use this object. Keep in mind that one object can have many uses. Separate your responses with a comma.",,y,42713,,,3788,39616,,,,"long drink, short drink, shots, hair of the dog to help hangover, get drunk, ",1
5e62ece11e3088084e0039b8,1phqn51ryt,"Affordance Norms_Prolific",1,17,2023-05-11T18:10:37+00:00,62.940898895264,94,"updated stim.csv",Version94.csv,"Version 94","List 94",girl,,2809,5.52,1108,0.249735431,2810,BOI,-,-,"Please name all of the ways you could use this object. Keep in mind that one object can have many uses. Separate your responses with a comma.",,y,62346,,,52407,57256,,,,"Young female",1
5e62ece11e3088084e0039b8,1phqn51ryt,"Affordance Norms_Prolific",1,18,2023-05-11T18:11:18+00:00,41.716585159302,94,"updated stim.csv",Version94.csv,"Version 94","List 94",cafe,,2814,4.772727273,396,0.016959145,2815,BOI,-,-,"Please name all of the ways you could use this object. Keep in mind that one object can have many uses. Separate your responses with a comma.",,y,41341,,,4880,40119,,,,"eat, drink, shelter, somewhere to rest, work, meet friends, meet family",1
5e62ece11e3088084e0039b8,1phqn51ryt,"Affordance Norms_Prolific",1,19,2023-05-11T18:12:21+00:00,62.538480997086,94,"updated stim.csv",Version94.csv,"Version 94","List 94",aircraft,,2801,4.925925926,19,0.385530787,2802,BOI,-,-,"Please name all of the ways you could use this object. Keep in mind that one object can have many uses. Separate your responses with a comma.",,y,61943,,,3258,60002,,,,"fly in, pilot, passenger, workplace, sleep, eat, drink, go to bathroom",1
5e62ece11e3088084e0039b8,1phqn51ryt,"Affordance Norms_Prolific",1,20,2023-05-11T18:13:51+00:00,90.396672010422,94,"updated stim.csv",Version94.csv,"Version 94","List 94",kernel,,2797,4.5,1407,0.356725928,2798,BOI,-,-,"Please name all of the ways you could use this object. Keep in mind that one object can have many uses. Separate your responses with a comma.",,y,89778,,,4321,86744,,,,"make popcorn, eat, make instrument with",1
5e62ece11e3088084e0039b8,1phqn51ryt,"Affordance Norms_Prolific",1,21,2023-05-11T18:14:49+00:00,57.93839097023,94,"updated stim.csv",Version94.csv,"Version 94","List 94",dispenser,,2799,4.708333333,805,0.262195631,2800,BOI,-,-,"Please name all of the ways you could use this object. Keep in mind that one object can have many uses. Separate your responses with a comma.",,y,57554,,,17716,54088,,,,"dispense liquids, dispense solids",1
5e62ece11e3088084e0039b8,1phqn51ryt,"Affordance Norms_Prolific",1,22,2023-05-11T18:15:28+00:00,38.845921039581,94,"updated stim.csv",Version94.csv,"Version 94","List 94",cheerleader,,2818,5.285714286,505,0.580282419,2819,BOI,-,-,"Please name all of the ways you could use this object. Keep in mind that one object can have many uses. Separate your responses with a comma.",,y,38467,,,4621,35323,,,,"at a sports event, in competition, with pom poms, in stunt cheer pyramids, sing about them",1
5e62ece11e3088084e0039b8,1phqn51ryt,"Affordance Norms_Prolific",1,23,2023-05-11T18:16:46+00:00,77.44780087471,94,"updated stim.csv",Version94.csv,"Version 94","List 94",maggot,,2791,4.44,1570,0.788570737,2792,BOI,-,-,"Please name all of the ways you could use this object. Keep in mind that one object can have many uses. Separate your responses with a comma.",,y,76854,,,8488,75288,,,,"fishing bait, to help wounds heal",1
5e62ece11e3088084e0039b8,1phqn51ryt,"Affordance Norms_Prolific",1,24,2023-05-11T18:17:43+00:00,57.600163936615,94,"updated stim.csv",Version94.csv,"Version 94","List 94",pork,,2796,4.916666667,2037,0.339315341,2797,BOI,-,-,"Please name all of the ways you could use this object. Keep in mind that one object can have many uses. Separate your responses with a comma.",,y,57213,,,1853,4083,,,,eat,1
5e62ece11e3088084e0039b8,1phqn51ryt,"Affordance Norms_Prolific",1,25,2023-05-11T18:18:18+00:00,35.006535053253,94,"updated stim.csv",Version94.csv,"Version 94","List 94",nutcrackers,,2794,5.347826087,1791,0.072605459,2795,BOI,-,-,"Please name all of the ways you could use this object. Keep in mind that one object can have many uses. Separate your responses with a comma.",,y,34626,,,14696,25218,,,,"crack open nuts, as christmas decorations",1
5e62ece11e3088084e0039b8,1phqn51ryt,"Affordance Norms_Prolific",1,26,2023-05-11T18:19:04+00:00,45.819328069687,94,"updated stim.csv",Version94.csv,"Version 94","List 94",kazoo,,2792,5.6,1401,0.310136054,2793,BOI,-,-,"Please name all of the ways you could use this object. Keep in mind that one object can have many uses. Separate your responses with a comma.",,y,45424,,,2173,44330,,,,"make annoying noises, play",1
5e62ece11e3088084e0039b8,1phqn51ryt,"Affordance Norms_Prolific",1,27,2023-05-11T18:19:32+00:00,27.925668954849,94,"updated stim.csv",Version94.csv,"Version 94","List 94",oyster,,2813,5.407407407,1834,0.932964259,2814,BOI,-,-,"Please name all of the ways you could use this object. Keep in mind that one object can have many uses. Separate your responses with a comma.",,y,27540,,,5740,22644,,,,"eat, shell as decoration, get pearls from",1
5e62ece11e3088084e0039b8,1phqn51ryt,"Affordance Norms_Prolific",1,28,2023-05-11T18:20:42+00:00,70.019771099091,94,"updated stim.csv",Version94.csv,"Version 94","List 94",bassinet,,2808,5.375,165,0.942939522,2809,BOI,-,-,"Please name all of the ways you could use this object. Keep in mind that one object can have many uses. Separate your responses with a comma.",,y,69100,,,2698,65405,,,,"young babies sleep in ",1
5e62ece11e3088084e0039b8,1phqn51ryt,"Affordance Norms_Prolific",1,29,2023-05-11T18:21:28+00:00,46.096982955933,94,"updated stim.csv",Version94.csv,"Version 94","List 94",sax,,2820,5.045454545,2256,0.271482721,2821,BOI,-,-,"Please name all of the ways you could use this object. Keep in mind that one object can have many uses. Separate your responses with a comma.",,y,45556,,,4035,44129,,,,"play music",1
5e62ece11e3088084e0039b8,1phqn51ryt,"Affordance Norms_Prolific",1,30,2023-05-11T18:21:48+00:00,19.991025924683,94,"updated stim.csv",Version94.csv,"Version 94","List 94",omelet,,2806,5.6,1807,0.790169092,2807,BOI,-,-,"Please name all of the ways you could use this object. Keep in mind that one object can have many uses. Separate your responses with a comma.",,y,19398,,,6422,13288,,,,"eat, cook, use up eggs",1
5e62ece11e3088084e0039b8,1phqn51ryt,"Affordance Norms_Prolific",1,31,2023-05-11T18:22:01+00:00,12.952600002289,94,"updated stim.csv",Version94.csv,"Version 94","List 94",cigar,,2811,5.962962963,542,0.389740937,2812,BOI,-,-,"Please name all of the ways you could use this object. Keep in mind that one object can have many uses. Separate your responses with a comma.",,y,12422,,,2205,10843,,,,"smoke, kill yourself with",1
5e62ece11e3088084e0039b8,1phqn51ryt,"Affordance Norms_Prolific",1,32,2023-05-11T18:23:35+00:00,94.201272010803,94,"updated stim.csv",Version94.csv,"Version 94","List 94",bridge,,2810,5.52173913,322,0.069552783,2811,BOI,-,-,"Please name all of the ways you could use this object. Keep in mind that one object can have many uses. Separate your responses with a comma.",,y,92915,,,5280,22393,,,,"get from one place to another, walk on, drive on, cycle on",1
5e62ece11e3088084e0039b8,1phqn51ryt,"Affordance Norms_Prolific",1,33,2023-05-11T18:25:28+00:00,112.73946809769,94,"updated stim.csv",Version94.csv,"Version 94","List 94",fishbone,,2816,5.173913043,990,0.879116537,2817,BOI,-,-,"Please name all of the ways you could use this object. Keep in mind that one object can have many uses. Separate your responses with a comma.",,y,111447,,,8195,108021,,,,"choke on, as a diagram, as jewellery",1
5e62ece11e3088084e0039b8,1phqn51ryt,"Affordance Norms_Prolific",1,34,2023-05-11T18:26:17+00:00,48.697971820831,94,"updated stim.csv",Version94.csv,"Version 94","List 94",lighthouse,,2795,4.791666667,1507,0.115692455,2796,BOI,-,-,"Please name all of the ways you could use this object. Keep in mind that one object can have many uses. Separate your responses with a comma.",,y,47442,,,8040,43348,,,,"help boats, live in, as decoration",0.991
5e62ece11e3088084e0039b8,1phqn51ryt,"Affordance Norms_Prolific",1,35,2023-05-11T18:27:58+00:00,101.46738219261,94,"updated stim.csv",Version94.csv,"Version 94","List 94",garland,,2819,5.166666667,1079,0.487831192,2820,BOI,-,-,"Please name all of the ways you could use this object. Keep in mind that one object can have many uses. Separate your responses with a comma.",,y,31760,,,9881,12659,,,,"as decoration",1
5e62ece11e3088084e0039b8,1phqn51ryt,"Affordance Norms_Prolific",1,36,2023-05-11T18:29:05+00:00,67.298980951309,94,"updated stim.csv",Version94.csv,"Version 94","List 94",catnip,,2804,4.52,461,0.804980444,2805,BOI,-,-,"Please name all of the ways you could use this object. Keep in mind that one object can have many uses. Separate your responses with a comma.",,y,66655,,,5967,65608,,,,"for cat treats, to drive cats crazy, as tea",1
5e62ece11e3088084e0039b8,1phqn51ryt,"Affordance Norms_Prolific",1,37,2023-05-11T18:30:18+00:00,73.125204086304,94,"updated stim.csv",Version94.csv,"Version 94","List 94",sheet,,2793,5.708333333,2331,0.953838586,2794,BOI,-,-,"Please name all of the ways you could use this object. Keep in mind that one object can have many uses. Separate your responses with a comma.",,y,72526,,,10247,71149,,,,"sleep on, cover things, as a floor cover, to write on, make clothing",1
5e62ece11e3088084e0039b8,1phqn51ryt,"Affordance Norms_Prolific",1,38,2023-05-11T18:30:42+00:00,23.878746986389,94,"updated stim.csv",Version94.csv,"Version 94","List 94",fag,,2798,4.8,942,0.41812496,2799,BOI,-,-,"Please name all of the ways you could use this object. Keep in mind that one object can have many uses. Separate your responses with a comma.",,y,23489,,,22135,22674,,,,smoke,1
5e62ece11e3088084e0039b8,1phqn51ryt,"Affordance Norms_Prolific",1,39,2023-05-11T18:31:52+00:00,69.674038887024,94,"updated stim.csv",Version94.csv,"Version 94","List 94",retriever,,2803,4.96,2160,0.323930836,2804,BOI,-,-,"Please name all of the ways you could use this object. Keep in mind that one object can have many uses. Separate your responses with a comma.",,y,68428,,,5465,9419,,,,"to retrieve things",1
5e62ece11e3088084e0039b8,1phqn51ryt,"Affordance Norms_Prolific",1,40,2023-05-11T18:32:26+00:00,33.645934104919,94,"updated stim.csv",Version94.csv,"Version 94","List 94",hanky,,2815,4.481481481,1247,0.363795056,2816,BOI,-,-,"Please name all of the ways you could use this object. Keep in mind that one object can have many uses. Separate your responses with a comma.",,y,33178,,,2969,31175,,,,"for mopping up spills, for blowing nose on, for wiping face, as clothing decoration",1
5e62ece11e3088084e0039b8,1phqn51ryt,"Affordance Norms_Prolific",1,41,2023-05-11T18:32:28+00:00,2.0596549510956,94,"updated stim.csv",Version94.csv,"Version 94","List 94",,,,,,,0,Instruct,,,"You will now be asked a few questions about your experience today.",,"Instruct 4",1570,,,-1,-1,,,,,1
