Username,ID,ExperimentName,Session,Trial,Date,TimeDif,"Condition Number","Stimuli File","Order File","Condition Description","Condition Notes",Stimuli*Cue,Stimuli*Answer,Stimuli*Shuffle,"Stimuli*Stimuli Notes",Stimuli*Value,Stimuli*Rand,Procedure*Item,"Procedure*Trial Type","Procedure*Max Time","Procedure*Min Time",Procedure*Text,"Procedure*Procedure Notes",Procedure*Shuffle,Response*RT,Response*Response,Response*Accuracy,Response*RTfirst,Response*RTlast,Response*strictAcc,Response*lenientAcc,Response*focus,Response*JOL,Response*Focus
5ea057282b5bc70009af9638,dbo47etby5,"Affordance Norms_Prolific",1,1,2023-05-11T22:10:55+00:00,15.479542016983,26,"updated stim.csv",Version26.csv,"Version 26","List 26",,,,,,,0,Instruct,-,10,"In this section, you will be presented with a series of objects. Please name as many possible uses for this object as you can think of by typing them in the box below each object.",,Instruct1,15229,,,-1,-1,,,,,1
5ea057282b5bc70009af9638,dbo47etby5,"Affordance Norms_Prolific",1,2,2023-05-11T22:11:08+00:00,12.446213960648,26,"updated stim.csv",Version26.csv,"Version 26","List 26",,,,,,,0,Instruct,-,10,"Please keep in mind that a single object will have more than one use. For example, a ball can be thrown or can be bounced or even stepped on. When listing multiple uses for one object, please separate each use with a comma (i.e., thrown, bounced, stepped on)",,Instruct2,12033,,,-1,-1,,,,,1
5ea057282b5bc70009af9638,dbo47etby5,"Affordance Norms_Prolific",1,3,2023-05-11T22:11:12+00:00,4.056499004364,26,"updated stim.csv",Version26.csv,"Version 26","List 26",,,,,,,0,Instruct,-,-,"Before starting the experiment, you will complete a short practice sesstion. Press ENTER when you are ready to begin.",,Instruct3,3668,,,-1,-1,,,,,1
5ea057282b5bc70009af9638,dbo47etby5,"Affordance Norms_Prolific",1,4,2023-05-11T22:11:28+00:00,16.495849132538,26,"updated stim.csv",Version26.csv,"Version 26","List 26",grain,,3004,5.217391304,1143,0.226863762,3005,BOI,-,-,"Please name all of the ways you could use this object. Keep in mind that one object can have many uses. Separate your responses with a comma.",,n,16106,,,3552,12443,,,,"cooked,harvested, polished",1
5ea057282b5bc70009af9638,dbo47etby5,"Affordance Norms_Prolific",1,5,2023-05-11T22:11:51+00:00,22.692159891129,26,"updated stim.csv",Version26.csv,"Version 26","List 26",spaghetti,,3003,6,2461,0.090379998,3004,BOI,-,-,"Please name all of the ways you could use this object. Keep in mind that one object can have many uses. Separate your responses with a comma.",,n,22295,,,2634,20677,,,,"cooked, rolled, tossed, boiled, made",1
5ea057282b5bc70009af9638,dbo47etby5,"Affordance Norms_Prolific",1,6,2023-05-11T22:12:21+00:00,29.805428028107,26,"updated stim.csv",Version26.csv,"Version 26","List 26",paperwork,,3001,5.625,1866,0.124284162,3002,BOI,-,-,"Please name all of the ways you could use this object. Keep in mind that one object can have many uses. Separate your responses with a comma.",,n,29410,,,3888,25273,,,,"write, create, document, send, complete, fill in, ",1
5ea057282b5bc70009af9638,dbo47etby5,"Affordance Norms_Prolific",1,7,2023-05-11T22:12:51+00:00,30.000253915787,26,"updated stim.csv",Version26.csv,"Version 26","List 26",saucer,,3005,5.777777778,2249,0.304808074,3006,BOI,-,-,"Please name all of the ways you could use this object. Keep in mind that one object can have many uses. Separate your responses with a comma.",,n,29608,,,6598,28086,,,,"place, fill, set, drink, lap",1
5ea057282b5bc70009af9638,dbo47etby5,"Affordance Norms_Prolific",1,8,2023-05-11T22:13:11+00:00,20.380923986435,26,"updated stim.csv",Version26.csv,"Version 26","List 26",shortening,,3002,4.92,2358,0.604328482,3003,BOI,-,-,"Please name all of the ways you could use this object. Keep in mind that one object can have many uses. Separate your responses with a comma.",,n,19990,,,7494,17730,,,,"cook, cut, ",1
5ea057282b5bc70009af9638,dbo47etby5,"Affordance Norms_Prolific",1,9,2023-05-11T22:13:13+00:00,2.3443500995636,26,"updated stim.csv",Version26.csv,"Version 26","List 26",,,,,,,0,Instruct,-,-,"You have completed this section. Press ENTER to continue",,"Instruct 5",1951,,,-1,-1,,,,,1
5ea057282b5bc70009af9638,dbo47etby5,"Affordance Norms_Prolific",1,10,2023-05-11T22:13:16+00:00,2.6443200111389,26,"updated stim.csv",Version26.csv,"Version 26","List 26",,,,,,,0,Instruct,-,-,"You will now start the full experiment. Press ENTER when you are ready to begin.",,,2251,,,-1,-1,,,,,1
5ea057282b5bc70009af9638,dbo47etby5,"Affordance Norms_Prolific",1,11,2023-05-11T22:13:47+00:00,31.034929037094,26,"updated stim.csv",Version26.csv,"Version 26","List 26",sauce,,754,5.130434783,2247,0.513278326,755,BOI,-,-,"Please name all of the ways you could use this object. Keep in mind that one object can have many uses. Separate your responses with a comma.",,y,30652,,,2438,29205,,,,"cook, make, create, drizzle, pour, add, give, simmer",1
5ea057282b5bc70009af9638,dbo47etby5,"Affordance Norms_Prolific",1,12,2023-05-11T22:14:17+00:00,30.210779905319,26,"updated stim.csv",Version26.csv,"Version 26","List 26",tracksuit,,766,5.653846154,2752,0.23464912,767,BOI,-,-,"Please name all of the ways you could use this object. Keep in mind that one object can have many uses. Separate your responses with a comma.",,y,29811,,,1825,28245,,,,"wear, make, buy, style, sell,shop",1
5ea057282b5bc70009af9638,dbo47etby5,"Affordance Norms_Prolific",1,13,2023-05-11T22:14:55+00:00,37.296775102615,26,"updated stim.csv",Version26.csv,"Version 26","List 26",powder,,758,5.416666667,2054,0.401284528,759,BOI,-,-,"Please name all of the ways you could use this object. Keep in mind that one object can have many uses. Separate your responses with a comma.",,y,36901,,,5846,35184,,,,"brush, buy, sell, crush, dust, sweep",1
5ea057282b5bc70009af9638,dbo47etby5,"Affordance Norms_Prolific",1,14,2023-05-11T22:15:31+00:00,36.236117839813,26,"updated stim.csv",Version26.csv,"Version 26","List 26",merchantman,,773,4.5,1649,0.903328675,774,BOI,-,-,"Please name all of the ways you could use this object. Keep in mind that one object can have many uses. Separate your responses with a comma.",,y,35840,,,9072,32846,,,,"sell, buy, purchase, sales, wares, inventory, items, ",1
5ea057282b5bc70009af9638,dbo47etby5,"Affordance Norms_Prolific",1,15,2023-05-11T22:15:46+00:00,14.991873025894,26,"updated stim.csv",Version26.csv,"Version 26","List 26",paratrooper,,767,4.291666667,1872,0.246368149,768,BOI,-,-,"Please name all of the ways you could use this object. Keep in mind that one object can have many uses. Separate your responses with a comma.",,y,14603,,,2890,11385,,,,"fly, land, crawl, army, deploy, ",1
5ea057282b5bc70009af9638,dbo47etby5,"Affordance Norms_Prolific",1,16,2023-05-11T22:16:08+00:00,22.048989057541,26,"updated stim.csv",Version26.csv,"Version 26","List 26",crepe,,756,5.416666667,692,0.461819539,757,BOI,-,-,"Please name all of the ways you could use this object. Keep in mind that one object can have many uses. Separate your responses with a comma.",,y,21648,,,2286,20025,,,,"fry, bake, flip, cook, paper, create, crafts",1
5ea057282b5bc70009af9638,dbo47etby5,"Affordance Norms_Prolific",1,17,2023-05-11T22:16:28+00:00,20.03076505661,26,"updated stim.csv",Version26.csv,"Version 26","List 26",rucksack,,755,5.041666667,2203,0.599599448,756,BOI,-,-,"Please name all of the ways you could use this object. Keep in mind that one object can have many uses. Separate your responses with a comma.",,y,19643,,,2581,18393,,,,"wear, carry, pack, bring, luggage, transport",1
5ea057282b5bc70009af9638,dbo47etby5,"Affordance Norms_Prolific",1,18,2023-05-11T22:16:57+00:00,29.459588050842,26,"updated stim.csv",Version26.csv,"Version 26","List 26",marble,,776,5.48,1602,0.149255427,777,BOI,-,-,"Please name all of the ways you could use this object. Keep in mind that one object can have many uses. Separate your responses with a comma.",,y,29065,,,4800,20309,,,,"surface, baking, flooring, walls, ",1
5ea057282b5bc70009af9638,dbo47etby5,"Affordance Norms_Prolific",1,19,2023-05-11T22:17:15+00:00,17.523452997208,26,"updated stim.csv",Version26.csv,"Version 26","List 26",pincushion,,757,5.260869565,1969,0.781665288,758,BOI,-,-,"Please name all of the ways you could use this object. Keep in mind that one object can have many uses. Separate your responses with a comma.",,y,17123,,,4429,15725,,,,"needle, sewing, annoy, poke",1
5ea057282b5bc70009af9638,dbo47etby5,"Affordance Norms_Prolific",1,20,2023-05-11T22:17:33+00:00,17.856526851654,26,"updated stim.csv",Version26.csv,"Version 26","List 26",citrus,,762,4.6,544,0.540841609,763,BOI,-,-,"Please name all of the ways you could use this object. Keep in mind that one object can have many uses. Separate your responses with a comma.",,y,17461,,,3305,14526,,,,"cooking, food, flavour, eating, fruits, ",1
5ea057282b5bc70009af9638,dbo47etby5,"Affordance Norms_Prolific",1,21,2023-05-11T22:17:44+00:00,11.290374994278,26,"updated stim.csv",Version26.csv,"Version 26","List 26",prisoner,,753,4.307692308,2067,0.439283769,754,BOI,-,-,"Please name all of the ways you could use this object. Keep in mind that one object can have many uses. Separate your responses with a comma.",,y,10901,,,1975,6113,,,,"capture, release, imprison",1
5ea057282b5bc70009af9638,dbo47etby5,"Affordance Norms_Prolific",1,22,2023-05-11T22:17:56+00:00,11.61133813858,26,"updated stim.csv",Version26.csv,"Version 26","List 26",hatchet,,779,5.791666667,1261,0.128633882,780,BOI,-,-,"Please name all of the ways you could use this object. Keep in mind that one object can have many uses. Separate your responses with a comma.",,y,11222,,,1939,8742,,,,"bury, wield, threaten",1
5ea057282b5bc70009af9638,dbo47etby5,"Affordance Norms_Prolific",1,23,2023-05-11T22:18:20+00:00,24.651214838028,26,"updated stim.csv",Version26.csv,"Version 26","List 26",caretaker,,770,5.071428571,433,0.100607423,771,BOI,-,-,"Please name all of the ways you could use this object. Keep in mind that one object can have many uses. Separate your responses with a comma.",,y,24230,,,4458,23026,,,,"janitor, cleaning, look after, responsible ",1
5ea057282b5bc70009af9638,dbo47etby5,"Affordance Norms_Prolific",1,24,2023-05-11T22:18:36+00:00,15.311552047729,26,"updated stim.csv",Version26.csv,"Version 26","List 26",thumbscrew,,760,5.173913043,2689,0.65329656,761,BOI,-,-,"Please name all of the ways you could use this object. Keep in mind that one object can have many uses. Separate your responses with a comma.",,y,14931,,,1830,13477,,,,"torture, truth, turning, pressure",1
5ea057282b5bc70009af9638,dbo47etby5,"Affordance Norms_Prolific",1,25,2023-05-11T22:18:53+00:00,17.124471902847,26,"updated stim.csv",Version26.csv,"Version 26","List 26",head,,780,5.48,1263,0.453747939,781,BOI,-,-,"Please name all of the ways you could use this object. Keep in mind that one object can have many uses. Separate your responses with a comma.",,y,16719,,,3497,15409,,,,"direction, give, receive, nod, shake",1
5ea057282b5bc70009af9638,dbo47etby5,"Affordance Norms_Prolific",1,26,2023-05-11T22:19:03+00:00,10.401474237442,26,"updated stim.csv",Version26.csv,"Version 26","List 26",snot,,761,5.32,2429,0.389267815,762,BOI,-,-,"Please name all of the ways you could use this object. Keep in mind that one object can have many uses. Separate your responses with a comma.",,y,10035,,,1966,8569,,,,"blow, sneeze, produce ",1
5ea057282b5bc70009af9638,dbo47etby5,"Affordance Norms_Prolific",1,27,2023-05-11T22:19:18+00:00,15.150307893753,26,"updated stim.csv",Version26.csv,"Version 26","List 26",insect,,777,5.125,1357,0.664903134,778,BOI,-,-,"Please name all of the ways you could use this object. Keep in mind that one object can have many uses. Separate your responses with a comma.",,y,14760,,,1882,13190,,,,"step on, avoid, scream, identify, admire",1
5ea057282b5bc70009af9638,dbo47etby5,"Affordance Norms_Prolific",1,28,2023-05-11T22:20:36+00:00,77.322536945343,26,"updated stim.csv",Version26.csv,"Version 26","List 26",poster,,764,5.583333333,2043,0.767346801,765,BOI,-,-,"Please name all of the ways you could use this object. Keep in mind that one object can have many uses. Separate your responses with a comma.",,y,76809,,,67437,74788,,,,"display, post, design, create, ",1
5ea057282b5bc70009af9638,dbo47etby5,"Affordance Norms_Prolific",1,29,2023-05-11T22:21:01+00:00,25.044520139694,26,"updated stim.csv",Version26.csv,"Version 26","List 26",steelworker,,778,4.44,2518,0.368072678,779,BOI,-,-,"Please name all of the ways you could use this object. Keep in mind that one object can have many uses. Separate your responses with a comma.",,y,24658,,,10495,23280,,,,"work, labour, sweat, produce, manufacture",1
5ea057282b5bc70009af9638,dbo47etby5,"Affordance Norms_Prolific",1,30,2023-05-11T22:21:20+00:00,18.881573915482,26,"updated stim.csv",Version26.csv,"Version 26","List 26",slug,,751,4.434782609,2418,0.458803777,752,BOI,-,-,"Please name all of the ways you could use this object. Keep in mind that one object can have many uses. Separate your responses with a comma.",,y,18426,,,3090,17153,,,,"crawl, drag, glide, slime, drink, chug",1
5ea057282b5bc70009af9638,dbo47etby5,"Affordance Norms_Prolific",1,31,2023-05-11T22:21:38+00:00,18.639805078506,26,"updated stim.csv",Version26.csv,"Version 26","List 26",roast,,759,4.821428571,2179,0.992823998,760,BOI,-,-,"Please name all of the ways you could use this object. Keep in mind that one object can have many uses. Separate your responses with a comma.",,y,18258,,,3604,16953,,,,"cook, bake, hot, banter",1
5ea057282b5bc70009af9638,dbo47etby5,"Affordance Norms_Prolific",1,32,2023-05-11T22:22:01+00:00,22.318432807922,26,"updated stim.csv",Version26.csv,"Version 26","List 26",magazine,,752,6.166666667,1569,0.345576136,753,BOI,-,-,"Please name all of the ways you could use this object. Keep in mind that one object can have many uses. Separate your responses with a comma.",,y,21929,,,1971,10367,,,,"read, write, design, article, sell, buy, ",1
5ea057282b5bc70009af9638,dbo47etby5,"Affordance Norms_Prolific",1,33,2023-05-11T22:22:35+00:00,34.178000211716,26,"updated stim.csv",Version26.csv,"Version 26","List 26",pal,,765,4.333333333,1852,0.866100355,766,BOI,-,-,"Please name all of the ways you could use this object. Keep in mind that one object can have many uses. Separate your responses with a comma.",,y,33776,,,1640,32546,,,,"friend, pen pal, write, email, message, communicate, share, empathy",1
5ea057282b5bc70009af9638,dbo47etby5,"Affordance Norms_Prolific",1,34,2023-05-11T22:23:00+00:00,24.951752901077,26,"updated stim.csv",Version26.csv,"Version 26","List 26",beverage,,771,6.208333333,206,0.924119879,772,BOI,-,-,"Please name all of the ways you could use this object. Keep in mind that one object can have many uses. Separate your responses with a comma.",,y,24524,,,2210,23345,,,,"drink, create, cocktail, order, sell, bulk buy, share, decline",1
5ea057282b5bc70009af9638,dbo47etby5,"Affordance Norms_Prolific",1,35,2023-05-11T22:23:16+00:00,15.840677976608,26,"updated stim.csv",Version26.csv,"Version 26","List 26",wallet,,768,6.136363636,2888,0.225303707,769,BOI,-,-,"Please name all of the ways you could use this object. Keep in mind that one object can have many uses. Separate your responses with a comma.",,y,15440,,,1682,13806,,,,"pay, buy, wear, take, forget",1
5ea057282b5bc70009af9638,dbo47etby5,"Affordance Norms_Prolific",1,36,2023-05-11T22:23:39+00:00,23.608510017395,26,"updated stim.csv",Version26.csv,"Version 26","List 26",lamb,,769,4.444444444,1453,0.69971583,770,BOI,-,-,"Please name all of the ways you could use this object. Keep in mind that one object can have many uses. Separate your responses with a comma.",,y,16814,,,3514,15436,,,,"dress, buy, sell, cook, Easter, endearment",1
5ea057282b5bc70009af9638,dbo47etby5,"Affordance Norms_Prolific",1,37,2023-05-11T22:23:56+00:00,16.483758926392,26,"updated stim.csv",Version26.csv,"Version 26","List 26",revolver,,775,5.555555556,2161,0.026141084,776,BOI,-,-,"Please name all of the ways you could use this object. Keep in mind that one object can have many uses. Separate your responses with a comma.",,y,16095,,,3181,14435,,,,"shoot, load, conceal, hide, carry, threaten",1
5ea057282b5bc70009af9638,dbo47etby5,"Affordance Norms_Prolific",1,38,2023-05-11T22:24:38+00:00,42.222207069397,26,"updated stim.csv",Version26.csv,"Version 26","List 26",mat,,772,5.814814815,1619,0.401188237,773,BOI,-,-,"Please name all of the ways you could use this object. Keep in mind that one object can have many uses. Separate your responses with a comma.",,y,41827,,,3124,29819,,,,"step on, welcome, crossover, ",1
5ea057282b5bc70009af9638,dbo47etby5,"Affordance Norms_Prolific",1,39,2023-05-11T22:24:57+00:00,19.638243913651,26,"updated stim.csv",Version26.csv,"Version 26","List 26",weapon,,763,5.52173913,2914,0.471053028,764,BOI,-,-,"Please name all of the ways you could use this object. Keep in mind that one object can have many uses. Separate your responses with a comma.",,y,19237,,,2549,17173,,,,"wield, yield, carry, conceal, threaten, make",1
5ea057282b5bc70009af9638,dbo47etby5,"Affordance Norms_Prolific",1,40,2023-05-11T22:25:09+00:00,11.643429994583,26,"updated stim.csv",Version26.csv,"Version 26","List 26",mistletoe,,774,4.592592593,1668,0.623253959,775,BOI,-,-,"Please name all of the ways you could use this object. Keep in mind that one object can have many uses. Separate your responses with a comma.",,y,11250,,,2108,8376,,,,"kiss, conceal, christmas, grow",1
5ea057282b5bc70009af9638,dbo47etby5,"Affordance Norms_Prolific",1,41,2023-05-11T22:25:11+00:00,2.3014051914215,26,"updated stim.csv",Version26.csv,"Version 26","List 26",,,,,,,0,Instruct,,,"You will now be asked a few questions about your experience today.",,"Instruct 4",1917,,,-1,-1,,,,,1
