Username,ID,ExperimentName,Session,Trial,Date,TimeDif,"Condition Number","Stimuli File","Order File","Condition Description","Condition Notes",Stimuli*Cue,Stimuli*Answer,Stimuli*Shuffle,"Stimuli*Stimuli Notes",Stimuli*Value,Stimuli*Rand,Procedure*Item,"Procedure*Trial Type","Procedure*Max Time","Procedure*Min Time",Procedure*Text,"Procedure*Procedure Notes",Procedure*Shuffle,Response*RT,Response*Response,Response*Accuracy,Response*RTfirst,Response*RTlast,Response*strictAcc,Response*lenientAcc,Response*focus,Response*JOL,Response*Focus
63468b5809bf04222262bfed,fdeqrjukli,"Affordance Norms_Prolific",1,1,2023-05-12T00:18:16+00:00,15.015456914902,36,"updated stim.csv",Version36.csv,"Version 36","List 36",,,,,,,0,Instruct,-,10,"In this section, you will be presented with a series of objects. Please name as many possible uses for this object as you can think of by typing them in the box below each object.",,Instruct1,14693,,,-1,-1,,,,,1
63468b5809bf04222262bfed,fdeqrjukli,"Affordance Norms_Prolific",1,2,2023-05-12T00:18:35+00:00,19.39871096611,36,"updated stim.csv",Version36.csv,"Version 36","List 36",,,,,,,0,Instruct,-,10,"Please keep in mind that a single object will have more than one use. For example, a ball can be thrown or can be bounced or even stepped on. When listing multiple uses for one object, please separate each use with a comma (i.e., thrown, bounced, stepped on)",,Instruct2,18888,,,-1,-1,,,,,1
63468b5809bf04222262bfed,fdeqrjukli,"Affordance Norms_Prolific",1,3,2023-05-12T00:18:41+00:00,5.3736000061035,36,"updated stim.csv",Version36.csv,"Version 36","List 36",,,,,,,0,Instruct,-,-,"Before starting the experiment, you will complete a short practice sesstion. Press ENTER when you are ready to begin.",,Instruct3,4936,,,-1,-1,,,,,1
63468b5809bf04222262bfed,fdeqrjukli,"Affordance Norms_Prolific",1,4,2023-05-12T00:19:03+00:00,21.912459135056,36,"updated stim.csv",Version36.csv,"Version 36","List 36",grain,,3004,5.217391304,1143,0.226863762,3005,BOI,-,-,"Please name all of the ways you could use this object. Keep in mind that one object can have many uses. Separate your responses with a comma.",,n,21197,,,3729,19107,,,,"eat, throw, plant, grind",1
63468b5809bf04222262bfed,fdeqrjukli,"Affordance Norms_Prolific",1,5,2023-05-12T00:19:31+00:00,28.746230840683,36,"updated stim.csv",Version36.csv,"Version 36","List 36",saucer,,3005,5.777777778,2249,0.304808074,3006,BOI,-,-,"Please name all of the ways you could use this object. Keep in mind that one object can have many uses. Separate your responses with a comma.",,n,28239,,,6471,26484,,,,"smash, drop, drink, throw",1
63468b5809bf04222262bfed,fdeqrjukli,"Affordance Norms_Prolific",1,6,2023-05-12T00:19:50+00:00,18.546092987061,36,"updated stim.csv",Version36.csv,"Version 36","List 36",paperwork,,3001,5.625,1866,0.124284162,3002,BOI,-,-,"Please name all of the ways you could use this object. Keep in mind that one object can have many uses. Separate your responses with a comma.",,n,18105,,,6103,16890,,,,"complete, discard, burn",1
63468b5809bf04222262bfed,fdeqrjukli,"Affordance Norms_Prolific",1,7,2023-05-12T00:20:03+00:00,12.656131029129,36,"updated stim.csv",Version36.csv,"Version 36","List 36",shortening,,3002,4.92,2358,0.604328482,3003,BOI,-,-,"Please name all of the ways you could use this object. Keep in mind that one object can have many uses. Separate your responses with a comma.",,n,12259,,,5170,8209,,,,"melt, bake",1
63468b5809bf04222262bfed,fdeqrjukli,"Affordance Norms_Prolific",1,8,2023-05-12T00:20:15+00:00,12.321529150009,36,"updated stim.csv",Version36.csv,"Version 36","List 36",spaghetti,,3003,6,2461,0.090379998,3004,BOI,-,-,"Please name all of the ways you could use this object. Keep in mind that one object can have many uses. Separate your responses with a comma.",,n,11954,,,2434,9130,,,,"cook, eat, make",1
63468b5809bf04222262bfed,fdeqrjukli,"Affordance Norms_Prolific",1,9,2023-05-12T00:20:19+00:00,4.0665028095245,36,"updated stim.csv",Version36.csv,"Version 36","List 36",,,,,,,0,Instruct,-,-,"You have completed this section. Press ENTER to continue",,"Instruct 5",3390,,,-1,-1,,,,,1
63468b5809bf04222262bfed,fdeqrjukli,"Affordance Norms_Prolific",1,10,2023-05-12T00:20:23+00:00,3.6018581390381,36,"updated stim.csv",Version36.csv,"Version 36","List 36",,,,,,,0,Instruct,-,-,"You will now start the full experiment. Press ENTER when you are ready to begin.",,,2224,,,-1,-1,,,,,1
63468b5809bf04222262bfed,fdeqrjukli,"Affordance Norms_Prolific",1,11,2023-05-12T00:20:32+00:00,9.8268940448761,36,"updated stim.csv",Version36.csv,"Version 36","List 36",houseboat,,1071,4.956521739,1327,0.078689969,1072,BOI,-,-,"Please name all of the ways you could use this object. Keep in mind that one object can have many uses. Separate your responses with a comma.",,y,9168,,,2100,7839,,,,"sail, sleep, live",1
63468b5809bf04222262bfed,fdeqrjukli,"Affordance Norms_Prolific",1,12,2023-05-12T00:20:41+00:00,8.5465979576111,36,"updated stim.csv",Version36.csv,"Version 36","List 36",beagle,,1075,5.2,179,0.616805077,1076,BOI,-,-,"Please name all of the ways you could use this object. Keep in mind that one object can have many uses. Separate your responses with a comma.",,y,8148,,,2218,7004,,,,"walk, feed, stroke",1
63468b5809bf04222262bfed,fdeqrjukli,"Affordance Norms_Prolific",1,13,2023-05-12T00:20:53+00:00,12.577971935272,36,"updated stim.csv",Version36.csv,"Version 36","List 36",evergreen,,1078,4.444444444,923,0.294521341,1079,BOI,-,-,"Please name all of the ways you could use this object. Keep in mind that one object can have many uses. Separate your responses with a comma.",,y,12201,,,3307,9276,,,,"plant, prune, enjoy",1
63468b5809bf04222262bfed,fdeqrjukli,"Affordance Norms_Prolific",1,14,2023-05-12T00:21:18+00:00,24.29894900322,36,"updated stim.csv",Version36.csv,"Version 36","List 36",engine,,1065,5.333333333,908,0.128914388,1066,BOI,-,-,"Please name all of the ways you could use this object. Keep in mind that one object can have many uses. Separate your responses with a comma.",,y,23774,,,2485,18391,,,,"stop, start, service, maintain, fix",1
63468b5809bf04222262bfed,fdeqrjukli,"Affordance Norms_Prolific",1,15,2023-05-12T00:21:38+00:00,19.993694067001,36,"updated stim.csv",Version36.csv,"Version 36","List 36",telescope,,1059,5.916666667,2659,0.548611427,1060,BOI,-,-,"Please name all of the ways you could use this object. Keep in mind that one object can have many uses. Separate your responses with a comma.",,y,19236,,,3398,14279,,,,"clean, look, explore, discover",1
63468b5809bf04222262bfed,fdeqrjukli,"Affordance Norms_Prolific",1,16,2023-05-12T00:21:46+00:00,8.3772368431091,36,"updated stim.csv",Version36.csv,"Version 36","List 36",switchboard,,1074,4.777777778,2610,0.925747236,1075,BOI,-,-,"Please name all of the ways you could use this object. Keep in mind that one object can have many uses. Separate your responses with a comma.",,y,7935,,,3347,6631,,,,"call, connect",1
63468b5809bf04222262bfed,fdeqrjukli,"Affordance Norms_Prolific",1,17,2023-05-12T00:22:09+00:00,22.941021203995,36,"updated stim.csv",Version36.csv,"Version 36","List 36",laxative,,1052,5.206896552,1476,0.827402237,1053,BOI,-,-,"Please name all of the ways you could use this object. Keep in mind that one object can have many uses. Separate your responses with a comma.",,y,22507,,,2874,20362,,,,"take, use, cure",1
63468b5809bf04222262bfed,fdeqrjukli,"Affordance Norms_Prolific",1,18,2023-05-12T00:22:23+00:00,14.250170946121,36,"updated stim.csv",Version36.csv,"Version 36","List 36",ductwork,,1056,4.52173913,862,0.409527308,1057,BOI,-,-,"Please name all of the ways you could use this object. Keep in mind that one object can have many uses. Separate your responses with a comma.",,y,13805,,,6125,11542,,,,"fit, clean, crawl",1
63468b5809bf04222262bfed,fdeqrjukli,"Affordance Norms_Prolific",1,19,2023-05-12T00:22:46+00:00,22.314013004303,36,"updated stim.csv",Version36.csv,"Version 36","List 36",curler,,1068,4.454545455,730,0.741093099,1069,BOI,-,-,"Please name all of the ways you could use this object. Keep in mind that one object can have many uses. Separate your responses with a comma.",,y,21896,,,5015,13245,,,,"curl, heat",1
63468b5809bf04222262bfed,fdeqrjukli,"Affordance Norms_Prolific",1,20,2023-05-12T00:22:59+00:00,13.165987968445,36,"updated stim.csv",Version36.csv,"Version 36","List 36",vitamins,,1077,5.12,2870,0.952358959,1078,BOI,-,-,"Please name all of the ways you could use this object. Keep in mind that one object can have many uses. Separate your responses with a comma.",,y,12657,,,3981,10294,,,,"take, eat, use",1
63468b5809bf04222262bfed,fdeqrjukli,"Affordance Norms_Prolific",1,21,2023-05-12T00:23:25+00:00,26.541850090027,36,"updated stim.csv",Version36.csv,"Version 36","List 36",manicure,,1080,4.730769231,1590,0.1995438,1081,BOI,-,-,"Please name all of the ways you could use this object. Keep in mind that one object can have many uses. Separate your responses with a comma.",,y,26053,,,7644,18840,,,,"relax, beautify",1
63468b5809bf04222262bfed,fdeqrjukli,"Affordance Norms_Prolific",1,22,2023-05-12T00:23:45+00:00,19.652334928513,36,"updated stim.csv",Version36.csv,"Version 36","List 36",teardrop,,1064,4.695652174,2651,0.380138083,1065,BOI,-,-,"Please name all of the ways you could use this object. Keep in mind that one object can have many uses. Separate your responses with a comma.",,y,19094,,,10820,17708,,,,"manipulate, taste",1
63468b5809bf04222262bfed,fdeqrjukli,"Affordance Norms_Prolific",1,23,2023-05-12T00:23:59+00:00,13.712882995605,36,"updated stim.csv",Version36.csv,"Version 36","List 36",leftovers,,1070,5.625,1485,0.349934709,1071,BOI,-,-,"Please name all of the ways you could use this object. Keep in mind that one object can have many uses. Separate your responses with a comma.",,y,13262,,,4254,11276,,,,"discard, use, eat, feed",1
63468b5809bf04222262bfed,fdeqrjukli,"Affordance Norms_Prolific",1,24,2023-05-12T00:24:10+00:00,11.441213846207,36,"updated stim.csv",Version36.csv,"Version 36","List 36",llama,,1054,4.75,1530,0.940050955,1055,BOI,-,-,"Please name all of the ways you could use this object. Keep in mind that one object can have many uses. Separate your responses with a comma.",,y,10788,,,2693,8407,,,,"walk, ride, eat",1
63468b5809bf04222262bfed,fdeqrjukli,"Affordance Norms_Prolific",1,25,2023-05-12T00:24:23+00:00,12.716991186142,36,"updated stim.csv",Version36.csv,"Version 36","List 36",drugstore,,1079,5.260869565,853,0.581825983,1080,BOI,-,-,"Please name all of the ways you could use this object. Keep in mind that one object can have many uses. Separate your responses with a comma.",,y,12215,,,8250,8643,,,,buy,1
63468b5809bf04222262bfed,fdeqrjukli,"Affordance Norms_Prolific",1,26,2023-05-12T00:24:38+00:00,15.450943946838,36,"updated stim.csv",Version36.csv,"Version 36","List 36",barber,,1060,4.958333333,147,0.779479627,1061,BOI,-,-,"Please name all of the ways you could use this object. Keep in mind that one object can have many uses. Separate your responses with a comma.",,y,15026,,,6526,13522,,,,"style, socialise, relax",1
63468b5809bf04222262bfed,fdeqrjukli,"Affordance Norms_Prolific",1,27,2023-05-12T00:25:03+00:00,24.848257064819,36,"updated stim.csv",Version36.csv,"Version 36","List 36",tombstone,,1072,5.043478261,2725,0.273275065,1073,BOI,-,-,"Please name all of the ways you could use this object. Keep in mind that one object can have many uses. Separate your responses with a comma.",,y,24343,,,7675,20126,,,,"set, visit, remember",1
63468b5809bf04222262bfed,fdeqrjukli,"Affordance Norms_Prolific",1,28,2023-05-12T00:25:12+00:00,9.0322458744049,36,"updated stim.csv",Version36.csv,"Version 36","List 36",saltshaker,,1058,6,2228,0.087603339,1059,BOI,-,-,"Please name all of the ways you could use this object. Keep in mind that one object can have many uses. Separate your responses with a comma.",,y,8544,,,3510,6964,,,,"shake, season",1
63468b5809bf04222262bfed,fdeqrjukli,"Affordance Norms_Prolific",1,29,2023-05-12T00:25:30+00:00,17.510858058929,36,"updated stim.csv",Version36.csv,"Version 36","List 36",edibles,,1063,5.428571429,888,0.341038926,1064,BOI,-,-,"Please name all of the ways you could use this object. Keep in mind that one object can have many uses. Separate your responses with a comma.",,y,16949,,,3326,15448,,,,"eat, share, trip, relax",1
63468b5809bf04222262bfed,fdeqrjukli,"Affordance Norms_Prolific",1,30,2023-05-12T00:25:54+00:00,23.969387054443,36,"updated stim.csv",Version36.csv,"Version 36","List 36",rain,,1067,4.958333333,2129,0.893890864,1068,BOI,-,-,"Please name all of the ways you could use this object. Keep in mind that one object can have many uses. Separate your responses with a comma.",,y,23553,,,4576,20900,,,,"water, drink, plant, grow",1
63468b5809bf04222262bfed,fdeqrjukli,"Affordance Norms_Prolific",1,31,2023-05-12T00:26:11+00:00,16.90271282196,36,"updated stim.csv",Version36.csv,"Version 36","List 36",ornament,,1062,6.181818182,1823,0.998707225,1063,BOI,-,-,"Please name all of the ways you could use this object. Keep in mind that one object can have many uses. Separate your responses with a comma.",,y,16513,,,2918,14927,,,,"view, buy, sell, collect",1
63468b5809bf04222262bfed,fdeqrjukli,"Affordance Norms_Prolific",1,32,2023-05-12T00:26:16+00:00,5.8786151409149,36,"updated stim.csv",Version36.csv,"Version 36","List 36",woodshed,,1051,5.25,2964,0.210010171,1052,BOI,-,-,"Please name all of the ways you could use this object. Keep in mind that one object can have many uses. Separate your responses with a comma.",,y,5431,,,-1,-1,,,,,1
63468b5809bf04222262bfed,fdeqrjukli,"Affordance Norms_Prolific",1,33,2023-05-12T00:26:52+00:00,35.094317913055,36,"updated stim.csv",Version36.csv,"Version 36","List 36",flashbulb,,1076,4.375,1001,0.629683234,1077,BOI,-,-,"Please name all of the ways you could use this object. Keep in mind that one object can have many uses. Separate your responses with a comma.",,y,34686,,,295,31506,,,,"photograph, use, change",1
63468b5809bf04222262bfed,fdeqrjukli,"Affordance Norms_Prolific",1,34,2023-05-12T00:27:14+00:00,22.428284168243,36,"updated stim.csv",Version36.csv,"Version 36","List 36",mentor,,1053,4.347826087,1645,0.570505968,1054,BOI,-,-,"Please name all of the ways you could use this object. Keep in mind that one object can have many uses. Separate your responses with a comma.",,y,21981,,,2559,9659,,,,"teach, learn, develop",1
63468b5809bf04222262bfed,fdeqrjukli,"Affordance Norms_Prolific",1,35,2023-05-12T00:27:27+00:00,13.209864854813,36,"updated stim.csv",Version36.csv,"Version 36","List 36",harmonica,,1061,6.416666667,1251,0.845063225,1062,BOI,-,-,"Please name all of the ways you could use this object. Keep in mind that one object can have many uses. Separate your responses with a comma.",,y,12839,,,3767,8775,,,,"learn, play",1
63468b5809bf04222262bfed,fdeqrjukli,"Affordance Norms_Prolific",1,36,2023-05-12T00:27:40+00:00,12.434139966965,36,"updated stim.csv",Version36.csv,"Version 36","List 36",screwdriver,,1069,6.52173913,2287,0.220320709,1070,BOI,-,-,"Please name all of the ways you could use this object. Keep in mind that one object can have many uses. Separate your responses with a comma.",,y,11873,,,4885,10635,,,,"turn, fix, stab",1
63468b5809bf04222262bfed,fdeqrjukli,"Affordance Norms_Prolific",1,37,2023-05-12T00:27:51+00:00,11.451609134674,36,"updated stim.csv",Version36.csv,"Version 36","List 36",alfalfa,,1073,5.045454545,26,0.1332912,1074,BOI,-,-,"Please name all of the ways you could use this object. Keep in mind that one object can have many uses. Separate your responses with a comma.",,y,11056,,,3125,8146,,,,"grow, cook, eat",1
63468b5809bf04222262bfed,fdeqrjukli,"Affordance Norms_Prolific",1,38,2023-05-12T00:28:04+00:00,13.184345960617,36,"updated stim.csv",Version36.csv,"Version 36","List 36",motorcycle,,1066,5.555555556,1696,0.62938025,1067,BOI,-,-,"Please name all of the ways you could use this object. Keep in mind that one object can have many uses. Separate your responses with a comma.",,y,12712,,,3613,11443,,,,"buy, ride, travel, crash",1
63468b5809bf04222262bfed,fdeqrjukli,"Affordance Norms_Prolific",1,39,2023-05-12T00:28:30+00:00,26.152158975601,36,"updated stim.csv",Version36.csv,"Version 36","List 36",male,,1057,5.5,1581,0.27446193,1058,BOI,-,-,"Please name all of the ways you could use this object. Keep in mind that one object can have many uses. Separate your responses with a comma.",,y,25662,,,11691,19523,,,,"socialise, breed",1
63468b5809bf04222262bfed,fdeqrjukli,"Affordance Norms_Prolific",1,40,2023-05-12T00:28:38+00:00,7.9271800518036,36,"updated stim.csv",Version36.csv,"Version 36","List 36",lambskin,,1055,4.416666667,1454,0.690896227,1056,BOI,-,-,"Please name all of the ways you could use this object. Keep in mind that one object can have many uses. Separate your responses with a comma.",,y,7508,,,-1,-1,,,,,1
63468b5809bf04222262bfed,fdeqrjukli,"Affordance Norms_Prolific",1,41,2023-05-12T00:28:45+00:00,6.2294318675995,36,"updated stim.csv",Version36.csv,"Version 36","List 36",,,,,,,0,Instruct,,,"You will now be asked a few questions about your experience today.",,"Instruct 4",5710,,,-1,-1,,,,,1
