Username,ID,ExperimentName,Session,Trial,Date,TimeDif,"Condition Number","Stimuli File","Order File","Condition Description","Condition Notes",Stimuli*Cue,Stimuli*Answer,Stimuli*Shuffle,"Stimuli*Stimuli Notes",Stimuli*Value,Stimuli*Rand,Procedure*Item,"Procedure*Trial Type","Procedure*Max Time","Procedure*Min Time",Procedure*Text,"Procedure*Procedure Notes",Procedure*Shuffle,Response*RT,Response*Response,Response*Accuracy,Response*RTfirst,Response*RTlast,Response*strictAcc,Response*lenientAcc,Response*focus,Response*JOL,Response*Focus
63d79fcd741f9cfb2f87152f,rw1iukesq7,"Affordance Norms_Prolific",1,1,2023-05-11T21:41:48+00:00,21.549053192139,16,"updated stim.csv",Version16.csv,"Version 16","List 16",,,,,,,0,Instruct,-,10,"In this section, you will be presented with a series of objects. Please name as many possible uses for this object as you can think of by typing them in the box below each object.",,Instruct1,21311,,,-1,-1,,,,,1
63d79fcd741f9cfb2f87152f,rw1iukesq7,"Affordance Norms_Prolific",1,2,2023-05-11T21:42:17+00:00,28.994256973267,16,"updated stim.csv",Version16.csv,"Version 16","List 16",,,,,,,0,Instruct,-,10,"Please keep in mind that a single object will have more than one use. For example, a ball can be thrown or can be bounced or even stepped on. When listing multiple uses for one object, please separate each use with a comma (i.e., thrown, bounced, stepped on)",,Instruct2,28577,,,-1,-1,,,,,0.35
63d79fcd741f9cfb2f87152f,rw1iukesq7,"Affordance Norms_Prolific",1,3,2023-05-11T21:42:22+00:00,5.0274748802185,16,"updated stim.csv",Version16.csv,"Version 16","List 16",,,,,,,0,Instruct,-,-,"Before starting the experiment, you will complete a short practice sesstion. Press ENTER when you are ready to begin.",,Instruct3,4618,,,-1,-1,,,,,1
63d79fcd741f9cfb2f87152f,rw1iukesq7,"Affordance Norms_Prolific",1,4,2023-05-11T21:42:31+00:00,8.5605230331421,16,"updated stim.csv",Version16.csv,"Version 16","List 16",grain,,3004,5.217391304,1143,0.226863762,3005,BOI,-,-,"Please name all of the ways you could use this object. Keep in mind that one object can have many uses. Separate your responses with a comma.",,n,8146,,,3450,7817,,,,"EAT, SELL",1
63d79fcd741f9cfb2f87152f,rw1iukesq7,"Affordance Norms_Prolific",1,5,2023-05-11T21:42:38+00:00,6.7935800552368,16,"updated stim.csv",Version16.csv,"Version 16","List 16",paperwork,,3001,5.625,1866,0.124284162,3002,BOI,-,-,"Please name all of the ways you could use this object. Keep in mind that one object can have many uses. Separate your responses with a comma.",,n,6380,,,3788,6124,,,,"WRITE, READ",1
63d79fcd741f9cfb2f87152f,rw1iukesq7,"Affordance Norms_Prolific",1,6,2023-05-11T21:42:50+00:00,11.863221883774,16,"updated stim.csv",Version16.csv,"Version 16","List 16",shortening,,3002,4.92,2358,0.604328482,3003,BOI,-,-,"Please name all of the ways you could use this object. Keep in mind that one object can have many uses. Separate your responses with a comma.",,n,11445,,,10037,11349,,,,"NOT SURE",1
63d79fcd741f9cfb2f87152f,rw1iukesq7,"Affordance Norms_Prolific",1,7,2023-05-11T21:42:59+00:00,9.5718870162964,16,"updated stim.csv",Version16.csv,"Version 16","List 16",saucer,,3005,5.777777778,2249,0.304808074,3006,BOI,-,-,"Please name all of the ways you could use this object. Keep in mind that one object can have many uses. Separate your responses with a comma.",,n,9150,,,4534,8933,,,,"TEACUP, FOOD",1
63d79fcd741f9cfb2f87152f,rw1iukesq7,"Affordance Norms_Prolific",1,8,2023-05-11T21:43:10+00:00,11.29846906662,16,"updated stim.csv",Version16.csv,"Version 16","List 16",spaghetti,,3003,6,2461,0.090379998,3004,BOI,-,-,"Please name all of the ways you could use this object. Keep in mind that one object can have many uses. Separate your responses with a comma.",,n,10886,,,3182,10589,,,,"eat, lunch, cook",1
63d79fcd741f9cfb2f87152f,rw1iukesq7,"Affordance Norms_Prolific",1,9,2023-05-11T21:43:15+00:00,4.2643308639526,16,"updated stim.csv",Version16.csv,"Version 16","List 16",,,,,,,0,Instruct,-,-,"You have completed this section. Press ENTER to continue",,"Instruct 5",3579,,,-1,-1,,,,,1
63d79fcd741f9cfb2f87152f,rw1iukesq7,"Affordance Norms_Prolific",1,10,2023-05-11T21:43:19+00:00,4.1370692253113,16,"updated stim.csv",Version16.csv,"Version 16","List 16",,,,,,,0,Instruct,-,-,"You will now start the full experiment. Press ENTER when you are ready to begin.",,,3726,,,-1,-1,,,,,1
63d79fcd741f9cfb2f87152f,rw1iukesq7,"Affordance Norms_Prolific",1,11,2023-05-11T21:43:25+00:00,5.6761448383331,16,"updated stim.csv",Version16.csv,"Version 16","List 16",lake,,465,5.035714286,1452,0.957672416,466,BOI,-,-,"Please name all of the ways you could use this object. Keep in mind that one object can have many uses. Separate your responses with a comma.",,y,5248,,,2657,4816,,,,"swim, fish",1
63d79fcd741f9cfb2f87152f,rw1iukesq7,"Affordance Norms_Prolific",1,12,2023-05-11T21:43:36+00:00,11.46289396286,16,"updated stim.csv",Version16.csv,"Version 16","List 16",checklist,,457,4.464285714,501,0.535152959,458,BOI,-,-,"Please name all of the ways you could use this object. Keep in mind that one object can have many uses. Separate your responses with a comma.",,y,11041,,,7009,10713,,,,"plan, manage",1
63d79fcd741f9cfb2f87152f,rw1iukesq7,"Affordance Norms_Prolific",1,13,2023-05-11T21:44:03+00:00,26.605129003525,16,"updated stim.csv",Version16.csv,"Version 16","List 16",policewoman,,479,4.904761905,2023,0.204056132,480,BOI,-,-,"Please name all of the ways you could use this object. Keep in mind that one object can have many uses. Separate your responses with a comma.",,y,26188,,,6964,25547,,,,"report, contact",1
63d79fcd741f9cfb2f87152f,rw1iukesq7,"Affordance Norms_Prolific",1,14,2023-05-11T21:44:13+00:00,10.282831192017,16,"updated stim.csv",Version16.csv,"Version 16","List 16",genital,,464,5.826086957,1095,0.838010994,465,BOI,-,-,"Please name all of the ways you could use this object. Keep in mind that one object can have many uses. Separate your responses with a comma.",,y,9848,,,3743,9367,,,,"reproduction, study",1
63d79fcd741f9cfb2f87152f,rw1iukesq7,"Affordance Norms_Prolific",1,15,2023-05-11T21:44:23+00:00,10.050127983093,16,"updated stim.csv",Version16.csv,"Version 16","List 16",sardine,,453,4.869565217,2242,0.892913517,454,BOI,-,-,"Please name all of the ways you could use this object. Keep in mind that one object can have many uses. Separate your responses with a comma.",,y,9625,,,1578,9529,,,,"eat, food, store, process",1
63d79fcd741f9cfb2f87152f,rw1iukesq7,"Affordance Norms_Prolific",1,16,2023-05-11T21:44:30+00:00,7.0449450016022,16,"updated stim.csv",Version16.csv,"Version 16","List 16",cellar,,476,4.6,472,0.992638044,477,BOI,-,-,"Please name all of the ways you could use this object. Keep in mind that one object can have many uses. Separate your responses with a comma.",,y,6634,,,2370,6394,,,,"wince, cool",1
63d79fcd741f9cfb2f87152f,rw1iukesq7,"Affordance Norms_Prolific",1,17,2023-05-11T21:44:49+00:00,18.674026012421,16,"updated stim.csv",Version16.csv,"Version 16","List 16",mutton,,474,5,1729,0.300420837,475,BOI,-,-,"Please name all of the ways you could use this object. Keep in mind that one object can have many uses. Separate your responses with a comma.",,y,18219,,,12779,17147,,,,"eat, food, store",0.867
63d79fcd741f9cfb2f87152f,rw1iukesq7,"Affordance Norms_Prolific",1,18,2023-05-11T21:44:56+00:00,7.2690680027008,16,"updated stim.csv",Version16.csv,"Version 16","List 16",coal,,458,4.875,579,0.494851678,459,BOI,-,-,"Please name all of the ways you could use this object. Keep in mind that one object can have many uses. Separate your responses with a comma.",,y,6859,,,2547,6323,,,,"power, energy",1
63d79fcd741f9cfb2f87152f,rw1iukesq7,"Affordance Norms_Prolific",1,19,2023-05-11T21:45:25+00:00,29.012996912003,16,"updated stim.csv",Version16.csv,"Version 16","List 16",stoop,,473,4.5,2548,0.965520337,474,BOI,-,-,"Please name all of the ways you could use this object. Keep in mind that one object can have many uses. Separate your responses with a comma.",,y,28587,,,18645,28475,,,,"sleep, tired, old",0.837
63d79fcd741f9cfb2f87152f,rw1iukesq7,"Affordance Norms_Prolific",1,20,2023-05-11T21:45:30+00:00,5.5175220966339,16,"updated stim.csv",Version16.csv,"Version 16","List 16",soap,,452,6.434782609,2437,0.273714235,453,BOI,-,-,"Please name all of the ways you could use this object. Keep in mind that one object can have many uses. Separate your responses with a comma.",,y,5107,,,1732,3907,,,,"bath, wash",1
63d79fcd741f9cfb2f87152f,rw1iukesq7,"Affordance Norms_Prolific",1,21,2023-05-11T21:45:35+00:00,4.3684959411621,16,"updated stim.csv",Version16.csv,"Version 16","List 16",scientist,,456,4.47826087,2274,0.507361683,457,BOI,-,-,"Please name all of the ways you could use this object. Keep in mind that one object can have many uses. Separate your responses with a comma.",,y,3890,,,2106,3426,,,,research,1
63d79fcd741f9cfb2f87152f,rw1iukesq7,"Affordance Norms_Prolific",1,22,2023-05-11T21:45:40+00:00,5.5372829437256,16,"updated stim.csv",Version16.csv,"Version 16","List 16",collar,,469,5.12,600,0.026191584,470,BOI,-,-,"Please name all of the ways you could use this object. Keep in mind that one object can have many uses. Separate your responses with a comma.",,y,5125,,,3917,4949,,,,shirt,1
63d79fcd741f9cfb2f87152f,rw1iukesq7,"Affordance Norms_Prolific",1,23,2023-05-11T21:45:52+00:00,11.164874076843,16,"updated stim.csv",Version16.csv,"Version 16","List 16",pole,,475,5.32,2020,0.760021962,476,BOI,-,-,"Please name all of the ways you could use this object. Keep in mind that one object can have many uses. Separate your responses with a comma.",,y,10742,,,2094,10397,,,,"climb, streetlight",1
63d79fcd741f9cfb2f87152f,rw1iukesq7,"Affordance Norms_Prolific",1,24,2023-05-11T21:46:14+00:00,22.137452840805,16,"updated stim.csv",Version16.csv,"Version 16","List 16",paraphernalia,,472,4.5,1871,0.999105159,473,BOI,-,-,"Please name all of the ways you could use this object. Keep in mind that one object can have many uses. Separate your responses with a comma.",,y,21737,,,17625,21609,,,,treatment,0.861
63d79fcd741f9cfb2f87152f,rw1iukesq7,"Affordance Norms_Prolific",1,25,2023-05-11T21:46:22+00:00,8.693498134613,16,"updated stim.csv",Version16.csv,"Version 16","List 16",linen,,462,5.875,1517,0.282871373,463,BOI,-,-,"Please name all of the ways you could use this object. Keep in mind that one object can have many uses. Separate your responses with a comma.",,y,8273,,,1937,8153,,,,"wear, gift",1
63d79fcd741f9cfb2f87152f,rw1iukesq7,"Affordance Norms_Prolific",1,26,2023-05-11T21:46:29+00:00,7.0087809562683,16,"updated stim.csv",Version16.csv,"Version 16","List 16",rupee,,480,4.826086957,2208,0.272774302,481,BOI,-,-,"Please name all of the ways you could use this object. Keep in mind that one object can have many uses. Separate your responses with a comma.",,y,6588,,,2684,5884,,,,"india, money",1
63d79fcd741f9cfb2f87152f,rw1iukesq7,"Affordance Norms_Prolific",1,27,2023-05-11T21:46:38+00:00,8.4683880805969,16,"updated stim.csv",Version16.csv,"Version 16","List 16",lip,,463,5.52173913,1521,0.029003979,464,BOI,-,-,"Please name all of the ways you could use this object. Keep in mind that one object can have many uses. Separate your responses with a comma.",,y,8053,,,1733,7644,,,,"kiss, speak",1
63d79fcd741f9cfb2f87152f,rw1iukesq7,"Affordance Norms_Prolific",1,28,2023-05-11T21:46:47+00:00,8.7387049198151,16,"updated stim.csv",Version16.csv,"Version 16","List 16",jean,,477,5.956521739,1378,0.274659644,478,BOI,-,-,"Please name all of the ways you could use this object. Keep in mind that one object can have many uses. Separate your responses with a comma.",,y,8320,,,2002,7264,,,,"wear, trousers, shirt",1
63d79fcd741f9cfb2f87152f,rw1iukesq7,"Affordance Norms_Prolific",1,29,2023-05-11T21:47:03+00:00,16.916521072388,16,"updated stim.csv",Version16.csv,"Version 16","List 16",raindrop,,460,5.208333333,2131,0.395585786,461,BOI,-,-,"Please name all of the ways you could use this object. Keep in mind that one object can have many uses. Separate your responses with a comma.",,y,16494,,,2031,14022,,,,"water, cold, wash, dry, slippery, wet",1
63d79fcd741f9cfb2f87152f,rw1iukesq7,"Affordance Norms_Prolific",1,30,2023-05-11T21:47:26+00:00,22.588012933731,16,"updated stim.csv",Version16.csv,"Version 16","List 16",bayonet,,471,4.916666667,174,0.190081034,472,BOI,-,-,"Please name all of the ways you could use this object. Keep in mind that one object can have many uses. Separate your responses with a comma.",,y,22111,,,20375,21750,,,,bulb,0.787
63d79fcd741f9cfb2f87152f,rw1iukesq7,"Affordance Norms_Prolific",1,31,2023-05-11T21:47:38+00:00,11.599838972092,16,"updated stim.csv",Version16.csv,"Version 16","List 16",note,,459,5.434782609,1781,0.11652109,460,BOI,-,-,"Please name all of the ways you could use this object. Keep in mind that one object can have many uses. Separate your responses with a comma.",,y,11171,,,2499,11011,,,,"write, diary, reminder",1
63d79fcd741f9cfb2f87152f,rw1iukesq7,"Affordance Norms_Prolific",1,32,2023-05-11T21:47:43+00:00,5.3715291023254,16,"updated stim.csv",Version16.csv,"Version 16","List 16",cocaine,,468,5.913043478,585,0.903342053,469,BOI,-,-,"Please name all of the ways you could use this object. Keep in mind that one object can have many uses. Separate your responses with a comma.",,y,4925,,,2469,3612,,,,drugs,1
63d79fcd741f9cfb2f87152f,rw1iukesq7,"Affordance Norms_Prolific",1,33,2023-05-11T21:47:58+00:00,14.652827978134,16,"updated stim.csv",Version16.csv,"Version 16","List 16",nickel,,467,5.814814815,1766,0.592286248,468,BOI,-,-,"Please name all of the ways you could use this object. Keep in mind that one object can have many uses. Separate your responses with a comma.",,y,14075,,,11467,13651,,,,"make up",1
63d79fcd741f9cfb2f87152f,rw1iukesq7,"Affordance Norms_Prolific",1,34,2023-05-11T21:48:07+00:00,9.062803030014,16,"updated stim.csv",Version16.csv,"Version 16","List 16",paintbox,,478,4.44,1848,0.023317079,479,BOI,-,-,"Please name all of the ways you could use this object. Keep in mind that one object can have many uses. Separate your responses with a comma.",,y,8637,,,2453,7509,,,,"paint, artwork",1
63d79fcd741f9cfb2f87152f,rw1iukesq7,"Affordance Norms_Prolific",1,35,2023-05-11T21:48:14+00:00,7.5102169513702,16,"updated stim.csv",Version16.csv,"Version 16","List 16",satin,,455,5.125,2246,0.101934862,456,BOI,-,-,"Please name all of the ways you could use this object. Keep in mind that one object can have many uses. Separate your responses with a comma.",,y,7082,,,2170,6938,,,,"clothing, dress",1
63d79fcd741f9cfb2f87152f,rw1iukesq7,"Affordance Norms_Prolific",1,36,2023-05-11T21:48:24+00:00,9.7028958797455,16,"updated stim.csv",Version16.csv,"Version 16","List 16",thigh,,454,5.76,2680,0.793867773,455,BOI,-,-,"Please name all of the ways you could use this object. Keep in mind that one object can have many uses. Separate your responses with a comma.",,y,9282,,,4306,6049,,,,"walk, run",1
63d79fcd741f9cfb2f87152f,rw1iukesq7,"Affordance Norms_Prolific",1,37,2023-05-11T21:48:48+00:00,23.864292144775,16,"updated stim.csv",Version16.csv,"Version 16","List 16",mortician,,451,4.833333333,1686,0.045579899,452,BOI,-,-,"Please name all of the ways you could use this object. Keep in mind that one object can have many uses. Separate your responses with a comma.",,y,23456,,,18647,22103,,,,"funeral, burial",0.894
63d79fcd741f9cfb2f87152f,rw1iukesq7,"Affordance Norms_Prolific",1,38,2023-05-11T21:48:56+00:00,8.3065578937531,16,"updated stim.csv",Version16.csv,"Version 16","List 16",spatula,,461,5.708333333,2463,0.284019134,462,BOI,-,-,"Please name all of the ways you could use this object. Keep in mind that one object can have many uses. Separate your responses with a comma.",,y,7885,,,2468,6796,,,,"eat, stir",1
63d79fcd741f9cfb2f87152f,rw1iukesq7,"Affordance Norms_Prolific",1,39,2023-05-11T21:49:18+00:00,22.124719142914,16,"updated stim.csv",Version16.csv,"Version 16","List 16",easel,,470,4.72,885,0.908131854,471,BOI,-,-,"Please name all of the ways you could use this object. Keep in mind that one object can have many uses. Separate your responses with a comma.",,y,21708,,,16668,20860,,,,"artwork, studio",0.861
63d79fcd741f9cfb2f87152f,rw1iukesq7,"Affordance Norms_Prolific",1,40,2023-05-11T21:49:27+00:00,9.2334139347076,16,"updated stim.csv",Version16.csv,"Version 16","List 16",apprentice,,466,4.321428571,65,0.613222279,467,BOI,-,-,"Please name all of the ways you could use this object. Keep in mind that one object can have many uses. Separate your responses with a comma.",,y,8813,,,2109,8396,,,,"train, learn, graduate",1
63d79fcd741f9cfb2f87152f,rw1iukesq7,"Affordance Norms_Prolific",1,41,2023-05-11T21:49:31+00:00,3.9322638511658,16,"updated stim.csv",Version16.csv,"Version 16","List 16",,,,,,,0,Instruct,,,"You will now be asked a few questions about your experience today.",,"Instruct 4",3520,,,-1,-1,,,,,1
