Username,ID,ExperimentName,Session,Trial,Date,TimeDif,"Condition Number","Stimuli File","Order File","Condition Description","Condition Notes",Stimuli*Cue,Stimuli*Answer,Stimuli*Shuffle,"Stimuli*Stimuli Notes",Stimuli*Value,Stimuli*Rand,Procedure*Item,"Procedure*Trial Type","Procedure*Max Time","Procedure*Min Time",Procedure*Text,"Procedure*Procedure Notes",Procedure*Shuffle,Response*RT,Response*Response,Response*Accuracy,Response*RTfirst,Response*RTlast,Response*strictAcc,Response*lenientAcc,Response*focus,Response*JOL,Response*Focus
5d49d17b3dad1f0001e2aba1,1usxhs55kq,"Affordance Norms_Prolific",1,1,2023-05-12T19:09:47+00:00,21.126579046249,58,"updated stim.csv",Version58.csv,"Version 58","List 58",,,,,,,0,Instruct,-,10,"In this section, you will be presented with a series of objects. Please name as many possible uses for this object as you can think of by typing them in the box below each object.",,Instruct1,20226,,,-1,-1,,,,,0.582
5d49d17b3dad1f0001e2aba1,1usxhs55kq,"Affordance Norms_Prolific",1,2,2023-05-12T19:09:59+00:00,11.85573887825,58,"updated stim.csv",Version58.csv,"Version 58","List 58",,,,,,,0,Instruct,-,10,"Please keep in mind that a single object will have more than one use. For example, a ball can be thrown or can be bounced or even stepped on. When listing multiple uses for one object, please separate each use with a comma (i.e., thrown, bounced, stepped on)",,Instruct2,10569,,,-1,-1,,,,,1
5d49d17b3dad1f0001e2aba1,1usxhs55kq,"Affordance Norms_Prolific",1,3,2023-05-12T19:10:02+00:00,3.0646359920502,58,"updated stim.csv",Version58.csv,"Version 58","List 58",,,,,,,0,Instruct,-,-,"Before starting the experiment, you will complete a short practice sesstion. Press ENTER when you are ready to begin.",,Instruct3,2244,,,-1,-1,,,,,1
5d49d17b3dad1f0001e2aba1,1usxhs55kq,"Affordance Norms_Prolific",1,4,2023-05-12T19:10:32+00:00,29.969491004944,58,"updated stim.csv",Version58.csv,"Version 58","List 58",saucer,,3005,5.777777778,2249,0.304808074,3006,BOI,-,-,"Please name all of the ways you could use this object. Keep in mind that one object can have many uses. Separate your responses with a comma.",,n,28781,,,13904,28325,,,,"for food,frisbee,smashing",1
5d49d17b3dad1f0001e2aba1,1usxhs55kq,"Affordance Norms_Prolific",1,5,2023-05-12T19:10:46+00:00,13.758301973343,58,"updated stim.csv",Version58.csv,"Version 58","List 58",paperwork,,3001,5.625,1866,0.124284162,3002,BOI,-,-,"Please name all of the ways you could use this object. Keep in mind that one object can have many uses. Separate your responses with a comma.",,n,12655,,,2093,12192,,,,"writing,bills,contract,scribble,notes",1
5d49d17b3dad1f0001e2aba1,1usxhs55kq,"Affordance Norms_Prolific",1,6,2023-05-12T19:10:55+00:00,9.780385017395,58,"updated stim.csv",Version58.csv,"Version 58","List 58",shortening,,3002,4.92,2358,0.604328482,3003,BOI,-,-,"Please name all of the ways you could use this object. Keep in mind that one object can have many uses. Separate your responses with a comma.",,n,8726,,,3216,7915,,,,"sentences,thoughts,feeling",1
5d49d17b3dad1f0001e2aba1,1usxhs55kq,"Affordance Norms_Prolific",1,7,2023-05-12T19:11:28+00:00,32.24028801918,58,"updated stim.csv",Version58.csv,"Version 58","List 58",spaghetti,,3003,6,2461,0.090379998,3004,BOI,-,-,"Please name all of the ways you could use this object. Keep in mind that one object can have many uses. Separate your responses with a comma.",,n,30894,,,16582,30548,,,,"curly,flat,round",1
5d49d17b3dad1f0001e2aba1,1usxhs55kq,"Affordance Norms_Prolific",1,8,2023-05-12T19:11:37+00:00,9.5466041564941,58,"updated stim.csv",Version58.csv,"Version 58","List 58",grain,,3004,5.217391304,1143,0.226863762,3005,BOI,-,-,"Please name all of the ways you could use this object. Keep in mind that one object can have many uses. Separate your responses with a comma.",,n,8068,,,3628,7682,,,,"rice,bulgur,oats",1
5d49d17b3dad1f0001e2aba1,1usxhs55kq,"Affordance Norms_Prolific",1,9,2023-05-12T19:11:39+00:00,1.8998520374298,58,"updated stim.csv",Version58.csv,"Version 58","List 58",,,,,,,0,Instruct,-,-,"You have completed this section. Press ENTER to continue",,"Instruct 5",1324,,,-1,-1,,,,,1
5d49d17b3dad1f0001e2aba1,1usxhs55kq,"Affordance Norms_Prolific",1,10,2023-05-12T19:11:42+00:00,3.108913898468,58,"updated stim.csv",Version58.csv,"Version 58","List 58",,,,,,,0,Instruct,-,-,"You will now start the full experiment. Press ENTER when you are ready to begin.",,,2396,,,-1,-1,,,,,1
5d49d17b3dad1f0001e2aba1,1usxhs55kq,"Affordance Norms_Prolific",1,11,2023-05-12T19:12:04+00:00,21.69290804863,58,"updated stim.csv",Version58.csv,"Version 58","List 58",spices,,1737,5.391304348,2471,0.614591779,1738,BOI,-,-,"Please name all of the ways you could use this object. Keep in mind that one object can have many uses. Separate your responses with a comma.",,y,20614,,,6020,20310,,,,"flavour,heat,mixture",1
5d49d17b3dad1f0001e2aba1,1usxhs55kq,"Affordance Norms_Prolific",1,12,2023-05-12T19:12:37+00:00,32.749595880508,58,"updated stim.csv",Version58.csv,"Version 58","List 58",starch,,1735,4.416666667,2509,0.747013627,1736,BOI,-,-,"Please name all of the ways you could use this object. Keep in mind that one object can have many uses. Separate your responses with a comma.",,y,30711,,,9416,29561,,,,"potato,carbs,diet",0.709
5d49d17b3dad1f0001e2aba1,1usxhs55kq,"Affordance Norms_Prolific",1,13,2023-05-12T19:12:49+00:00,12.62480711937,58,"updated stim.csv",Version58.csv,"Version 58","List 58",receptionist,,1733,4.68,2146,0.208293385,1734,BOI,-,-,"Please name all of the ways you could use this object. Keep in mind that one object can have many uses. Separate your responses with a comma.",,y,11324,,,3643,10803,,,,"phones,emails,visitors",1
5d49d17b3dad1f0001e2aba1,1usxhs55kq,"Affordance Norms_Prolific",1,14,2023-05-12T19:12:56+00:00,6.9871199131012,58,"updated stim.csv",Version58.csv,"Version 58","List 58",tampon,,1730,6.208333333,2629,0.688698515,1731,BOI,-,-,"Please name all of the ways you could use this object. Keep in mind that one object can have many uses. Separate your responses with a comma.",,y,5796,,,2647,4987,,,,"blood,woman,girl",1
5d49d17b3dad1f0001e2aba1,1usxhs55kq,"Affordance Norms_Prolific",1,15,2023-05-12T19:13:05+00:00,9.0019950866699,58,"updated stim.csv",Version58.csv,"Version 58","List 58",tabloid,,1739,4.52173913,2621,0.073861728,1740,BOI,-,-,"Please name all of the ways you could use this object. Keep in mind that one object can have many uses. Separate your responses with a comma.",,y,7500,,,1971,7206,,,,"news,rumours,adverts",1
5d49d17b3dad1f0001e2aba1,1usxhs55kq,"Affordance Norms_Prolific",1,16,2023-05-12T19:13:22+00:00,16.488914966583,58,"updated stim.csv",Version58.csv,"Version 58","List 58",robber,,1734,4.464285714,2180,0.110363029,1735,BOI,-,-,"Please name all of the ways you could use this object. Keep in mind that one object can have many uses. Separate your responses with a comma.",,y,15016,,,1395,14845,,,,"steal,looting,robin hood",1
5d49d17b3dad1f0001e2aba1,1usxhs55kq,"Affordance Norms_Prolific",1,17,2023-05-12T19:13:40+00:00,17.900045871735,58,"updated stim.csv",Version58.csv,"Version 58","List 58",newsboy,,1729,4.869565217,1756,0.069303889,1730,BOI,-,-,"Please name all of the ways you could use this object. Keep in mind that one object can have many uses. Separate your responses with a comma.",,y,16504,,,3367,15940,,,,"job,spreading news,experience",1
5d49d17b3dad1f0001e2aba1,1usxhs55kq,"Affordance Norms_Prolific",1,18,2023-05-12T19:13:51+00:00,10.956032037735,58,"updated stim.csv",Version58.csv,"Version 58","List 58",sketch,,1720,4.88,2393,0.530249031,1721,BOI,-,-,"Please name all of the ways you could use this object. Keep in mind that one object can have many uses. Separate your responses with a comma.",,y,9509,,,2069,9024,,,,"artwork,drawing,scribblings",1
5d49d17b3dad1f0001e2aba1,1usxhs55kq,"Affordance Norms_Prolific",1,19,2023-05-12T19:14:01+00:00,10.605934143066,58,"updated stim.csv",Version58.csv,"Version 58","List 58",door,,1731,6.217391304,821,0.965211777,1732,BOI,-,-,"Please name all of the ways you could use this object. Keep in mind that one object can have many uses. Separate your responses with a comma.",,y,9385,,,2876,8926,,,,"open,closed,shut",1
5d49d17b3dad1f0001e2aba1,1usxhs55kq,"Affordance Norms_Prolific",1,20,2023-05-12T19:14:10+00:00,8.8803598880768,58,"updated stim.csv",Version58.csv,"Version 58","List 58",squeegee,,1713,5.875,2493,0.276480634,1714,BOI,-,-,"Please name all of the ways you could use this object. Keep in mind that one object can have many uses. Separate your responses with a comma.",,y,7532,,,3018,7248,,,,"throw,drop,stomp",1
5d49d17b3dad1f0001e2aba1,1usxhs55kq,"Affordance Norms_Prolific",1,21,2023-05-12T19:14:18+00:00,8.1172759532928,58,"updated stim.csv",Version58.csv,"Version 58","List 58",bulldozer,,1723,4.565217391,352,0.957722322,1724,BOI,-,-,"Please name all of the ways you could use this object. Keep in mind that one object can have many uses. Separate your responses with a comma.",,y,6940,,,1635,6271,,,,"crush,destroy,demolish",1
5d49d17b3dad1f0001e2aba1,1usxhs55kq,"Affordance Norms_Prolific",1,22,2023-05-12T19:14:26+00:00,7.5411989688873,58,"updated stim.csv",Version58.csv,"Version 58","List 58",postcard,,1718,5.76,2042,0.267111868,1719,BOI,-,-,"Please name all of the ways you could use this object. Keep in mind that one object can have many uses. Separate your responses with a comma.",,y,6032,,,1381,5605,,,,"write,email,contact",1
5d49d17b3dad1f0001e2aba1,1usxhs55kq,"Affordance Norms_Prolific",1,23,2023-05-12T19:14:57+00:00,31.660178184509,58,"updated stim.csv",Version58.csv,"Version 58","List 58",lozenge,,1714,5.4,1553,0.457275032,1715,BOI,-,-,"Please name all of the ways you could use this object. Keep in mind that one object can have many uses. Separate your responses with a comma.",,y,29962,,,5688,29716,,,,"sooth,sweeten,taste",1
5d49d17b3dad1f0001e2aba1,1usxhs55kq,"Affordance Norms_Prolific",1,24,2023-05-12T19:15:17+00:00,19.891180992126,58,"updated stim.csv",Version58.csv,"Version 58","List 58",cleavage,,1712,4.625,553,0.939095062,1713,BOI,-,-,"Please name all of the ways you could use this object. Keep in mind that one object can have many uses. Separate your responses with a comma.",,y,18123,,,2694,17840,,,,"conceal,suggest,feel nice",1
5d49d17b3dad1f0001e2aba1,1usxhs55kq,"Affordance Norms_Prolific",1,25,2023-05-12T19:15:37+00:00,19.271633863449,58,"updated stim.csv",Version58.csv,"Version 58","List 58",examiner,,1740,4.565217391,924,0.198590956,1741,BOI,-,-,"Please name all of the ways you could use this object. Keep in mind that one object can have many uses. Separate your responses with a comma.",,y,18224,,,3246,17953,,,,"judge,evaluate,score",1
5d49d17b3dad1f0001e2aba1,1usxhs55kq,"Affordance Norms_Prolific",1,26,2023-05-12T19:16:02+00:00,25.601164102554,58,"updated stim.csv",Version58.csv,"Version 58","List 58",guitarist,,1732,4.75,1194,0.22733487,1733,BOI,-,-,"Please name all of the ways you could use this object. Keep in mind that one object can have many uses. Separate your responses with a comma.",,y,23498,,,10852,21910,,,,"make sounds,solo or with band",1
5d49d17b3dad1f0001e2aba1,1usxhs55kq,"Affordance Norms_Prolific",1,27,2023-05-12T19:16:21+00:00,19.262767076492,58,"updated stim.csv",Version58.csv,"Version 58","List 58",tulip,,1724,5.217391304,2794,0.899104098,1725,BOI,-,-,"Please name all of the ways you could use this object. Keep in mind that one object can have many uses. Separate your responses with a comma.",,y,17965,,,2036,17323,,,,"flower,gift,birds,bees",1
5d49d17b3dad1f0001e2aba1,1usxhs55kq,"Affordance Norms_Prolific",1,28,2023-05-12T19:16:39+00:00,18.005487918854,58,"updated stim.csv",Version58.csv,"Version 58","List 58",tailor,,1717,5.130434783,2626,0.537080301,1718,BOI,-,-,"Please name all of the ways you could use this object. Keep in mind that one object can have many uses. Separate your responses with a comma.",,y,16831,,,8876,16271,,,,"clothes fitting,clothes advice",1
5d49d17b3dad1f0001e2aba1,1usxhs55kq,"Affordance Norms_Prolific",1,29,2023-05-12T19:16:49+00:00,10.07612490654,58,"updated stim.csv",Version58.csv,"Version 58","List 58",supervisor,,1715,4.269230769,2591,0.552668693,1716,BOI,-,-,"Please name all of the ways you could use this object. Keep in mind that one object can have many uses. Separate your responses with a comma.",,y,8613,,,2772,7839,,,,"advise, instruct, oversee",1
5d49d17b3dad1f0001e2aba1,1usxhs55kq,"Affordance Norms_Prolific",1,30,2023-05-12T19:17:08+00:00,18.046412944794,58,"updated stim.csv",Version58.csv,"Version 58","List 58",ground,,1725,5.875,1182,0.08678902,1726,BOI,-,-,"Please name all of the ways you could use this object. Keep in mind that one object can have many uses. Separate your responses with a comma.",,y,12867,,,2981,12649,,,,"flat,bumpy,open,large,wide",1
5d49d17b3dad1f0001e2aba1,1usxhs55kq,"Affordance Norms_Prolific",1,31,2023-05-12T19:17:23+00:00,15.887625217438,58,"updated stim.csv",Version58.csv,"Version 58","List 58",shoe,,1721,6.458333333,2349,0.100789592,1722,BOI,-,-,"Please name all of the ways you could use this object. Keep in mind that one object can have many uses. Separate your responses with a comma.",,y,8075,,,2259,7721,,,,"wear,dance,jump,run",1
5d49d17b3dad1f0001e2aba1,1usxhs55kq,"Affordance Norms_Prolific",1,32,2023-05-12T19:17:41+00:00,17.96475481987,58,"updated stim.csv",Version58.csv,"Version 58","List 58",whisker,,1722,4.863636364,2928,0.684483772,1723,BOI,-,-,"Please name all of the ways you could use this object. Keep in mind that one object can have many uses. Separate your responses with a comma.",,y,15348,,,2819,14985,,,,"feel,sensitive,security",1
5d49d17b3dad1f0001e2aba1,1usxhs55kq,"Affordance Norms_Prolific",1,33,2023-05-12T19:17:52+00:00,10.694529056549,58,"updated stim.csv",Version58.csv,"Version 58","List 58",Wheelchair,,1726,6.132791328,2923,0.745832724,1727,BOI,-,-,"Please name all of the ways you could use this object. Keep in mind that one object can have many uses. Separate your responses with a comma.",,y,9406,,,2924,9143,,,,"mobility,movement,get around",1
5d49d17b3dad1f0001e2aba1,1usxhs55kq,"Affordance Norms_Prolific",1,34,2023-05-12T19:18:11+00:00,18.889267921448,58,"updated stim.csv",Version58.csv,"Version 58","List 58",sideburns,,1719,5.166666667,2375,0.698956346,1720,BOI,-,-,"Please name all of the ways you could use this object. Keep in mind that one object can have many uses. Separate your responses with a comma.",,y,17441,,,10028,14894,,,,"style,classic",1
5d49d17b3dad1f0001e2aba1,1usxhs55kq,"Affordance Norms_Prolific",1,35,2023-05-12T19:18:17+00:00,6.4618811607361,58,"updated stim.csv",Version58.csv,"Version 58","List 58",mullet,,1727,4.518518519,1717,0.941487122,1728,BOI,-,-,"Please name all of the ways you could use this object. Keep in mind that one object can have many uses. Separate your responses with a comma.",,y,5072,,,1706,4263,,,,"style,classic",1
5d49d17b3dad1f0001e2aba1,1usxhs55kq,"Affordance Norms_Prolific",1,36,2023-05-12T19:18:28+00:00,10.353720903397,58,"updated stim.csv",Version58.csv,"Version 58","List 58",jersey,,1711,5.8,1382,0.816785918,1712,BOI,-,-,"Please name all of the ways you could use this object. Keep in mind that one object can have many uses. Separate your responses with a comma.",,y,9129,,,2250,8681,,,,"football,sports,top,jumper",1
5d49d17b3dad1f0001e2aba1,1usxhs55kq,"Affordance Norms_Prolific",1,37,2023-05-12T19:18:40+00:00,11.957845926285,58,"updated stim.csv",Version58.csv,"Version 58","List 58",tickler,,1738,4.76,2693,0.764192161,1739,BOI,-,-,"Please name all of the ways you could use this object. Keep in mind that one object can have many uses. Separate your responses with a comma.",,y,10434,,,2617,9608,,,,"funny,annoying",1
5d49d17b3dad1f0001e2aba1,1usxhs55kq,"Affordance Norms_Prolific",1,38,2023-05-12T19:18:52+00:00,12.590061187744,58,"updated stim.csv",Version58.csv,"Version 58","List 58",shutter,,1736,4.541666667,2371,0.953397862,1737,BOI,-,-,"Please name all of the ways you could use this object. Keep in mind that one object can have many uses. Separate your responses with a comma.",,y,11259,,,3032,10558,,,,"shuts,inverse of opener",1
5d49d17b3dad1f0001e2aba1,1usxhs55kq,"Affordance Norms_Prolific",1,39,2023-05-12T19:19:04+00:00,11.239414930344,58,"updated stim.csv",Version58.csv,"Version 58","List 58",crouton,,1716,5.724137931,709,0.955756998,1717,BOI,-,-,"Please name all of the ways you could use this object. Keep in mind that one object can have many uses. Separate your responses with a comma.",,y,9691,,,3098,9126,,,,"food,soup like,tomato based",1
5d49d17b3dad1f0001e2aba1,1usxhs55kq,"Affordance Norms_Prolific",1,40,2023-05-12T19:19:22+00:00,18.5422270298,58,"updated stim.csv",Version58.csv,"Version 58","List 58",hen,,1728,4.652173913,1279,0.072048832,1729,BOI,-,-,"Please name all of the ways you could use this object. Keep in mind that one object can have many uses. Separate your responses with a comma.",,y,16911,,,3069,16579,,,,"chicken,waterfowl,beak",1
5d49d17b3dad1f0001e2aba1,1usxhs55kq,"Affordance Norms_Prolific",1,41,2023-05-12T19:19:24+00:00,2.339595079422,58,"updated stim.csv",Version58.csv,"Version 58","List 58",,,,,,,0,Instruct,,,"You will now be asked a few questions about your experience today.",,"Instruct 4",1798,,,-1,-1,,,,,1
