Username,ID,ExperimentName,Session,Trial,Date,TimeDif,"Condition Number","Stimuli File","Order File","Condition Description","Condition Notes",Stimuli*Cue,Stimuli*Answer,Stimuli*Shuffle,"Stimuli*Stimuli Notes",Stimuli*Value,Stimuli*Rand,Procedure*Item,"Procedure*Trial Type","Procedure*Max Time","Procedure*Min Time",Procedure*Text,"Procedure*Procedure Notes",Procedure*Shuffle,Response*RT,Response*Response,Response*Accuracy,Response*RTfirst,Response*RTlast,Response*strictAcc,Response*lenientAcc,Response*focus,Response*JOL,Response*Focus
60b988c93a06ef1e42ec2ade,1tkndjbsce,"Affordance Norms_Prolific",1,1,2023-05-11T22:09:22+00:00,11.60014295578,22,"updated stim.csv",Version22.csv,"Version 22","List 22",,,,,,,0,Instruct,-,10,"In this section, you will be presented with a series of objects. Please name as many possible uses for this object as you can think of by typing them in the box below each object.",,Instruct1,11139,,,-1,-1,,,,,1
60b988c93a06ef1e42ec2ade,1tkndjbsce,"Affordance Norms_Prolific",1,2,2023-05-11T22:09:34+00:00,11.560138225555,22,"updated stim.csv",Version22.csv,"Version 22","List 22",,,,,,,0,Instruct,-,10,"Please keep in mind that a single object will have more than one use. For example, a ball can be thrown or can be bounced or even stepped on. When listing multiple uses for one object, please separate each use with a comma (i.e., thrown, bounced, stepped on)",,Instruct2,11027,,,-1,-1,,,,,1
60b988c93a06ef1e42ec2ade,1tkndjbsce,"Affordance Norms_Prolific",1,3,2023-05-11T22:09:37+00:00,3.2450158596039,22,"updated stim.csv",Version22.csv,"Version 22","List 22",,,,,,,0,Instruct,-,-,"Before starting the experiment, you will complete a short practice sesstion. Press ENTER when you are ready to begin.",,Instruct3,2759,,,-1,-1,,,,,1
60b988c93a06ef1e42ec2ade,1tkndjbsce,"Affordance Norms_Prolific",1,4,2023-05-11T22:10:32+00:00,55.354751110077,22,"updated stim.csv",Version22.csv,"Version 22","List 22",paperwork,,3001,5.625,1866,0.124284162,3002,BOI,-,-,"Please name all of the ways you could use this object. Keep in mind that one object can have many uses. Separate your responses with a comma.",,n,54810,,,6437,52846,,,,"submitting, filling out, applying for something, make things official",1
60b988c93a06ef1e42ec2ade,1tkndjbsce,"Affordance Norms_Prolific",1,5,2023-05-11T22:10:56+00:00,23.26923584938,22,"updated stim.csv",Version22.csv,"Version 22","List 22",spaghetti,,3003,6,2461,0.090379998,3004,BOI,-,-,"Please name all of the ways you could use this object. Keep in mind that one object can have many uses. Separate your responses with a comma.",,n,22769,,,3104,10340,,,,"eating, cooking, arts and crafts, ",1
60b988c93a06ef1e42ec2ade,1tkndjbsce,"Affordance Norms_Prolific",1,6,2023-05-11T22:11:19+00:00,23.145948171616,22,"updated stim.csv",Version22.csv,"Version 22","List 22",shortening,,3002,4.92,2358,0.604328482,3003,BOI,-,-,"Please name all of the ways you could use this object. Keep in mind that one object can have many uses. Separate your responses with a comma.",,n,22631,,,3705,21343,,,,"baking, eating, cooking, greasing things",1
60b988c93a06ef1e42ec2ade,1tkndjbsce,"Affordance Norms_Prolific",1,7,2023-05-11T22:11:57+00:00,38.058498859406,22,"updated stim.csv",Version22.csv,"Version 22","List 22",saucer,,3005,5.777777778,2249,0.304808074,3006,BOI,-,-,"Please name all of the ways you could use this object. Keep in mind that one object can have many uses. Separate your responses with a comma.",,n,37540,,,10855,30954,,,,"with a teacup, to place something on, ",1
60b988c93a06ef1e42ec2ade,1tkndjbsce,"Affordance Norms_Prolific",1,8,2023-05-11T22:12:39+00:00,42.10853600502,22,"updated stim.csv",Version22.csv,"Version 22","List 22",grain,,3004,5.217391304,1143,0.226863762,3005,BOI,-,-,"Please name all of the ways you could use this object. Keep in mind that one object can have many uses. Separate your responses with a comma.",,n,41564,,,10603,39865,,,,"grow it, harvest it, grind it down, bake with it, cook with it, feed animals",1
60b988c93a06ef1e42ec2ade,1tkndjbsce,"Affordance Norms_Prolific",1,9,2023-05-11T22:12:41+00:00,2.1969881057739,22,"updated stim.csv",Version22.csv,"Version 22","List 22",,,,,,,0,Instruct,-,-,"You have completed this section. Press ENTER to continue",,"Instruct 5",1635,,,-1,-1,,,,,1
60b988c93a06ef1e42ec2ade,1tkndjbsce,"Affordance Norms_Prolific",1,10,2023-05-11T22:12:43+00:00,1.9150710105896,22,"updated stim.csv",Version22.csv,"Version 22","List 22",,,,,,,0,Instruct,-,-,"You will now start the full experiment. Press ENTER when you are ready to begin.",,,1368,,,-1,-1,,,,,1
60b988c93a06ef1e42ec2ade,1tkndjbsce,"Affordance Norms_Prolific",1,11,2023-05-11T22:13:37+00:00,54.473728895187,22,"updated stim.csv",Version22.csv,"Version 22","List 22",drone,,660,4.291666667,851,0.529488215,661,BOI,-,-,"Please name all of the ways you could use this object. Keep in mind that one object can have many uses. Separate your responses with a comma.",,y,53920,,,9833,51107,,,,"filming things, spying, getting a birds eye view, as a toy/hobby",1
60b988c93a06ef1e42ec2ade,1tkndjbsce,"Affordance Norms_Prolific",1,12,2023-05-11T22:14:19+00:00,41.926578044891,22,"updated stim.csv",Version22.csv,"Version 22","List 22",tutor,,634,4.608695652,2807,0.295026168,635,BOI,-,-,"Please name all of the ways you could use this object. Keep in mind that one object can have many uses. Separate your responses with a comma.",,y,41405,,,6244,37118,,,,"to learn something, to improve grades, to become more skilled, to understand something that is confusing",1
60b988c93a06ef1e42ec2ade,1tkndjbsce,"Affordance Norms_Prolific",1,13,2023-05-11T22:15:03+00:00,43.5161049366,22,"updated stim.csv",Version22.csv,"Version 22","List 22",wigmaker,,645,4.36,2936,0.405238599,646,BOI,-,-,"Please name all of the ways you could use this object. Keep in mind that one object can have many uses. Separate your responses with a comma.",,y,42907,,,4086,38321,,,,"costumes, people with hair loss, Orthodox Jewish women",1
60b988c93a06ef1e42ec2ade,1tkndjbsce,"Affordance Norms_Prolific",1,14,2023-05-11T22:15:37+00:00,34.53493309021,22,"updated stim.csv",Version22.csv,"Version 22","List 22",rosebush,,654,5.333333333,2195,0.69052429,655,BOI,-,-,"Please name all of the ways you could use this object. Keep in mind that one object can have many uses. Separate your responses with a comma.",,y,33991,,,5898,32764,,,,"for growing, for gifting, to keep as a hobby",1
60b988c93a06ef1e42ec2ade,1tkndjbsce,"Affordance Norms_Prolific",1,15,2023-05-11T22:16:14+00:00,36.863046884537,22,"updated stim.csv",Version22.csv,"Version 22","List 22",beach,,637,5.666666667,176,0.555141902,638,BOI,-,-,"Please name all of the ways you could use this object. Keep in mind that one object can have many uses. Separate your responses with a comma.",,y,36307,,,6093,35298,,,,"to visit, to live beside, to go swimming, sunbathing, have a picnic",1
60b988c93a06ef1e42ec2ade,1tkndjbsce,"Affordance Norms_Prolific",1,16,2023-05-11T22:16:38+00:00,23.69416809082,22,"updated stim.csv",Version22.csv,"Version 22","List 22",shed,,653,4.333333333,2327,0.019949413,654,BOI,-,-,"Please name all of the ways you could use this object. Keep in mind that one object can have many uses. Separate your responses with a comma.",,y,23123,,,3008,20255,,,,"holding tools, storing items, keeping animals out of garbage",1
60b988c93a06ef1e42ec2ade,1tkndjbsce,"Affordance Norms_Prolific",1,17,2023-05-11T22:17:14+00:00,36.341423988342,22,"updated stim.csv",Version22.csv,"Version 22","List 22",television,,652,5.6,2660,0.764587344,653,BOI,-,-,"Please name all of the ways you could use this object. Keep in mind that one object can have many uses. Separate your responses with a comma.",,y,35815,,,2305,33912,,,,"watching shows, playing movies, playing video games, using as a computer screen",1
60b988c93a06ef1e42ec2ade,1tkndjbsce,"Affordance Norms_Prolific",1,18,2023-05-11T22:17:32+00:00,17.590152978897,22,"updated stim.csv",Version22.csv,"Version 22","List 22",nightstick,,638,5.434782609,1774,0.995322937,639,BOI,-,-,"Please name all of the ways you could use this object. Keep in mind that one object can have many uses. Separate your responses with a comma.",,y,17077,,,8561,15405,,,,"is a nightstick what police use?",1
60b988c93a06ef1e42ec2ade,1tkndjbsce,"Affordance Norms_Prolific",1,19,2023-05-11T22:17:56+00:00,24.337847948074,22,"updated stim.csv",Version22.csv,"Version 22","List 22",parachute,,636,4.68,1868,0.70599198,637,BOI,-,-,"Please name all of the ways you could use this object. Keep in mind that one object can have many uses. Separate your responses with a comma.",,y,23809,,,1890,22777,,,,"for jumping from a plane, for playing with children, they have them in museums",1
60b988c93a06ef1e42ec2ade,1tkndjbsce,"Affordance Norms_Prolific",1,20,2023-05-11T22:18:21+00:00,24.589308977127,22,"updated stim.csv",Version22.csv,"Version 22","List 22",seawater,,633,4.961538462,2303,0.081957919,634,BOI,-,-,"Please name all of the ways you could use this object. Keep in mind that one object can have many uses. Separate your responses with a comma.",,y,24071,,,2467,21081,,,,"swimming, boating, using it to clean wounds, home to fish",1
60b988c93a06ef1e42ec2ade,1tkndjbsce,"Affordance Norms_Prolific",1,21,2023-05-11T22:18:43+00:00,21.684448003769,22,"updated stim.csv",Version22.csv,"Version 22","List 22",peephole,,643,4.875,1907,0.044058693,644,BOI,-,-,"Please name all of the ways you could use this object. Keep in mind that one object can have many uses. Separate your responses with a comma.",,y,21167,,,3369,19465,,,,"seeing into something, privacy, being able to see who is at the door",1
60b988c93a06ef1e42ec2ade,1tkndjbsce,"Affordance Norms_Prolific",1,22,2023-05-11T22:19:15+00:00,32.309457063675,22,"updated stim.csv",Version22.csv,"Version 22","List 22",junk,,656,4.962962963,1396,0.125346107,657,BOI,-,-,"Please name all of the ways you could use this object. Keep in mind that one object can have many uses. Separate your responses with a comma.",,y,31783,,,11325,23366,,,,"for getting rid of, repurposing, crafting, selling, ",1
60b988c93a06ef1e42ec2ade,1tkndjbsce,"Affordance Norms_Prolific",1,23,2023-05-11T22:19:46+00:00,30.921808958054,22,"updated stim.csv",Version22.csv,"Version 22","List 22",trunk,,631,5.217391304,2788,0.288599309,632,BOI,-,-,"Please name all of the ways you could use this object. Keep in mind that one object can have many uses. Separate your responses with a comma.",,y,30341,,,2634,28011,,,,"storing things, shipping things, furniture/decor",1
60b988c93a06ef1e42ec2ade,1tkndjbsce,"Affordance Norms_Prolific",1,24,2023-05-11T22:20:04+00:00,18.002496957779,22,"updated stim.csv",Version22.csv,"Version 22","List 22",clipper,,650,4.923076923,562,0.212052319,651,BOI,-,-,"Please name all of the ways you could use this object. Keep in mind that one object can have many uses. Separate your responses with a comma.",,y,17448,,,6447,16517,,,,"cutting hair, trimming things, gardening",1
60b988c93a06ef1e42ec2ade,1tkndjbsce,"Affordance Norms_Prolific",1,25,2023-05-11T22:20:25+00:00,21.221374988556,22,"updated stim.csv",Version22.csv,"Version 22","List 22",puddle,,655,5,2089,0.140663882,656,BOI,-,-,"Please name all of the ways you could use this object. Keep in mind that one object can have many uses. Separate your responses with a comma.",,y,20710,,,2024,16651,,,,"jumping, steering clear of, walking through, playing in",1
60b988c93a06ef1e42ec2ade,1tkndjbsce,"Affordance Norms_Prolific",1,26,2023-05-11T22:21:06+00:00,40.667347192764,22,"updated stim.csv",Version22.csv,"Version 22","List 22",boat,,644,5.130434783,255,0.951563463,645,BOI,-,-,"Please name all of the ways you could use this object. Keep in mind that one object can have many uses. Separate your responses with a comma.",,y,40077,,,5784,39180,,,,"living, using to travel, fishing, excursions, rowing, transportation",1
60b988c93a06ef1e42ec2ade,1tkndjbsce,"Affordance Norms_Prolific",1,27,2023-05-11T22:21:26+00:00,20.552974939346,22,"updated stim.csv",Version22.csv,"Version 22","List 22",carport,,632,4.28,439,0.557499565,633,BOI,-,-,"Please name all of the ways you could use this object. Keep in mind that one object can have many uses. Separate your responses with a comma.",,y,20000,,,2301,15736,,,,"Protection, storage, shade",1
60b988c93a06ef1e42ec2ade,1tkndjbsce,"Affordance Norms_Prolific",1,28,2023-05-11T22:21:53+00:00,26.974896907806,22,"updated stim.csv",Version22.csv,"Version 22","List 22",clam,,657,4.375,545,0.559495965,658,BOI,-,-,"Please name all of the ways you could use this object. Keep in mind that one object can have many uses. Separate your responses with a comma.",,y,26446,,,3084,22501,,,,"cooking, juice, collecting shells,",1
60b988c93a06ef1e42ec2ade,1tkndjbsce,"Affordance Norms_Prolific",1,29,2023-05-11T22:22:31+00:00,37.763657093048,22,"updated stim.csv",Version22.csv,"Version 22","List 22",diaphragm,,641,4.269230769,788,0.761321461,642,BOI,-,-,"Please name all of the ways you could use this object. Keep in mind that one object can have many uses. Separate your responses with a comma.",,y,37231,,,7156,34270,,,,"breathing/meditation, exercise, birth control",1
60b988c93a06ef1e42ec2ade,1tkndjbsce,"Affordance Norms_Prolific",1,30,2023-05-11T22:23:05+00:00,34.095155000687,22,"updated stim.csv",Version22.csv,"Version 22","List 22",stool,,659,6.076923077,2547,0.995036771,660,BOI,-,-,"Please name all of the ways you could use this object. Keep in mind that one object can have many uses. Separate your responses with a comma.",,y,33543,,,4105,30768,,,,"sitting on, standing on, reaching things",1
60b988c93a06ef1e42ec2ade,1tkndjbsce,"Affordance Norms_Prolific",1,31,2023-05-11T22:23:27+00:00,22.3159968853,22,"updated stim.csv",Version22.csv,"Version 22","List 22",needlepoint,,640,4.576923077,1746,0.71513555,641,BOI,-,-,"Please name all of the ways you could use this object. Keep in mind that one object can have many uses. Separate your responses with a comma.",,y,21757,,,1673,17953,,,,"crafting, creating, gifting, hobby, passing time",1
60b988c93a06ef1e42ec2ade,1tkndjbsce,"Affordance Norms_Prolific",1,32,2023-05-11T22:23:43+00:00,15.641278982162,22,"updated stim.csv",Version22.csv,"Version 22","List 22",buckwheat,,639,4.44,343,0.235284908,640,BOI,-,-,"Please name all of the ways you could use this object. Keep in mind that one object can have many uses. Separate your responses with a comma.",,y,15114,,,4103,13916,,,,"cooking, baking, using to fill items",1
60b988c93a06ef1e42ec2ade,1tkndjbsce,"Affordance Norms_Prolific",1,33,2023-05-11T22:23:51+00:00,8.1164240837097,22,"updated stim.csv",Version22.csv,"Version 22","List 22",mountainside,,635,4.708333333,1700,0.685106443,636,BOI,-,-,"Please name all of the ways you could use this object. Keep in mind that one object can have many uses. Separate your responses with a comma.",,y,7591,,,1262,6495,,,,"living, visiting, hiking, exploring",1
60b988c93a06ef1e42ec2ade,1tkndjbsce,"Affordance Norms_Prolific",1,34,2023-05-11T22:24:16+00:00,25.038234949112,22,"updated stim.csv",Version22.csv,"Version 22","List 22",artist,,651,4.782608696,80,0.726156662,652,BOI,-,-,"Please name all of the ways you could use this object. Keep in mind that one object can have many uses. Separate your responses with a comma.",,y,24497,,,3320,22652,,,,"career, being creative, hobby, enjoyment, relaxation",1
60b988c93a06ef1e42ec2ade,1tkndjbsce,"Affordance Norms_Prolific",1,35,2023-05-11T22:24:46+00:00,29.942136049271,22,"updated stim.csv",Version22.csv,"Version 22","List 22",pumpernickel,,646,5.130434783,2097,0.008330352,647,BOI,-,-,"Please name all of the ways you could use this object. Keep in mind that one object can have many uses. Separate your responses with a comma.",,y,29381,,,3051,27931,,,,"baking, making sandwiches, toasting, using it for dips",1
60b988c93a06ef1e42ec2ade,1tkndjbsce,"Affordance Norms_Prolific",1,36,2023-05-11T22:25:12+00:00,26.352643966675,22,"updated stim.csv",Version22.csv,"Version 22","List 22",dress,,658,6.16,843,0.914545624,659,BOI,-,-,"Please name all of the ways you could use this object. Keep in mind that one object can have many uses. Separate your responses with a comma.",,y,25818,,,2205,22214,,,,"wearing, making, designing, sketching, selling",1
60b988c93a06ef1e42ec2ade,1tkndjbsce,"Affordance Norms_Prolific",1,37,2023-05-11T22:25:30+00:00,17.205446004868,22,"updated stim.csv",Version22.csv,"Version 22","List 22",rabbit,,642,5,2117,0.225154992,643,BOI,-,-,"Please name all of the ways you could use this object. Keep in mind that one object can have many uses. Separate your responses with a comma.",,y,16645,,,2839,14762,,,,"keeping as a pet, hunting, eating, spotting in the wild",1
60b988c93a06ef1e42ec2ade,1tkndjbsce,"Affordance Norms_Prolific",1,38,2023-05-11T22:26:06+00:00,36.374730110168,22,"updated stim.csv",Version22.csv,"Version 22","List 22",shield,,647,5.037037037,2338,0.491439171,648,BOI,-,-,"Please name all of the ways you could use this object. Keep in mind that one object can have many uses. Separate your responses with a comma.",,y,35867,,,2240,31477,,,,"protection, shelter, battles, ",1
60b988c93a06ef1e42ec2ade,1tkndjbsce,"Affordance Norms_Prolific",1,39,2023-05-11T22:26:46+00:00,40.179479837418,22,"updated stim.csv",Version22.csv,"Version 22","List 22",boomerang,,648,5.666666667,280,0.252502843,649,BOI,-,-,"Please name all of the ways you could use this object. Keep in mind that one object can have many uses. Separate your responses with a comma.",,y,39658,,,15274,32002,,,,"playing, demonstrating, creating, ",1
60b988c93a06ef1e42ec2ade,1tkndjbsce,"Affordance Norms_Prolific",1,40,2023-05-11T22:27:02+00:00,15.848064184189,22,"updated stim.csv",Version22.csv,"Version 22","List 22",stockbroker,,649,4.851851852,2540,0.731101603,650,BOI,-,-,"Please name all of the ways you could use this object. Keep in mind that one object can have many uses. Separate your responses with a comma.",,y,15317,,,1652,7231,,,,"job, someone you see for advice, ",1
60b988c93a06ef1e42ec2ade,1tkndjbsce,"Affordance Norms_Prolific",1,41,2023-05-11T22:27:04+00:00,1.7699689865112,22,"updated stim.csv",Version22.csv,"Version 22","List 22",,,,,,,0,Instruct,,,"You will now be asked a few questions about your experience today.",,"Instruct 4",1255,,,-1,-1,,,,,1
