Username,ID,ExperimentName,Session,Trial,Date,TimeDif,Condition.Number,Stimuli.File,Order.File,Condition.Description,Condition.Notes,Stimuli.Cue,Stimuli.Answer,Stimuli.Shuffle,Stimuli.Stimuli.Notes,Stimuli.Value,Stimuli.Rand,Procedure.Item,Procedure.Trial.Type,Procedure.Max.Time,Procedure.Min.Time,Procedure.Text,Procedure.Procedure.Notes,Procedure.Shuffle,Response.RT,Response.Response,Response.Accuracy,Response.RTfirst,Response.RTlast,Response.strictAcc,Response.lenientAcc,Response.focus,Response.JOL,Response.Focus
20302302bw,k5fn00v5wv,Affordance Norms_MSU_TEX,1,11,2022-11-19T05:28:59+00:00,42.72884583,19,updated stim.csv,Version19.csv,Version 19,List 19,cookie,NA,567,6.5,633,0.354504033,568,BOI,-,-,Please name all of the ways you could use this object. Keep in mind that one object can have many uses. Separate your responses with a comma.,NA,y,42178,NA,NA,2629,41074,NA,NA,NA,"Eat, crumbled, thrown, stepped on, baked, frozen, refrigerated",1
20302302bw,k5fn00v5wv,Affordance Norms_MSU_TEX,1,12,2022-11-19T05:29:39+00:00,40.70878315,19,updated stim.csv,Version19.csv,Version 19,List 19,cage,NA,562,5.291666667,398,0.458861103,563,BOI,-,-,Please name all of the ways you could use this object. Keep in mind that one object can have many uses. Separate your responses with a comma.,NA,y,40317,NA,NA,2634,12976,NA,NA,NA,"Trapped, punishment",1
20302302bw,k5fn00v5wv,Affordance Norms_MSU_TEX,1,13,2022-11-19T05:30:14+00:00,34.96262479,19,updated stim.csv,Version19.csv,Version 19,List 19,couch,NA,544,6.260869565,661,0.619410451,545,BOI,-,-,Please name all of the ways you could use this object. Keep in mind that one object can have many uses. Separate your responses with a comma.,NA,y,34554,NA,NA,5260,16178,NA,NA,NA,"Lay, sleep, sit, ",1
20302302bw,k5fn00v5wv,Affordance Norms_MSU_TEX,1,14,2022-11-19T05:30:39+00:00,24.3476212,19,updated stim.csv,Version19.csv,Version 19,List 19,toe,NA,565,5.954545455,2715,0.055815318,566,BOI,-,-,Please name all of the ways you could use this object. Keep in mind that one object can have many uses. Separate your responses with a comma.,NA,y,23973,NA,NA,2155,23104,NA,NA,NA,"Stubbed, walking, running, squating",1
20302302bw,k5fn00v5wv,Affordance Norms_MSU_TEX,1,15,2022-11-19T05:30:47+00:00,8.595402956,19,updated stim.csv,Version19.csv,Version 19,List 19,letterbox,NA,559,4.56,1496,0.230726376,560,BOI,-,-,Please name all of the ways you could use this object. Keep in mind that one object can have many uses. Separate your responses with a comma.,NA,y,8012,NA,NA,3573,5158,NA,NA,NA,Storage,1
20302302bw,k5fn00v5wv,Affordance Norms_MSU_TEX,1,16,2022-11-19T05:31:59+00:00,72.20685792,19,updated stim.csv,Version19.csv,Version 19,List 19,saltwater,NA,545,5.192307692,2229,0.240965939,546,BOI,-,-,Please name all of the ways you could use this object. Keep in mind that one object can have many uses. Separate your responses with a comma.,NA,y,71864,NA,NA,8281,70295,NA,NA,NA,"Weapon, boiled, cooking pasta(when not from ocean)",1
20302302bw,k5fn00v5wv,Affordance Norms_MSU_TEX,1,17,2022-11-19T05:32:42+00:00,42.37532496,19,updated stim.csv,Version19.csv,Version 19,List 19,raft,NA,564,5.36,2125,0.368001778,565,BOI,-,-,Please name all of the ways you could use this object. Keep in mind that one object can have many uses. Separate your responses with a comma.,NA,y,41906,NA,NA,2655,39868,NA,NA,NA,"Sail, paddled, building, storage, float",1
20302302bw,k5fn00v5wv,Affordance Norms_MSU_TEX,1,18,2022-11-19T05:33:13+00:00,31.41532516,19,updated stim.csv,Version19.csv,Version 19,List 19,tray,NA,547,5.166666667,2768,0.711278044,548,BOI,-,-,Please name all of the ways you could use this object. Keep in mind that one object can have many uses. Separate your responses with a comma.,NA,y,30912,NA,NA,5332,29760,NA,NA,NA,"Thrown, spun, weapon, storage",1
20302302bw,k5fn00v5wv,Affordance Norms_MSU_TEX,1,19,2022-11-19T05:33:30+00:00,16.43667889,19,updated stim.csv,Version19.csv,Version 19,List 19,backpack,NA,555,5.72,116,0.596868112,556,BOI,-,-,Please name all of the ways you could use this object. Keep in mind that one object can have many uses. Separate your responses with a comma.,NA,y,16103,NA,NA,2175,4927,NA,NA,NA,Storage,1
20302302bw,k5fn00v5wv,Affordance Norms_MSU_TEX,1,20,2022-11-19T05:34:29+00:00,59.12437797,19,updated stim.csv,Version19.csv,Version 19,List 19,goggles,NA,543,6.125,1131,0.800491874,544,BOI,-,-,Please name all of the ways you could use this object. Keep in mind that one object can have many uses. Separate your responses with a comma.,NA,y,58382,NA,NA,7178,56198,NA,NA,NA,"Swimming, snowboarding, driving, flying, skydiving",1
20302302bw,k5fn00v5wv,Affordance Norms_MSU_TEX,1,21,2022-11-19T05:34:54+00:00,25.20222211,19,updated stim.csv,Version19.csv,Version 19,List 19,kerchief,NA,541,5.666666667,1406,0.493496181,542,BOI,-,-,Please name all of the ways you could use this object. Keep in mind that one object can have many uses. Separate your responses with a comma.,NA,y,24574,NA,NA,21636,23520,NA,NA,NA,Cleaning,1
20302302bw,k5fn00v5wv,Affordance Norms_MSU_TEX,1,22,2022-11-19T05:35:32+00:00,38.41709304,19,updated stim.csv,Version19.csv,Version 19,List 19,kitchen,NA,566,5.625,1425,0.900817788,567,BOI,-,-,Please name all of the ways you could use this object. Keep in mind that one object can have many uses. Separate your responses with a comma.,NA,y,38065,NA,NA,3167,17161,NA,NA,NA,"Cooking, storage, baking",1
20302302bw,k5fn00v5wv,Affordance Norms_MSU_TEX,1,23,2022-11-19T05:36:21+00:00,48.92278981,19,updated stim.csv,Version19.csv,Version 19,List 19,vulva,NA,561,5.16,2876,0.286824315,562,BOI,-,-,Please name all of the ways you could use this object. Keep in mind that one object can have many uses. Separate your responses with a comma.,NA,y,48397,NA,NA,8021,43351,NA,NA,NA,Pleasure,0.879
20302302bw,k5fn00v5wv,Affordance Norms_MSU_TEX,1,24,2022-11-19T05:37:01+00:00,39.73683119,19,updated stim.csv,Version19.csv,Version 19,List 19,splinter,NA,563,4.652173913,2478,0.624463816,564,BOI,-,-,Please name all of the ways you could use this object. Keep in mind that one object can have many uses. Separate your responses with a comma.,NA,y,39068,NA,NA,7402,28688,NA,NA,NA,"Removal, pain",1
20302302bw,k5fn00v5wv,Affordance Norms_MSU_TEX,1,25,2022-11-19T05:37:24+00:00,22.94044089,19,updated stim.csv,Version19.csv,Version 19,List 19,treadmill,NA,568,6,2769,0.114264323,569,BOI,-,-,Please name all of the ways you could use this object. Keep in mind that one object can have many uses. Separate your responses with a comma.,NA,y,22577,NA,NA,2835,19406,NA,NA,NA,"Exercise, physical therapy ",1
20302302bw,k5fn00v5wv,Affordance Norms_MSU_TEX,1,26,2022-11-19T05:37:45+00:00,20.77343607,19,updated stim.csv,Version19.csv,Version 19,List 19,goose,NA,553,5.260869565,1138,0.494045205,554,BOI,-,-,Please name all of the ways you could use this object. Keep in mind that one object can have many uses. Separate your responses with a comma.,NA,y,20258,NA,NA,3911,15471,NA,NA,NA,"Eating, fertilizer ",1
20302302bw,k5fn00v5wv,Affordance Norms_MSU_TEX,1,27,2022-11-19T05:38:08+00:00,23.48830485,19,updated stim.csv,Version19.csv,Version 19,List 19,godparent,NA,551,5.260869565,1129,0.144202147,552,BOI,-,-,Please name all of the ways you could use this object. Keep in mind that one object can have many uses. Separate your responses with a comma.,NA,y,23044,NA,NA,8199,16836,NA,NA,NA,"Teaching, guardian ",1
20302302bw,k5fn00v5wv,Affordance Norms_MSU_TEX,1,28,2022-11-19T05:38:37+00:00,28.80381012,19,updated stim.csv,Version19.csv,Version 19,List 19,tear,NA,556,4.44,2650,0.64593677,557,BOI,-,-,Please name all of the ways you could use this object. Keep in mind that one object can have many uses. Separate your responses with a comma.,NA,y,28374,NA,NA,8709,11360,NA,NA,NA,Crying,1
20302302bw,k5fn00v5wv,Affordance Norms_MSU_TEX,1,29,2022-11-19T05:39:10+00:00,32.84537601,19,updated stim.csv,Version19.csv,Version 19,List 19,bagpipes,NA,550,5,124,0.570726592,551,BOI,-,-,Please name all of the ways you could use this object. Keep in mind that one object can have many uses. Separate your responses with a comma.,NA,y,32412,NA,NA,3391,24441,NA,NA,NA,"Music, annoy people, stepped on",1
20302302bw,k5fn00v5wv,Affordance Norms_MSU_TEX,1,30,2022-11-19T05:39:32+00:00,22.57315707,19,updated stim.csv,Version19.csv,Version 19,List 19,silkworm,NA,570,5.208333333,2382,0.564942119,571,BOI,-,-,Please name all of the ways you could use this object. Keep in mind that one object can have many uses. Separate your responses with a comma.,NA,y,22231,NA,NA,4431,21064,NA,NA,NA,"Cocoons, eating, clothing",1
20302302bw,k5fn00v5wv,Affordance Norms_MSU_TEX,1,31,2022-11-19T05:40:03+00:00,30.23017383,19,updated stim.csv,Version19.csv,Version 19,List 19,yardstick,NA,569,5.956521739,2990,0.862814499,570,BOI,-,-,Please name all of the ways you could use this object. Keep in mind that one object can have many uses. Separate your responses with a comma.,NA,y,29806,NA,NA,4943,26660,NA,NA,NA,"Measuring, building, science",1
20302302bw,k5fn00v5wv,Affordance Norms_MSU_TEX,1,32,2022-11-19T05:40:52+00:00,49.17328,19,updated stim.csv,Version19.csv,Version 19,List 19,barley,NA,546,4.541666667,149,0.391499549,547,BOI,-,-,Please name all of the ways you could use this object. Keep in mind that one object can have many uses. Separate your responses with a comma.,NA,y,48475,NA,NA,36598,46089,NA,NA,NA,"Cooking, baking, grinding",1
20302302bw,k5fn00v5wv,Affordance Norms_MSU_TEX,1,33,2022-11-19T05:41:26+00:00,33.925807,19,updated stim.csv,Version19.csv,Version 19,List 19,enamel,NA,552,4.652173913,905,0.497490187,553,BOI,-,-,Please name all of the ways you could use this object. Keep in mind that one object can have many uses. Separate your responses with a comma.,NA,y,32544,NA,NA,26188,31241,NA,NA,NA,Remove,1
20302302bw,k5fn00v5wv,Affordance Norms_MSU_TEX,1,34,2022-11-19T05:42:02+00:00,36.33897901,19,updated stim.csv,Version19.csv,Version 19,List 19,switchblade,NA,557,5.869565217,2609,0.252814962,558,BOI,-,-,Please name all of the ways you could use this object. Keep in mind that one object can have many uses. Separate your responses with a comma.,NA,y,35974,NA,NA,13472,35006,NA,NA,NA,"Stabbing, cutting, slicing, fighting",1
20302302bw,k5fn00v5wv,Affordance Norms_MSU_TEX,1,35,2022-11-19T05:42:47+00:00,45.07610106,19,updated stim.csv,Version19.csv,Version 19,List 19,woodcutter,NA,560,4.44,2960,0.152234376,561,BOI,-,-,Please name all of the ways you could use this object. Keep in mind that one object can have many uses. Separate your responses with a comma.,NA,y,44712,NA,NA,4633,44234,NA,NA,NA,Log splitting,1
20302302bw,k5fn00v5wv,Affordance Norms_MSU_TEX,1,36,2022-11-19T05:43:05+00:00,17.37300396,19,updated stim.csv,Version19.csv,Version 19,List 19,lantern,NA,558,5.653846154,1463,0.56962793,559,BOI,-,-,Please name all of the ways you could use this object. Keep in mind that one object can have many uses. Separate your responses with a comma.,NA,y,16894,NA,NA,2248,8136,NA,NA,NA,"Light, fire",1
20302302bw,k5fn00v5wv,Affordance Norms_MSU_TEX,1,37,2022-11-19T05:43:26+00:00,21.79990506,19,updated stim.csv,Version19.csv,Version 19,List 19,lubrication,NA,549,4.333333333,1555,0.460781999,550,BOI,-,-,Please name all of the ways you could use this object. Keep in mind that one object can have many uses. Separate your responses with a comma.,NA,y,21447,NA,NA,4015,12303,NA,NA,NA,"Sex, machines",1
20302302bw,k5fn00v5wv,Affordance Norms_MSU_TEX,1,38,2022-11-19T05:44:13+00:00,46.95403385,19,updated stim.csv,Version19.csv,Version 19,List 19,steak,NA,554,5.75,2515,0.944862222,555,BOI,-,-,Please name all of the ways you could use this object. Keep in mind that one object can have many uses. Separate your responses with a comma.,NA,y,46569,NA,NA,5153,45467,NA,NA,NA,"Braising, slicing, grinding, baking, pan fry, grilling",1
20302302bw,k5fn00v5wv,Affordance Norms_MSU_TEX,1,39,2022-11-19T05:44:36+00:00,22.90309215,19,updated stim.csv,Version19.csv,Version 19,List 19,plaster,NA,542,4.4,1993,0.665997379,543,BOI,-,-,Please name all of the ways you could use this object. Keep in mind that one object can have many uses. Separate your responses with a comma.,NA,y,22512,NA,NA,16440,21293,NA,NA,NA,"Cast, building",1
20302302bw,k5fn00v5wv,Affordance Norms_MSU_TEX,1,40,2022-11-19T05:44:54+00:00,17.37459207,19,updated stim.csv,Version19.csv,Version 19,List 19,derriere,NA,548,5.5,778,0.071649372,549,BOI,-,-,Please name all of the ways you could use this object. Keep in mind that one object can have many uses. Separate your responses with a comma.,NA,y,17012,NA,NA,12305,14992,NA,NA,NA,I don't know ,1
20304703CW,0rcgnc5yfp,Affordance Norms_MSU_TEX,1,11,2022-10-16T08:00:48+00:00,18.95941877,27,updated stim.csv,Version27.csv,Version 27,List 27,scythe,NA,803,4.727272727,2293,0.081812989,804,BOI,-,-,Please name all of the ways you could use this object. Keep in mind that one object can have many uses. Separate your responses with a comma.,NA,y,18550,NA,NA,7413,16806,NA,NA,NA,"Death , decoration ",1
20304703CW,0rcgnc5yfp,Affordance Norms_MSU_TEX,1,12,2022-10-16T08:01:15+00:00,26.887393,27,updated stim.csv,Version27.csv,Version 27,List 27,marshmallow,NA,797,6.173913043,1611,0.341569418,798,BOI,-,-,Please name all of the ways you could use this object. Keep in mind that one object can have many uses. Separate your responses with a comma.,NA,y,26478,NA,NA,5151,22966,NA,NA,NA,"Hot chocolate, s'more, eating ",1
20304703CW,0rcgnc5yfp,Affordance Norms_MSU_TEX,1,13,2022-10-16T08:01:40+00:00,25.26357603,27,updated stim.csv,Version27.csv,Version 27,List 27,foxhound,NA,781,4.347826087,1052,0.132476574,782,BOI,-,-,Please name all of the ways you could use this object. Keep in mind that one object can have many uses. Separate your responses with a comma.,NA,y,24832,NA,NA,6608,21951,NA,NA,NA,"Pet , protection , guarding ",1
20304703CW,0rcgnc5yfp,Affordance Norms_MSU_TEX,1,14,2022-10-16T08:02:36+00:00,56.11057806,27,updated stim.csv,Version27.csv,Version 27,List 27,townsfolk,NA,798,4.583333333,2748,0.970426414,799,BOI,-,-,Please name all of the ways you could use this object. Keep in mind that one object can have many uses. Separate your responses with a comma.,NA,y,55636,NA,NA,8498,53310,NA,NA,NA,"Communicating , running a town , building local economy , local government ",1
20304703CW,0rcgnc5yfp,Affordance Norms_MSU_TEX,1,15,2022-10-16T08:03:29+00:00,52.81294703,27,updated stim.csv,Version27.csv,Version 27,List 27,appliance,NA,807,5.791666667,62,0.769783422,808,BOI,-,-,Please name all of the ways you could use this object. Keep in mind that one object can have many uses. Separate your responses with a comma.,NA,y,52323,NA,NA,3286,49878,NA,NA,NA,"Kitchen , bathroom , laundry , cleaning , to rules ",1
20304703CW,0rcgnc5yfp,Affordance Norms_MSU_TEX,1,16,2022-10-16T08:04:54+00:00,84.43202996,27,updated stim.csv,Version27.csv,Version 27,List 27,skin,NA,789,6.16,2399,0.020886724,790,BOI,-,-,Please name all of the ways you could use this object. Keep in mind that one object can have many uses. Separate your responses with a comma.,NA,y,84007,NA,NA,11476,78970,NA,NA,NA,"Body, touch , massage , moisturize, cleanse tattoo, pierce , wash, shave , protect organs ",1
20304703CW,0rcgnc5yfp,Affordance Norms_MSU_TEX,1,17,2022-10-16T08:06:10+00:00,75.89453292,27,updated stim.csv,Version27.csv,Version 27,List 27,electronics,NA,783,5.12,899,0.638186534,784,BOI,-,-,Please name all of the ways you could use this object. Keep in mind that one object can have many uses. Separate your responses with a comma.,NA,y,75479,NA,NA,4801,60662,NA,NA,NA,"Play games , communicate , social medial , watch YouTube , read news , text , search things ",1
20304703CW,0rcgnc5yfp,Affordance Norms_MSU_TEX,1,18,2022-10-16T08:06:14+00:00,4.444214106,27,updated stim.csv,Version27.csv,Version 27,List 27,billfold,NA,793,5.444444444,215,0.982545765,794,BOI,-,-,Please name all of the ways you could use this object. Keep in mind that one object can have many uses. Separate your responses with a comma.,NA,y,3963,NA,NA,-1,-1,NA,NA,NA,,1
20304703CW,0rcgnc5yfp,Affordance Norms_MSU_TEX,1,19,2022-10-16T08:06:35+00:00,20.73206496,27,updated stim.csv,Version27.csv,Version 27,List 27,daiquiri,NA,799,5.454545455,749,0.644735907,800,BOI,-,-,Please name all of the ways you could use this object. Keep in mind that one object can have many uses. Separate your responses with a comma.,NA,y,20260,NA,NA,2849,19270,NA,NA,NA,"Drink , make",1
20304703CW,0rcgnc5yfp,Affordance Norms_MSU_TEX,1,20,2022-10-16T08:06:49+00:00,13.97312093,27,updated stim.csv,Version27.csv,Version 27,List 27,apricot,NA,808,6.291666667,66,0.995280621,809,BOI,-,-,Please name all of the ways you could use this object. Keep in mind that one object can have many uses. Separate your responses with a comma.,NA,y,13570,NA,NA,4863,11328,NA,NA,NA,"On bread , to eat ",1
20304703CW,0rcgnc5yfp,Affordance Norms_MSU_TEX,1,21,2022-10-16T08:06:57+00:00,8.544643164,27,updated stim.csv,Version27.csv,Version 27,List 27,breastbone,NA,785,5.318181818,313,0.603483153,786,BOI,-,-,Please name all of the ways you could use this object. Keep in mind that one object can have many uses. Separate your responses with a comma.,NA,y,8115,NA,NA,-1,-1,NA,NA,NA,,1
20304703CW,0rcgnc5yfp,Affordance Norms_MSU_TEX,1,22,2022-10-16T08:07:08+00:00,10.77100706,27,updated stim.csv,Version27.csv,Version 27,List 27,Grasshopper,NA,810,4.753721245,1161,0.631524214,811,BOI,-,-,Please name all of the ways you could use this object. Keep in mind that one object can have many uses. Separate your responses with a comma.,NA,y,10325,NA,NA,-1,-1,NA,NA,NA,,1
20304703CW,0rcgnc5yfp,Affordance Norms_MSU_TEX,1,23,2022-10-16T08:07:13+00:00,4.927725792,27,updated stim.csv,Version27.csv,Version 27,List 27,vermicelli,NA,806,5.571428571,2850,0.748756613,807,BOI,-,-,Please name all of the ways you could use this object. Keep in mind that one object can have many uses. Separate your responses with a comma.,NA,y,4538,NA,NA,-1,-1,NA,NA,NA,,1
20304703CW,0rcgnc5yfp,Affordance Norms_MSU_TEX,1,24,2022-10-16T08:07:51+00:00,38.0393281,27,updated stim.csv,Version27.csv,Version 27,List 27,fondue,NA,794,4.92,1026,0.74868349,795,BOI,-,-,Please name all of the ways you could use this object. Keep in mind that one object can have many uses. Separate your responses with a comma.,NA,y,37621,NA,NA,2573,34218,NA,NA,NA,"To eat , dip with chips , dip with bread , ",1
20304703CW,0rcgnc5yfp,Affordance Norms_MSU_TEX,1,25,2022-10-16T08:08:11+00:00,20.03945708,27,updated stim.csv,Version27.csv,Version 27,List 27,sedative,NA,800,4.416666667,2307,0.365305689,801,BOI,-,-,Please name all of the ways you could use this object. Keep in mind that one object can have many uses. Separate your responses with a comma.,NA,y,19587,NA,NA,2299,18413,NA,NA,NA,"To sleep , calm pain , induce coma",1
20304703CW,0rcgnc5yfp,Affordance Norms_MSU_TEX,1,26,2022-10-16T08:08:41+00:00,29.85646796,27,updated stim.csv,Version27.csv,Version 27,List 27,cherry,NA,804,5.454545455,511,0.321321714,805,BOI,-,-,Please name all of the ways you could use this object. Keep in mind that one object can have many uses. Separate your responses with a comma.,NA,y,29412,NA,NA,5078,27104,NA,NA,NA,"On a milkshake , give something flavor , eat ",1
20304703CW,0rcgnc5yfp,Affordance Norms_MSU_TEX,1,27,2022-10-16T08:09:05+00:00,24.16781402,27,updated stim.csv,Version27.csv,Version 27,List 27,bug,NA,787,5.296296296,347,0.872982747,788,BOI,-,-,Please name all of the ways you could use this object. Keep in mind that one object can have many uses. Separate your responses with a comma.,NA,y,23689,NA,NA,2510,21029,NA,NA,NA,"Kill bug , eat ",1
20304703CW,0rcgnc5yfp,Affordance Norms_MSU_TEX,1,28,2022-10-16T08:09:15+00:00,9.59682703,27,updated stim.csv,Version27.csv,Version 27,List 27,gambler,NA,792,4.416666667,1070,0.425400379,793,BOI,-,-,Please name all of the ways you could use this object. Keep in mind that one object can have many uses. Separate your responses with a comma.,NA,y,9186,NA,NA,7179,9126,NA,NA,NA,At a ca,1
20304703CW,0rcgnc5yfp,Affordance Norms_MSU_TEX,1,29,2022-10-16T08:09:38+00:00,23.75026393,27,updated stim.csv,Version27.csv,Version 27,List 27,father,NA,788,6.035714286,951,0.177455126,789,BOI,-,-,Please name all of the ways you could use this object. Keep in mind that one object can have many uses. Separate your responses with a comma.,NA,y,23125,NA,NA,5987,20844,NA,NA,NA,"For children , spend time , get money ",1
20304703CW,0rcgnc5yfp,Affordance Norms_MSU_TEX,1,30,2022-10-16T08:10:23+00:00,44.79403806,27,updated stim.csv,Version27.csv,Version 27,List 27,lingerie,NA,790,5.72,1518,0.572115886,791,BOI,-,-,Please name all of the ways you could use this object. Keep in mind that one object can have many uses. Separate your responses with a comma.,NA,y,44000,NA,NA,4035,41974,NA,NA,NA,"For significant other , wear ,try on , myself , as undergarments ",1
20304703CW,0rcgnc5yfp,Affordance Norms_MSU_TEX,1,31,2022-10-16T08:11:07+00:00,43.68155289,27,updated stim.csv,Version27.csv,Version 27,List 27,fridge,NA,786,6.166666667,1056,0.464283559,787,BOI,-,-,Please name all of the ways you could use this object. Keep in mind that one object can have many uses. Separate your responses with a comma.,NA,y,43261,NA,NA,2460,39628,NA,NA,NA,"To store food , preserve milk ,organize food , cool food ",1
20304703CW,0rcgnc5yfp,Affordance Norms_MSU_TEX,1,32,2022-10-16T08:11:36+00:00,28.58289599,27,updated stim.csv,Version27.csv,Version 27,List 27,receipts,NA,795,5.04,2144,0.953062768,796,BOI,-,-,Please name all of the ways you could use this object. Keep in mind that one object can have many uses. Separate your responses with a comma.,NA,y,28153,NA,NA,5975,26855,NA,NA,NA,"Track money , to return things ,m",1
20304703CW,0rcgnc5yfp,Affordance Norms_MSU_TEX,1,33,2022-10-16T08:12:44+00:00,68.25106406,27,updated stim.csv,Version27.csv,Version 27,List 27,kaleidoscope,NA,784,5.84,1400,0.135806024,785,BOI,-,-,Please name all of the ways you could use this object. Keep in mind that one object can have many uses. Separate your responses with a comma.,NA,y,67775,NA,NA,38868,62360,NA,NA,NA,Change perception,0.817
20304703CW,0rcgnc5yfp,Affordance Norms_MSU_TEX,1,34,2022-10-16T08:13:13+00:00,28.87533188,27,updated stim.csv,Version27.csv,Version 27,List 27,housekeeper,NA,801,4.458333333,1331,0.888029545,802,BOI,-,-,Please name all of the ways you could use this object. Keep in mind that one object can have many uses. Separate your responses with a comma.,NA,y,28368,NA,NA,2746,26744,NA,NA,NA,"Cleaning , orginizong , keep things orderly",1
20304703CW,0rcgnc5yfp,Affordance Norms_MSU_TEX,1,35,2022-10-16T08:13:42+00:00,29.6763742,27,updated stim.csv,Version27.csv,Version 27,List 27,bum,NA,782,4.346153846,357,0.688986044,783,BOI,-,-,Please name all of the ways you could use this object. Keep in mind that one object can have many uses. Separate your responses with a comma.,NA,y,29187,NA,NA,5190,26642,NA,NA,NA,"Sit on , lay on , massage , slap , grab",1
20304703CW,0rcgnc5yfp,Affordance Norms_MSU_TEX,1,36,2022-10-16T08:14:41+00:00,58.97950101,27,updated stim.csv,Version27.csv,Version 27,List 27,intercom,NA,809,4.695652174,1363,0.853702441,810,BOI,-,-,Please name all of the ways you could use this object. Keep in mind that one object can have many uses. Separate your responses with a comma.,NA,y,58397,NA,NA,6311,57372,NA,NA,NA,"To speak to crowds , yell into , play music , connect missing people to love ones",1
20304703CW,0rcgnc5yfp,Affordance Norms_MSU_TEX,1,37,2022-10-16T08:14:57+00:00,15.41268587,27,updated stim.csv,Version27.csv,Version 27,List 27,bunkmate,NA,791,4.458333333,362,0.990824712,792,BOI,-,-,Please name all of the ways you could use this object. Keep in mind that one object can have many uses. Separate your responses with a comma.,NA,y,14972,NA,NA,5199,13851,NA,NA,NA,"Talk to , sleep with",1
20304703CW,0rcgnc5yfp,Affordance Norms_MSU_TEX,1,38,2022-10-16T08:15:18+00:00,21.2445631,27,updated stim.csv,Version27.csv,Version 27,List 27,mothball,NA,796,5.12,1691,0.964691263,797,BOI,-,-,Please name all of the ways you could use this object. Keep in mind that one object can have many uses. Separate your responses with a comma.,NA,y,20773,NA,NA,3669,20172,NA,NA,NA,"Keep away snakes , keep away bugs",1
20304703CW,0rcgnc5yfp,Affordance Norms_MSU_TEX,1,39,2022-10-16T08:15:31+00:00,12.98909187,27,updated stim.csv,Version27.csv,Version 27,List 27,flagpole,NA,802,4.785714286,996,0.453208027,803,BOI,-,-,Please name all of the ways you could use this object. Keep in mind that one object can have many uses. Separate your responses with a comma.,NA,y,12508,NA,NA,2985,11117,NA,NA,NA,To hang flag,1
20304703CW,0rcgnc5yfp,Affordance Norms_MSU_TEX,1,40,2022-10-16T08:15:49+00:00,17.76228809,27,updated stim.csv,Version27.csv,Version 27,List 27,subway,NA,805,5,2577,0.98227085,806,BOI,-,-,Please name all of the ways you could use this object. Keep in mind that one object can have many uses. Separate your responses with a comma.,NA,y,17284,NA,NA,9717,15930,NA,NA,NA,Transportation,1
20305967AO,hgkx4ba76a,Affordance Norms_MSU_TEX,1,11,2022-10-31T18:04:27+00:00,22.40331006,47,updated stim.csv,Version47.csv,Version 47,List 47,gate,NA,1388,5.956521739,1085,0.228467401,1389,BOI,-,-,Please name all of the ways you could use this object. Keep in mind that one object can have many uses. Separate your responses with a comma.,NA,y,22001,NA,NA,5142,21350,NA,NA,NA,"open, close, keep out, protect within, castle, protection",1
20305967AO,hgkx4ba76a,Affordance Norms_MSU_TEX,1,12,2022-10-31T18:04:47+00:00,20.06523705,47,updated stim.csv,Version47.csv,Version 47,List 47,apron,NA,1385,5.96,67,0.690663314,1386,BOI,-,-,Please name all of the ways you could use this object. Keep in mind that one object can have many uses. Separate your responses with a comma.,NA,y,19656,NA,NA,1955,18881,NA,NA,NA,"protect clothing, various colors, protection, cooking, baking",1
20305967AO,hgkx4ba76a,Affordance Norms_MSU_TEX,1,13,2022-10-31T18:05:09+00:00,21.25051689,47,updated stim.csv,Version47.csv,Version 47,List 47,duckweed,NA,1408,4.4,861,0.109146869,1409,BOI,-,-,Please name all of the ways you could use this object. Keep in mind that one object can have many uses. Separate your responses with a comma.,NA,y,20826,NA,NA,7223,20592,NA,NA,NA,"aquamarine, plant life, ecology, nature",1
20305967AO,hgkx4ba76a,Affordance Norms_MSU_TEX,1,14,2022-10-31T18:05:19+00:00,9.935207129,47,updated stim.csv,Version47.csv,Version 47,List 47,keepsake,NA,1400,4.75,1403,0.353530379,1401,BOI,-,-,Please name all of the ways you could use this object. Keep in mind that one object can have many uses. Separate your responses with a comma.,NA,y,9539,NA,NA,2037,8466,NA,NA,NA,time,1
20305967AO,hgkx4ba76a,Affordance Norms_MSU_TEX,1,15,2022-10-31T18:05:35+00:00,16.04267097,47,updated stim.csv,Version47.csv,Version 47,List 47,hamster,NA,1390,5.583333333,1226,0.187879003,1391,BOI,-,-,Please name all of the ways you could use this object. Keep in mind that one object can have many uses. Separate your responses with a comma.,NA,y,15640,NA,NA,1993,14970,NA,NA,NA,"animal, caged, pet, active",1
20305967AO,hgkx4ba76a,Affordance Norms_MSU_TEX,1,16,2022-10-31T18:05:40+00:00,5.671825886,47,updated stim.csv,Version47.csv,Version 47,List 47,mink,NA,1381,4.904761905,1664,0.367518385,1382,BOI,-,-,Please name all of the ways you could use this object. Keep in mind that one object can have many uses. Separate your responses with a comma.,NA,y,5276,NA,NA,1996,2837,NA,NA,NA,lashes,1
20305967AO,hgkx4ba76a,Affordance Norms_MSU_TEX,1,17,2022-10-31T18:05:45+00:00,4.381880999,47,updated stim.csv,Version47.csv,Version 47,List 47,longbow,NA,1401,5.285714286,1546,0.172928755,1402,BOI,-,-,Please name all of the ways you could use this object. Keep in mind that one object can have many uses. Separate your responses with a comma.,NA,y,4094,NA,NA,2403,3561,NA,NA,NA,archery,1
20305967AO,hgkx4ba76a,Affordance Norms_MSU_TEX,1,18,2022-10-31T18:06:05+00:00,19.944839,47,updated stim.csv,Version47.csv,Version 47,List 47,tortoise,NA,1402,4.541666667,2741,0.896019588,1403,BOI,-,-,Please name all of the ways you could use this object. Keep in mind that one object can have many uses. Separate your responses with a comma.,NA,y,19562,NA,NA,1543,18848,NA,NA,NA,"fancy name for turtle, slow, nature",1
20305967AO,hgkx4ba76a,Affordance Norms_MSU_TEX,1,19,2022-10-31T18:06:27+00:00,22.78298903,47,updated stim.csv,Version47.csv,Version 47,List 47,chest,NA,1403,5.851851852,513,0.740799147,1404,BOI,-,-,Please name all of the ways you could use this object. Keep in mind that one object can have many uses. Separate your responses with a comma.,NA,y,22371,NA,NA,1798,21914,NA,NA,NA,"thoracic, cavity, lungs, heart, major superior organs ",1
20305967AO,hgkx4ba76a,Affordance Norms_MSU_TEX,1,20,2022-10-31T18:06:33+00:00,5.444391012,47,updated stim.csv,Version47.csv,Version 47,List 47,axle,NA,1398,4.904761905,108,0.159786934,1399,BOI,-,-,Please name all of the ways you could use this object. Keep in mind that one object can have many uses. Separate your responses with a comma.,NA,y,5065,NA,NA,3157,4772,NA,NA,NA,axe,1
20305967AO,hgkx4ba76a,Affordance Norms_MSU_TEX,1,21,2022-10-31T18:06:50+00:00,17.1751709,47,updated stim.csv,Version47.csv,Version 47,List 47,sled,NA,1392,6.086956522,2406,0.940566266,1393,BOI,-,-,Please name all of the ways you could use this object. Keep in mind that one object can have many uses. Separate your responses with a comma.,NA,y,16733,NA,NA,1389,16475,NA,NA,NA,"snowing, sledding, winter vacation activity",1
20305967AO,hgkx4ba76a,Affordance Norms_MSU_TEX,1,22,2022-10-31T18:07:13+00:00,22.68944216,47,updated stim.csv,Version47.csv,Version 47,List 47,confetti,NA,1389,4.76,626,0.133315159,1390,BOI,-,-,Please name all of the ways you could use this object. Keep in mind that one object can have many uses. Separate your responses with a comma.,NA,y,22307,NA,NA,1448,21730,NA,NA,NA,"birthday, surprise parties, special occasions, various colors",1
20305967AO,hgkx4ba76a,Affordance Norms_MSU_TEX,1,23,2022-10-31T18:07:28+00:00,15.56164503,47,updated stim.csv,Version47.csv,Version 47,List 47,comb,NA,1387,5.923076923,606,0.836607902,1388,BOI,-,-,Please name all of the ways you could use this object. Keep in mind that one object can have many uses. Separate your responses with a comma.,NA,y,15149,NA,NA,1309,14850,NA,NA,NA,"hair, not for 4c hair, detangle, brush out",1
20305967AO,hgkx4ba76a,Affordance Norms_MSU_TEX,1,24,2022-10-31T18:07:34+00:00,5.429687023,47,updated stim.csv,Version47.csv,Version 47,List 47,harpsichord,NA,1386,4.904761905,1255,0.885561554,1387,BOI,-,-,Please name all of the ways you could use this object. Keep in mind that one object can have many uses. Separate your responses with a comma.,NA,y,5112,NA,NA,2608,4399,NA,NA,NA,huh,1
20305967AO,hgkx4ba76a,Affordance Norms_MSU_TEX,1,25,2022-10-31T18:07:46+00:00,11.90974593,47,updated stim.csv,Version47.csv,Version 47,List 47,newt,NA,1396,4.391304348,1765,0.685149421,1397,BOI,-,-,Please name all of the ways you could use this object. Keep in mind that one object can have many uses. Separate your responses with a comma.,NA,y,11524,NA,NA,2832,11203,NA,NA,NA,"physics, chemistry reference maybe",1
20305967AO,hgkx4ba76a,Affordance Norms_MSU_TEX,1,26,2022-10-31T18:08:18+00:00,32.47595501,47,updated stim.csv,Version47.csv,Version 47,List 47,radiologist,NA,1399,4.913043478,2123,0.268459121,1400,BOI,-,-,Please name all of the ways you could use this object. Keep in mind that one object can have many uses. Separate your responses with a comma.,NA,y,32058,NA,NA,7821,30537,NA,NA,NA,"x rays, specialist, health science technicians, important, diagnosis",1
20305967AO,hgkx4ba76a,Affordance Norms_MSU_TEX,1,27,2022-10-31T18:08:31+00:00,12.62443495,47,updated stim.csv,Version47.csv,Version 47,List 47,secretary,NA,1405,5.2,2305,0.924368647,1406,BOI,-,-,Please name all of the ways you could use this object. Keep in mind that one object can have many uses. Separate your responses with a comma.,NA,y,12106,NA,NA,1554,11920,NA,NA,NA,"assistant, record keeping, file organizers",1
20305967AO,hgkx4ba76a,Affordance Norms_MSU_TEX,1,28,2022-10-31T18:08:40+00:00,9.723644018,47,updated stim.csv,Version47.csv,Version 47,List 47,headrest,NA,1395,5.346153846,1271,0.297710821,1396,BOI,-,-,Please name all of the ways you could use this object. Keep in mind that one object can have many uses. Separate your responses with a comma.,NA,y,9311,NA,NA,2650,9163,NA,NA,NA,"sleep, pillow, shoulder massager",1
20305967AO,hgkx4ba76a,Affordance Norms_MSU_TEX,1,29,2022-10-31T18:09:07+00:00,26.2487669,47,updated stim.csv,Version47.csv,Version 47,List 47,newspaper,NA,1406,5.76,1760,0.182265176,1407,BOI,-,-,Please name all of the ways you could use this object. Keep in mind that one object can have many uses. Separate your responses with a comma.,NA,y,25842,NA,NA,2153,24952,NA,NA,NA,"to read back in the day, artwork material, not used anymore",1
20305967AO,hgkx4ba76a,Affordance Norms_MSU_TEX,1,30,2022-10-31T18:09:34+00:00,26.95025706,47,updated stim.csv,Version47.csv,Version 47,List 47,firstborn,NA,1394,4.518518519,988,0.444358474,1395,BOI,-,-,Please name all of the ways you could use this object. Keep in mind that one object can have many uses. Separate your responses with a comma.,NA,y,26526,NA,NA,1722,25999,NA,NA,NA,"special ones, caretakers, more stressed out emotionally, spoiled",1
20305967AO,hgkx4ba76a,Affordance Norms_MSU_TEX,1,31,2022-10-31T18:09:40+00:00,6.141211033,47,updated stim.csv,Version47.csv,Version 47,List 47,pot,NA,1383,6.16,2046,0.052592996,1384,BOI,-,-,Please name all of the ways you could use this object. Keep in mind that one object can have many uses. Separate your responses with a comma.,NA,y,5760,NA,NA,1708,4514,NA,NA,NA,"cooking, boiling",1
20305967AO,hgkx4ba76a,Affordance Norms_MSU_TEX,1,32,2022-10-31T18:10:02+00:00,21.86305189,47,updated stim.csv,Version47.csv,Version 47,List 47,kit,NA,1404,4.739130435,1424,0.351244605,1405,BOI,-,-,Please name all of the ways you could use this object. Keep in mind that one object can have many uses. Separate your responses with a comma.,NA,y,21437,NA,NA,2771,21086,NA,NA,NA,"various subjects, nails, crochet, surgical",1
20305967AO,hgkx4ba76a,Affordance Norms_MSU_TEX,1,33,2022-10-31T18:10:09+00:00,7.495275021,47,updated stim.csv,Version47.csv,Version 47,List 47,floorboard,NA,1397,5.791666667,1009,0.177991439,1398,BOI,-,-,Please name all of the ways you could use this object. Keep in mind that one object can have many uses. Separate your responses with a comma.,NA,y,7045,NA,NA,6510,6678,NA,NA,NA,..,1
20305967AO,hgkx4ba76a,Affordance Norms_MSU_TEX,1,34,2022-10-31T18:10:17+00:00,7.823925018,47,updated stim.csv,Version47.csv,Version 47,List 47,spear,NA,1382,5.208333333,2465,0.087926144,1383,BOI,-,-,Please name all of the ways you could use this object. Keep in mind that one object can have many uses. Separate your responses with a comma.,NA,y,7552,NA,NA,1787,7343,NA,NA,NA,"sharp, renaissance",1
20305967AO,hgkx4ba76a,Affordance Norms_MSU_TEX,1,35,2022-10-31T18:10:32+00:00,14.87058997,47,updated stim.csv,Version47.csv,Version 47,List 47,handkerchief,NA,1410,5.72,1238,0.781838357,1411,BOI,-,-,Please name all of the ways you could use this object. Keep in mind that one object can have many uses. Separate your responses with a comma.,NA,y,14503,NA,NA,2337,14245,NA,NA,NA,"allergies, on the go, very useful",1
20305967AO,hgkx4ba76a,Affordance Norms_MSU_TEX,1,36,2022-10-31T18:11:02+00:00,29.89991212,47,updated stim.csv,Version47.csv,Version 47,List 47,animal,NA,1407,5.958333333,41,0.056172512,1408,BOI,-,-,Please name all of the ways you could use this object. Keep in mind that one object can have many uses. Separate your responses with a comma.,NA,y,29485,NA,NA,1544,28869,NA,NA,NA,"ravenous, annoying, useful, carnivorous, sometimes okay",1
20305967AO,hgkx4ba76a,Affordance Norms_MSU_TEX,1,37,2022-10-31T18:11:15+00:00,13.1800561,47,updated stim.csv,Version47.csv,Version 47,List 47,pet,NA,1384,6.214285714,1932,0.252455217,1385,BOI,-,-,Please name all of the ways you could use this object. Keep in mind that one object can have many uses. Separate your responses with a comma.,NA,y,12775,NA,NA,1964,11736,NA,NA,NA,"annoying, various types",1
20305967AO,hgkx4ba76a,Affordance Norms_MSU_TEX,1,38,2022-10-31T18:11:17+00:00,2.512825966,47,updated stim.csv,Version47.csv,Version 47,List 47,loin,NA,1393,4.391304348,1543,0.390491244,1394,BOI,-,-,Please name all of the ways you could use this object. Keep in mind that one object can have many uses. Separate your responses with a comma.,NA,y,2215,NA,NA,1765,1912,NA,NA,NA,..,1
20305967AO,hgkx4ba76a,Affordance Norms_MSU_TEX,1,39,2022-10-31T18:11:38+00:00,20.51856899,47,updated stim.csv,Version47.csv,Version 47,List 47,comforter,NA,1409,6.16,607,0.457027903,1410,BOI,-,-,Please name all of the ways you could use this object. Keep in mind that one object can have many uses. Separate your responses with a comma.,NA,y,20123,NA,NA,3438,19236,NA,NA,NA,"sleep, comfortable, various colors, stylish",1
20305967AO,hgkx4ba76a,Affordance Norms_MSU_TEX,1,40,2022-10-31T18:11:47+00:00,9.102383852,47,updated stim.csv,Version47.csv,Version 47,List 47,stream,NA,1391,4.678571429,2562,0.675991491,1392,BOI,-,-,Please name all of the ways you could use this object. Keep in mind that one object can have many uses. Separate your responses with a comma.,NA,y,8727,NA,NA,1275,8474,NA,NA,NA,"water, river, type of ocean",1
20306722SG,qqnjzr3vcd,Affordance Norms_MSU_TEX,1,11,2022-11-17T04:07:15+00:00,48.60369992,6,updated stim.csv,Version6.csv,Version 6,List 6,blindfold,NA,167,5.125,237,0.416830365,168,BOI,-,-,Please name all of the ways you could use this object. Keep in mind that one object can have many uses. Separate your responses with a comma.,NA,y,48290,NA,NA,2340,46572,NA,NA,NA,"hiding, guessing, leading, playing a game , testing, trusting",1
20306722SG,qqnjzr3vcd,Affordance Norms_MSU_TEX,1,12,2022-11-17T04:08:03+00:00,48.38558102,6,updated stim.csv,Version6.csv,Version 6,List 6,footballer,NA,165,5.041666667,1031,0.824671402,166,BOI,-,-,Please name all of the ways you could use this object. Keep in mind that one object can have many uses. Separate your responses with a comma.,NA,y,48178,NA,NA,6378,42625,NA,NA,NA,"athlete, big, athletic, skilled, crafted, responsible, leadership, ",1
20306722SG,qqnjzr3vcd,Affordance Norms_MSU_TEX,1,13,2022-11-17T04:08:49+00:00,45.14967799,6,updated stim.csv,Version6.csv,Version 6,List 6,crystal,NA,170,4.37037037,720,0.826771226,171,BOI,-,-,Please name all of the ways you could use this object. Keep in mind that one object can have many uses. Separate your responses with a comma.,NA,y,44953,NA,NA,3464,39652,NA,NA,NA,"rock , witchcraft, jewelry, décor ",1
20306722SG,qqnjzr3vcd,Affordance Norms_MSU_TEX,1,14,2022-11-17T04:09:25+00:00,36.91723299,6,updated stim.csv,Version6.csv,Version 6,List 6,van,NA,163,6.28,2836,0.923120289,164,BOI,-,-,Please name all of the ways you could use this object. Keep in mind that one object can have many uses. Separate your responses with a comma.,NA,y,36703,NA,NA,1521,16798,NA,NA,NA,"kidnapping, travel, family , large capacity, ",1
20306722SG,qqnjzr3vcd,Affordance Norms_MSU_TEX,1,15,2022-11-17T04:09:37+00:00,11.29734707,6,updated stim.csv,Version6.csv,Version 6,List 6,parsnip,NA,159,5.666666667,1878,0.217047994,160,BOI,-,-,Please name all of the ways you could use this object. Keep in mind that one object can have many uses. Separate your responses with a comma.,NA,y,11122,NA,NA,8482,10128,NA,NA,NA,i dont know ,1
20306722SG,qqnjzr3vcd,Affordance Norms_MSU_TEX,1,16,2022-11-17T04:10:00+00:00,23.28101492,6,updated stim.csv,Version6.csv,Version 6,List 6,chinaware,NA,158,5.913043478,527,0.987997305,159,BOI,-,-,Please name all of the ways you could use this object. Keep in mind that one object can have many uses. Separate your responses with a comma.,NA,y,23104,NA,NA,2398,16339,NA,NA,NA,"decoration, eating , drinking, antique, plating ",1
20306722SG,qqnjzr3vcd,Affordance Norms_MSU_TEX,1,17,2022-11-17T04:10:05+00:00,4.753628969,6,updated stim.csv,Version6.csv,Version 6,List 6,pilaf,NA,157,4.7,1959,0.18002119,158,BOI,-,-,Please name all of the ways you could use this object. Keep in mind that one object can have many uses. Separate your responses with a comma.,NA,y,4585,NA,NA,1840,3958,NA,NA,NA,i dont know,1
20306722SG,qqnjzr3vcd,Affordance Norms_MSU_TEX,1,18,2022-11-17T04:11:12+00:00,67.45903802,6,updated stim.csv,Version6.csv,Version 6,List 6,tabasco,NA,173,5.260869565,2615,0.993494851,174,BOI,-,-,Please name all of the ways you could use this object. Keep in mind that one object can have many uses. Separate your responses with a comma.,NA,y,67190,NA,NA,5786,56798,NA,NA,NA,"seasoning, sauce, hot, spicy, ",1
20306722SG,qqnjzr3vcd,Affordance Norms_MSU_TEX,1,19,2022-11-17T04:11:51+00:00,38.76813602,6,updated stim.csv,Version6.csv,Version 6,List 6,bicep,NA,151,5.666666667,209,0.894670762,152,BOI,-,-,Please name all of the ways you could use this object. Keep in mind that one object can have many uses. Separate your responses with a comma.,NA,y,38567,NA,NA,1727,37026,NA,NA,NA,"strong, weights, muscle, grown, strengthened, arm, curls ",1
20306722SG,qqnjzr3vcd,Affordance Norms_MSU_TEX,1,20,2022-11-17T04:12:36+00:00,44.93218589,6,updated stim.csv,Version6.csv,Version 6,List 6,screw,NA,152,5.708333333,2286,0.354129595,153,BOI,-,-,Please name all of the ways you could use this object. Keep in mind that one object can have many uses. Separate your responses with a comma.,NA,y,44766,NA,NA,12853,43785,NA,NA,NA,"building, stabilize, nails, round, silver, driver",1
20306722SG,qqnjzr3vcd,Affordance Norms_MSU_TEX,1,21,2022-11-17T04:13:10+00:00,34.179003,6,updated stim.csv,Version6.csv,Version 6,List 6,wand,NA,169,5.08,2892,0.374452273,170,BOI,-,-,Please name all of the ways you could use this object. Keep in mind that one object can have many uses. Separate your responses with a comma.,NA,y,33874,NA,NA,4288,32169,NA,NA,NA,"witch, harry potter, wizard , magic",1
20306722SG,qqnjzr3vcd,Affordance Norms_MSU_TEX,1,22,2022-11-17T04:14:24+00:00,73.40293217,6,updated stim.csv,Version6.csv,Version 6,List 6,ginger,NA,178,5.32,1104,0.498173145,179,BOI,-,-,Please name all of the ways you could use this object. Keep in mind that one object can have many uses. Separate your responses with a comma.,NA,y,73098,NA,NA,3684,34273,NA,NA,NA,"cookie, hair color, Irish, ",1
20306722SG,qqnjzr3vcd,Affordance Norms_MSU_TEX,1,23,2022-11-17T04:15:23+00:00,59.64670491,6,updated stim.csv,Version6.csv,Version 6,List 6,scale,NA,175,5.652173913,2259,0.959918952,176,BOI,-,-,Please name all of the ways you could use this object. Keep in mind that one object can have many uses. Separate your responses with a comma.,NA,y,59394,NA,NA,2772,57894,NA,NA,NA,"weight, measure, grams, pounds, kilos, ",1
20306722SG,qqnjzr3vcd,Affordance Norms_MSU_TEX,1,24,2022-11-17T04:16:15+00:00,51.37815499,6,updated stim.csv,Version6.csv,Version 6,List 6,bathe,NA,156,5.214285714,168,0.590683649,157,BOI,-,-,Please name all of the ways you could use this object. Keep in mind that one object can have many uses. Separate your responses with a comma.,NA,y,51176,NA,NA,3675,40886,NA,NA,NA,"bathtub, shower, cleaning, wet, shampoo, soap, conditioner, steamy, hot , bubbles, candles, ",1
20306722SG,qqnjzr3vcd,Affordance Norms_MSU_TEX,1,25,2022-11-17T04:16:51+00:00,36.64026999,6,updated stim.csv,Version6.csv,Version 6,List 6,balcony,NA,176,4.739130435,127,0.967270436,177,BOI,-,-,Please name all of the ways you could use this object. Keep in mind that one object can have many uses. Separate your responses with a comma.,NA,y,36398,NA,NA,6291,21788,NA,NA,NA,"lights, view , city, high, ",1
20306722SG,qqnjzr3vcd,Affordance Norms_MSU_TEX,1,26,2022-11-17T04:18:02+00:00,71.05285692,6,updated stim.csv,Version6.csv,Version 6,List 6,whisky,NA,174,5.857142857,2931,0.820907003,175,BOI,-,-,Please name all of the ways you could use this object. Keep in mind that one object can have many uses. Separate your responses with a comma.,NA,y,70775,NA,NA,2007,67468,NA,NA,NA,"drink, alcohol , crown, brown , warm, Tennessee, ",1
20306722SG,qqnjzr3vcd,Affordance Norms_MSU_TEX,1,27,2022-11-17T04:18:45+00:00,42.7729702,6,updated stim.csv,Version6.csv,Version 6,List 6,tofu,NA,180,5.555555556,2717,0.437108817,181,BOI,-,-,Please name all of the ways you could use this object. Keep in mind that one object can have many uses. Separate your responses with a comma.,NA,y,42591,NA,NA,3469,41148,NA,NA,NA,"food, asian, fake meat, soybean, ",1
20306722SG,qqnjzr3vcd,Affordance Norms_MSU_TEX,1,28,2022-11-17T04:19:06+00:00,20.92395997,6,updated stim.csv,Version6.csv,Version 6,List 6,tinfoil,NA,155,5.458333333,2703,0.677843929,156,BOI,-,-,Please name all of the ways you could use this object. Keep in mind that one object can have many uses. Separate your responses with a comma.,NA,y,20717,NA,NA,3698,19233,NA,NA,NA,"cooking, covering, conductor , silver, ",1
20306722SG,qqnjzr3vcd,Affordance Norms_MSU_TEX,1,29,2022-11-17T04:19:18+00:00,11.91604686,6,updated stim.csv,Version6.csv,Version 6,List 6,canvass,NA,177,4.347826087,421,0.150190136,178,BOI,-,-,Please name all of the ways you could use this object. Keep in mind that one object can have many uses. Separate your responses with a comma.,NA,y,11749,NA,NA,1518,10762,NA,NA,NA,"painting, looking, education, website, ",1
20306722SG,qqnjzr3vcd,Affordance Norms_MSU_TEX,1,30,2022-11-17T04:19:44+00:00,26.06639719,6,updated stim.csv,Version6.csv,Version 6,List 6,bird,NA,171,4.896551724,220,0.733213397,172,BOI,-,-,Please name all of the ways you could use this object. Keep in mind that one object can have many uses. Separate your responses with a comma.,NA,y,25900,NA,NA,3843,25261,NA,NA,NA,"animal, fly, sky, eagle, wings, black",1
20306722SG,qqnjzr3vcd,Affordance Norms_MSU_TEX,1,31,2022-11-17T04:20:23+00:00,38.86239791,6,updated stim.csv,Version6.csv,Version 6,List 6,harvest,NA,168,4.464285714,1256,0.861077807,169,BOI,-,-,Please name all of the ways you could use this object. Keep in mind that one object can have many uses. Separate your responses with a comma.,NA,y,38664,NA,NA,14094,38053,NA,NA,NA,"thanksgiving, farming, collecting, pilgrims , accquiring",1
20306722SG,qqnjzr3vcd,Affordance Norms_MSU_TEX,1,32,2022-11-17T04:21:38+00:00,74.73559999,6,updated stim.csv,Version6.csv,Version 6,List 6,family,NA,153,5.291666667,944,0.967521962,154,BOI,-,-,Please name all of the ways you could use this object. Keep in mind that one object can have many uses. Separate your responses with a comma.,NA,y,74448,NA,NA,2875,20796,NA,NA,NA,"mom, dad, sister, brother, love, ",1
20306722SG,qqnjzr3vcd,Affordance Norms_MSU_TEX,1,33,2022-11-17T04:21:44+00:00,6.293109894,6,updated stim.csv,Version6.csv,Version 6,List 6,chronograph,NA,154,4.684210526,538,0.574977468,155,BOI,-,-,Please name all of the ways you could use this object. Keep in mind that one object can have many uses. Separate your responses with a comma.,NA,y,6071,NA,NA,2894,4464,NA,NA,NA,,1
20306722SG,qqnjzr3vcd,Affordance Norms_MSU_TEX,1,34,2022-11-17T04:22:11+00:00,27.69654322,6,updated stim.csv,Version6.csv,Version 6,List 6,berry,NA,179,5.523809524,205,0.969656849,180,BOI,-,-,Please name all of the ways you could use this object. Keep in mind that one object can have many uses. Separate your responses with a comma.,NA,y,27291,NA,NA,2033,26535,NA,NA,NA,"blue, fruit, black, straw, sweet , tart, ripe",1
20306722SG,qqnjzr3vcd,Affordance Norms_MSU_TEX,1,35,2022-11-17T04:22:14+00:00,2.193631887,6,updated stim.csv,Version6.csv,Version 6,List 6,negligee,NA,172,4.75,1749,0.715344787,173,BOI,-,-,Please name all of the ways you could use this object. Keep in mind that one object can have many uses. Separate your responses with a comma.,NA,y,1990,NA,NA,-1,-1,NA,NA,NA,,1
20306722SG,qqnjzr3vcd,Affordance Norms_MSU_TEX,1,36,2022-11-17T04:22:43+00:00,29.04447198,6,updated stim.csv,Version6.csv,Version 6,List 6,snowfall,NA,166,4.347826087,2433,0.405301502,167,BOI,-,-,Please name all of the ways you could use this object. Keep in mind that one object can have many uses. Separate your responses with a comma.,NA,y,28847,NA,NA,1634,25326,NA,NA,NA,"cold, Christmas, winter, snowflakes, snow globes, ",1
20306722SG,qqnjzr3vcd,Affordance Norms_MSU_TEX,1,37,2022-11-17T04:23:07+00:00,24.62845492,6,updated stim.csv,Version6.csv,Version 6,List 6,physician,NA,161,5.12,1945,0.324749543,162,BOI,-,-,Please name all of the ways you could use this object. Keep in mind that one object can have many uses. Separate your responses with a comma.,NA,y,24446,NA,NA,5870,24092,NA,NA,NA,"doctor, pills, help ,medicine, educated",1
20306722SG,qqnjzr3vcd,Affordance Norms_MSU_TEX,1,38,2022-11-17T04:23:26+00:00,19.0920012,6,updated stim.csv,Version6.csv,Version 6,List 6,desert,NA,160,4.291666667,779,0.522113996,161,BOI,-,-,Please name all of the ways you could use this object. Keep in mind that one object can have many uses. Separate your responses with a comma.,NA,y,18751,NA,NA,3404,17664,NA,NA,NA,"hot, sand , brown, land, ",1
20306722SG,qqnjzr3vcd,Affordance Norms_MSU_TEX,1,39,2022-11-17T04:23:46+00:00,20.01511383,6,updated stim.csv,Version6.csv,Version 6,List 6,ticket,NA,164,5.333333333,2692,0.82890071,165,BOI,-,-,Please name all of the ways you could use this object. Keep in mind that one object can have many uses. Separate your responses with a comma.,NA,y,19820,NA,NA,4234,19035,NA,NA,NA,"speeding, parking, fine, money, police, ",1
20306722SG,qqnjzr3vcd,Affordance Norms_MSU_TEX,1,40,2022-11-17T04:24:41+00:00,54.84037709,6,updated stim.csv,Version6.csv,Version 6,List 6,myself,NA,162,5.038461538,1731,0.310058292,163,BOI,-,-,Please name all of the ways you could use this object. Keep in mind that one object can have many uses. Separate your responses with a comma.,NA,y,54635,NA,NA,17166,53784,NA,NA,NA,"female, athletic, tall, active, livley",1
20310228LF,rvwcqcdkmc,Affordance Norms_MSU_TEX,1,11,2022-11-04T00:42:27+00:00,25.04985285,54,updated stim.csv,Version54.csv,Version 54,List 54,ferryboat,NA,1593,5.083333333,966,0.878250354,1594,BOI,-,-,Please name all of the ways you could use this object. Keep in mind that one object can have many uses. Separate your responses with a comma.,NA,y,24415,NA,NA,4246,23076,NA,NA,NA,"travel, tour, live, transport",1
20310228LF,rvwcqcdkmc,Affordance Norms_MSU_TEX,1,12,2022-11-04T00:42:43+00:00,15.28393412,54,updated stim.csv,Version54.csv,Version 54,List 54,headboard,NA,1610,5.52,1264,0.205745741,1611,BOI,-,-,Please name all of the ways you could use this object. Keep in mind that one object can have many uses. Separate your responses with a comma.,NA,y,14765,NA,NA,7338,11584,NA,NA,NA,"bed, decoration",1
20310228LF,rvwcqcdkmc,Affordance Norms_MSU_TEX,1,13,2022-11-04T00:43:06+00:00,22.94220495,54,updated stim.csv,Version54.csv,Version 54,List 54,crayfish,NA,1592,5.043478261,686,0.454474041,1593,BOI,-,-,Please name all of the ways you could use this object. Keep in mind that one object can have many uses. Separate your responses with a comma.,NA,y,22440,NA,NA,2059,21850,NA,NA,NA,"eaten, boiled, bait, cracked",1
20310228LF,rvwcqcdkmc,Affordance Norms_MSU_TEX,1,14,2022-11-04T00:43:54+00:00,47.99253011,54,updated stim.csv,Version54.csv,Version 54,List 54,cranberry,NA,1620,5.458333333,680,0.758890427,1621,BOI,-,-,Please name all of the ways you could use this object. Keep in mind that one object can have many uses. Separate your responses with a comma.,NA,y,47553,NA,NA,3352,35988,NA,NA,NA,"eaten, smashed, sauce, decorate ",1
20310228LF,rvwcqcdkmc,Affordance Norms_MSU_TEX,1,15,2022-11-04T00:44:14+00:00,19.94307399,54,updated stim.csv,Version54.csv,Version 54,List 54,videotape,NA,1614,5.44,2856,0.6316487,1615,BOI,-,-,Please name all of the ways you could use this object. Keep in mind that one object can have many uses. Separate your responses with a comma.,NA,y,19295,NA,NA,2979,15174,NA,NA,NA,"watch, decoration, preservation ",1
20310228LF,rvwcqcdkmc,Affordance Norms_MSU_TEX,1,16,2022-11-04T00:44:50+00:00,36.88498878,54,updated stim.csv,Version54.csv,Version 54,List 54,flamethrower,NA,1611,4.740740741,997,0.186199098,1612,BOI,-,-,Please name all of the ways you could use this object. Keep in mind that one object can have many uses. Separate your responses with a comma.,NA,y,36219,NA,NA,5708,34802,NA,NA,NA,"cook, performance, protection",1
20310228LF,rvwcqcdkmc,Affordance Norms_MSU_TEX,1,17,2022-11-04T00:45:20+00:00,29.90810609,54,updated stim.csv,Version54.csv,Version 54,List 54,coffeepot,NA,1612,6.037037037,593,0.595834936,1613,BOI,-,-,Please name all of the ways you could use this object. Keep in mind that one object can have many uses. Separate your responses with a comma.,NA,y,29297,NA,NA,6433,18161,NA,NA,NA,"hold liquid, decoration, vase",1
20310228LF,rvwcqcdkmc,Affordance Norms_MSU_TEX,1,18,2022-11-04T00:45:31+00:00,10.84463906,54,updated stim.csv,Version54.csv,Version 54,List 54,windbreaker,NA,1599,5.307692308,2941,0.312548974,1600,BOI,-,-,Please name all of the ways you could use this object. Keep in mind that one object can have many uses. Separate your responses with a comma.,NA,y,10320,NA,NA,3025,4339,NA,NA,NA,worn,1
20310228LF,rvwcqcdkmc,Affordance Norms_MSU_TEX,1,19,2022-11-04T00:45:50+00:00,18.79932904,54,updated stim.csv,Version54.csv,Version 54,List 54,groceries,NA,1597,5.962962963,1178,0.093073414,1598,BOI,-,-,Please name all of the ways you could use this object. Keep in mind that one object can have many uses. Separate your responses with a comma.,NA,y,18391,NA,NA,2638,16858,NA,NA,NA,"eaten, decoration, cleaning",1
20310228LF,rvwcqcdkmc,Affordance Norms_MSU_TEX,1,20,2022-11-04T00:46:22+00:00,31.98112702,54,updated stim.csv,Version54.csv,Version 54,List 54,plug,NA,1608,5.875,2009,0.704230717,1609,BOI,-,-,Please name all of the ways you could use this object. Keep in mind that one object can have many uses. Separate your responses with a comma.,NA,y,31381,NA,NA,18683,28508,NA,NA,NA,"electricity, drugs ",1
20310228LF,rvwcqcdkmc,Affordance Norms_MSU_TEX,1,21,2022-11-04T00:46:32+00:00,10.10988998,54,updated stim.csv,Version54.csv,Version 54,List 54,chin,NA,1616,5.884615385,526,0.713025997,1617,BOI,-,-,Please name all of the ways you could use this object. Keep in mind that one object can have many uses. Separate your responses with a comma.,NA,y,9679,NA,NA,-1,-1,NA,NA,NA,,1
20310228LF,rvwcqcdkmc,Affordance Norms_MSU_TEX,1,22,2022-11-04T00:46:44+00:00,12.27709579,54,updated stim.csv,Version54.csv,Version 54,List 54,handball,NA,1607,5.75,1230,0.476292682,1608,BOI,-,-,Please name all of the ways you could use this object. Keep in mind that one object can have many uses. Separate your responses with a comma.,NA,y,11501,NA,NA,3460,9125,NA,NA,NA,"thrown, kicked ",1
20310228LF,rvwcqcdkmc,Affordance Norms_MSU_TEX,1,23,2022-11-04T00:46:56+00:00,11.57622218,54,updated stim.csv,Version54.csv,Version 54,List 54,tapestry,NA,1613,4.565217391,2633,0.868663703,1614,BOI,-,-,Please name all of the ways you could use this object. Keep in mind that one object can have many uses. Separate your responses with a comma.,NA,y,10917,NA,NA,1937,10266,NA,NA,NA,"hung, decoration, clothes ",1
20310228LF,rvwcqcdkmc,Affordance Norms_MSU_TEX,1,24,2022-11-04T00:47:06+00:00,10.41085982,54,updated stim.csv,Version54.csv,Version 54,List 54,counselor,NA,1600,4.375,665,0.268198373,1601,BOI,-,-,Please name all of the ways you could use this object. Keep in mind that one object can have many uses. Separate your responses with a comma.,NA,y,8581,NA,NA,2346,7173,NA,NA,NA,talked to,1
20310228LF,rvwcqcdkmc,Affordance Norms_MSU_TEX,1,25,2022-11-04T00:47:17+00:00,10.84017301,54,updated stim.csv,Version54.csv,Version 54,List 54,pecan,NA,1595,5.5,1899,0.936287182,1596,BOI,-,-,Please name all of the ways you could use this object. Keep in mind that one object can have many uses. Separate your responses with a comma.,NA,y,10106,NA,NA,2559,8676,NA,NA,NA,"cooking, eaten",1
20310228LF,rvwcqcdkmc,Affordance Norms_MSU_TEX,1,26,2022-11-04T00:47:28+00:00,10.4855082,54,updated stim.csv,Version54.csv,Version 54,List 54,mushroom,NA,1591,5.333333333,1723,0.888848456,1592,BOI,-,-,Please name all of the ways you could use this object. Keep in mind that one object can have many uses. Separate your responses with a comma.,NA,y,9813,NA,NA,1623,8990,NA,NA,NA,"cooked, eaten, planted",1
20310228LF,rvwcqcdkmc,Affordance Norms_MSU_TEX,1,27,2022-11-04T00:47:34+00:00,6.524770975,54,updated stim.csv,Version54.csv,Version 54,List 54,hatband,NA,1606,5.16,1259,0.067188942,1607,BOI,-,-,Please name all of the ways you could use this object. Keep in mind that one object can have many uses. Separate your responses with a comma.,NA,y,6057,NA,NA,-1,-1,NA,NA,NA,,1
20310228LF,rvwcqcdkmc,Affordance Norms_MSU_TEX,1,28,2022-11-04T00:47:57+00:00,22.70473385,54,updated stim.csv,Version54.csv,Version 54,List 54,hammer,NA,1617,6.173913043,1223,0.62684215,1618,BOI,-,-,Please name all of the ways you could use this object. Keep in mind that one object can have many uses. Separate your responses with a comma.,NA,y,21773,NA,NA,5912,20741,NA,NA,NA,"thrown, hit, decoration, smash, break",1
20310228LF,rvwcqcdkmc,Affordance Norms_MSU_TEX,1,29,2022-11-04T00:48:12+00:00,15.64273214,54,updated stim.csv,Version54.csv,Version 54,List 54,stencil,NA,1609,5.583333333,2520,0.627211944,1610,BOI,-,-,Please name all of the ways you could use this object. Keep in mind that one object can have many uses. Separate your responses with a comma.,NA,y,15087,NA,NA,3795,5031,NA,NA,NA,color,1
20310228LF,rvwcqcdkmc,Affordance Norms_MSU_TEX,1,30,2022-11-04T00:48:30+00:00,17.4365449,54,updated stim.csv,Version54.csv,Version 54,List 54,eyeglass,NA,1598,5.958333333,933,0.128080485,1599,BOI,-,-,Please name all of the ways you could use this object. Keep in mind that one object can have many uses. Separate your responses with a comma.,NA,y,17037,NA,NA,5219,16153,NA,NA,NA,"look through, decoration",1
20310228LF,rvwcqcdkmc,Affordance Norms_MSU_TEX,1,31,2022-11-04T00:48:40+00:00,9.754137993,54,updated stim.csv,Version54.csv,Version 54,List 54,icebox,NA,1596,5.181818182,1346,0.025832028,1597,BOI,-,-,Please name all of the ways you could use this object. Keep in mind that one object can have many uses. Separate your responses with a comma.,NA,y,9090,NA,NA,3717,8579,NA,NA,NA,keep things cool,1
20310228LF,rvwcqcdkmc,Affordance Norms_MSU_TEX,1,32,2022-11-04T00:48:45+00:00,5.466148138,54,updated stim.csv,Version54.csv,Version 54,List 54,trophy,NA,1601,4.916666667,2782,0.370841221,1602,BOI,-,-,Please name all of the ways you could use this object. Keep in mind that one object can have many uses. Separate your responses with a comma.,NA,y,4450,NA,NA,1841,3681,NA,NA,NA,displayed,1
20310228LF,rvwcqcdkmc,Affordance Norms_MSU_TEX,1,33,2022-11-04T00:49:13+00:00,27.35476685,54,updated stim.csv,Version54.csv,Version 54,List 54,diamond,NA,1618,5.304347826,786,0.89343913,1619,BOI,-,-,Please name all of the ways you could use this object. Keep in mind that one object can have many uses. Separate your responses with a comma.,NA,y,26560,NA,NA,2222,26120,NA,NA,NA,"ring, cutting, jewelry, decoration, money ",1
20310228LF,rvwcqcdkmc,Affordance Norms_MSU_TEX,1,34,2022-11-04T00:49:17+00:00,4.612622976,54,updated stim.csv,Version54.csv,Version 54,List 54,ankle,NA,1619,5.833333333,42,0.214274939,1620,BOI,-,-,Please name all of the ways you could use this object. Keep in mind that one object can have many uses. Separate your responses with a comma.,NA,y,4147,NA,NA,2581,3585,NA,NA,NA,walking,1
20310228LF,rvwcqcdkmc,Affordance Norms_MSU_TEX,1,35,2022-11-04T00:49:36+00:00,18.40771103,54,updated stim.csv,Version54.csv,Version 54,List 54,dad,NA,1594,5.416666667,744,0.655497897,1595,BOI,-,-,Please name all of the ways you could use this object. Keep in mind that one object can have many uses. Separate your responses with a comma.,NA,y,17860,NA,NA,5809,17600,NA,NA,NA,"talking to, money, love, affection",1
20310228LF,rvwcqcdkmc,Affordance Norms_MSU_TEX,1,36,2022-11-04T00:49:43+00:00,7.241661072,54,updated stim.csv,Version54.csv,Version 54,List 54,receptacle,NA,1602,4.863636364,2145,0.045534544,1603,BOI,-,-,Please name all of the ways you could use this object. Keep in mind that one object can have many uses. Separate your responses with a comma.,NA,y,6767,NA,NA,3212,6592,NA,NA,NA,holind thing,1
20310228LF,rvwcqcdkmc,Affordance Norms_MSU_TEX,1,37,2022-11-04T00:49:50+00:00,7.433836937,54,updated stim.csv,Version54.csv,Version 54,List 54,kiln,NA,1605,4.304347826,1417,0.793820961,1606,BOI,-,-,Please name all of the ways you could use this object. Keep in mind that one object can have many uses. Separate your responses with a comma.,NA,y,7001,NA,NA,4454,6537,NA,NA,NA,making pottery ,1
20310228LF,rvwcqcdkmc,Affordance Norms_MSU_TEX,1,38,2022-11-04T00:50:09+00:00,18.7592721,54,updated stim.csv,Version54.csv,Version 54,List 54,lilly,NA,1615,4.590909091,1509,0.699355847,1616,BOI,-,-,Please name all of the ways you could use this object. Keep in mind that one object can have many uses. Separate your responses with a comma.,NA,y,17684,NA,NA,6618,17078,NA,NA,NA,"planted, display, pigment ",1
20310228LF,rvwcqcdkmc,Affordance Norms_MSU_TEX,1,39,2022-11-04T00:50:22+00:00,13.00424194,54,updated stim.csv,Version54.csv,Version 54,List 54,thermostat,NA,1604,5.074074074,2678,0.31070626,1605,BOI,-,-,Please name all of the ways you could use this object. Keep in mind that one object can have many uses. Separate your responses with a comma.,NA,y,12343,NA,NA,5625,9515,NA,NA,NA,change temperature ,1
20310228LF,rvwcqcdkmc,Affordance Norms_MSU_TEX,1,40,2022-11-04T00:50:29+00:00,7.035903931,54,updated stim.csv,Version54.csv,Version 54,List 54,den,NA,1603,4.333333333,772,0.182711284,1604,BOI,-,-,Please name all of the ways you could use this object. Keep in mind that one object can have many uses. Separate your responses with a comma.,NA,y,6501,NA,NA,4616,5668,NA,NA,NA,gathering,1
20311420MP,m11przyh16,Affordance Norms_MSU_TEX,1,11,2022-11-15T00:06:42+00:00,44.06413102,89,updated stim.csv,Version89.csv,Version 89,List 89,hamburger,NA,2660,6.148148148,1222,0.48776635,2661,BOI,-,-,Please name all of the ways you could use this object. Keep in mind that one object can have many uses. Separate your responses with a comma.,NA,y,43685,NA,NA,2259,42634,NA,NA,NA,"to eat, to serve, cook it, test it, taste it, look at it, smell it, use it was bait, take it apart, put it together ",1
20311420MP,m11przyh16,Affordance Norms_MSU_TEX,1,12,2022-11-15T00:07:36+00:00,53.93149805,89,updated stim.csv,Version89.csv,Version 89,List 89,dwarf,NA,2666,4.333333333,871,0.117156022,2667,BOI,-,-,Please name all of the ways you could use this object. Keep in mind that one object can have many uses. Separate your responses with a comma.,NA,y,53498,NA,NA,27222,51586,NA,NA,NA,"in a movie, wrestling, in a story, ",1
20311420MP,m11przyh16,Affordance Norms_MSU_TEX,1,13,2022-11-15T00:08:28+00:00,52.41134787,89,updated stim.csv,Version89.csv,Version 89,List 89,icepick,NA,2657,5.416666667,1347,0.619650655,2658,BOI,-,-,Please name all of the ways you could use this object. Keep in mind that one object can have many uses. Separate your responses with a comma.,NA,y,52039,NA,NA,2197,37866,NA,NA,NA,"to pick ice, to hurt someone, to get out of somewhere, to defend yourself, ",1
20311420MP,m11przyh16,Affordance Norms_MSU_TEX,1,14,2022-11-15T00:09:03+00:00,35.08445311,89,updated stim.csv,Version89.csv,Version 89,List 89,trash,NA,2663,5.136363636,2764,0.824491911,2664,BOI,-,-,Please name all of the ways you could use this object. Keep in mind that one object can have many uses. Separate your responses with a comma.,NA,y,34650,NA,NA,2707,14914,NA,NA,NA,"throw away, collect, recycle, ",1
20311420MP,m11przyh16,Affordance Norms_MSU_TEX,1,15,2022-11-15T00:09:58+00:00,54.6148169,89,updated stim.csv,Version89.csv,Version 89,List 89,brooch,NA,2664,5.130434783,331,0.778970626,2665,BOI,-,-,Please name all of the ways you could use this object. Keep in mind that one object can have many uses. Separate your responses with a comma.,NA,y,54200,NA,NA,35526,53223,NA,NA,NA,"to wear, collect, pass on, sell, make, pin ",0.863
20311420MP,m11przyh16,Affordance Norms_MSU_TEX,1,16,2022-11-15T00:10:24+00:00,25.91170406,89,updated stim.csv,Version89.csv,Version 89,List 89,band,NA,2643,4.384615385,137,0.320058041,2644,BOI,-,-,Please name all of the ways you could use this object. Keep in mind that one object can have many uses. Separate your responses with a comma.,NA,y,25461,NA,NA,4556,18806,NA,NA,NA,"listen, preform, watch, make music",1
20311420MP,m11przyh16,Affordance Norms_MSU_TEX,1,17,2022-11-15T00:10:49+00:00,25.3921299,89,updated stim.csv,Version89.csv,Version 89,List 89,lace,NA,2641,4.869565217,1445,0.627616705,2642,BOI,-,-,Please name all of the ways you could use this object. Keep in mind that one object can have many uses. Separate your responses with a comma.,NA,y,25000,NA,NA,2979,21138,NA,NA,NA,"to tie your shoe, to make clothes, to make decor",1
20311420MP,m11przyh16,Affordance Norms_MSU_TEX,1,18,2022-11-15T00:11:25+00:00,36.22013402,89,updated stim.csv,Version89.csv,Version 89,List 89,lick,NA,2644,4.652173913,1502,0.157624694,2645,BOI,-,-,Please name all of the ways you could use this object. Keep in mind that one object can have many uses. Separate your responses with a comma.,NA,y,35824,NA,NA,7248,29372,NA,NA,NA,"eat, taste, ice cream",1
20311420MP,m11przyh16,Affordance Norms_MSU_TEX,1,19,2022-11-15T00:12:02+00:00,36.47554708,89,updated stim.csv,Version89.csv,Version 89,List 89,crackers,NA,2667,5.913043478,677,0.103099472,2668,BOI,-,-,Please name all of the ways you could use this object. Keep in mind that one object can have many uses. Separate your responses with a comma.,NA,y,36031,NA,NA,5712,34905,NA,NA,NA,"dip, tuna, cheese, meat, salad, give away, peanut butter ",1
20311420MP,m11przyh16,Affordance Norms_MSU_TEX,1,20,2022-11-15T00:12:22+00:00,20.44604993,89,updated stim.csv,Version89.csv,Version 89,List 89,mum,NA,2646,4.416666667,1719,0.704204495,2647,BOI,-,-,Please name all of the ways you could use this object. Keep in mind that one object can have many uses. Separate your responses with a comma.,NA,y,20062,NA,NA,2729,19036,NA,NA,NA,"homecoming, in a library, as decoration",1
20311420MP,m11przyh16,Affordance Norms_MSU_TEX,1,21,2022-11-15T00:12:50+00:00,27.88224816,89,updated stim.csv,Version89.csv,Version 89,List 89,cupboard,NA,2661,5.782608696,727,0.324024312,2662,BOI,-,-,Please name all of the ways you could use this object. Keep in mind that one object can have many uses. Separate your responses with a comma.,NA,y,27385,NA,NA,5211,17213,NA,NA,NA,"cups, plates, bowls, food, cans",1
20311420MP,m11przyh16,Affordance Norms_MSU_TEX,1,22,2022-11-15T00:13:13+00:00,23.05300498,89,updated stim.csv,Version89.csv,Version 89,List 89,banister,NA,2651,5.130434783,140,0.506891939,2652,BOI,-,-,Please name all of the ways you could use this object. Keep in mind that one object can have many uses. Separate your responses with a comma.,NA,y,22648,NA,NA,2014,21317,NA,NA,NA,"to advertise, school, decoration, spirit weeks",1
20311420MP,m11przyh16,Affordance Norms_MSU_TEX,1,23,2022-11-15T00:13:36+00:00,22.51172996,89,updated stim.csv,Version89.csv,Version 89,List 89,guestroom,NA,2642,4.538461538,1190,0.361886166,2643,BOI,-,-,Please name all of the ways you could use this object. Keep in mind that one object can have many uses. Separate your responses with a comma.,NA,y,22065,NA,NA,2969,18158,NA,NA,NA,"guests, sleep, extra storage, bed and breakfasts ",1
20311420MP,m11przyh16,Affordance Norms_MSU_TEX,1,24,2022-11-15T00:14:43+00:00,67.48169899,89,updated stim.csv,Version89.csv,Version 89,List 89,husband,NA,2662,6.041666667,1338,0.500019135,2663,BOI,-,-,Please name all of the ways you could use this object. Keep in mind that one object can have many uses. Separate your responses with a comma.,NA,y,67094,NA,NA,6723,66083,NA,NA,NA,"kids, fix stuff, cook, clean, take car of kids, go on dates, to celebrate with, rings ",1
20311420MP,m11przyh16,Affordance Norms_MSU_TEX,1,25,2022-11-15T00:15:14+00:00,30.73139191,89,updated stim.csv,Version89.csv,Version 89,List 89,entree,NA,2645,5.28,912,0.254776783,2646,BOI,-,-,Please name all of the ways you could use this object. Keep in mind that one object can have many uses. Separate your responses with a comma.,NA,y,30165,NA,NA,2031,29112,NA,NA,NA,"to eat, take a picture of, serve, share, cook, order, give it away, pay",1
20311420MP,m11przyh16,Affordance Norms_MSU_TEX,1,26,2022-11-15T00:16:14+00:00,60.17407918,89,updated stim.csv,Version89.csv,Version 89,List 89,garb,NA,2653,4.541666667,1074,0.214589886,2654,BOI,-,-,Please name all of the ways you could use this object. Keep in mind that one object can have many uses. Separate your responses with a comma.,NA,y,59789,NA,NA,33325,52074,NA,NA,NA,"wear, sell, share, make, pass down, give away, ",0.965
20311420MP,m11przyh16,Affordance Norms_MSU_TEX,1,27,2022-11-15T00:16:41+00:00,26.80279803,89,updated stim.csv,Version89.csv,Version 89,List 89,bathtub,NA,2650,6.565217391,170,0.48897818,2651,BOI,-,-,Please name all of the ways you could use this object. Keep in mind that one object can have many uses. Separate your responses with a comma.,NA,y,26356,NA,NA,2113,24682,NA,NA,NA,"take a shower, bathe, relax, wash hair, wash body, shave ",1
20311420MP,m11przyh16,Affordance Norms_MSU_TEX,1,28,2022-11-15T00:17:04+00:00,23.23240185,89,updated stim.csv,Version89.csv,Version 89,List 89,rocker,NA,2656,5.04,2184,0.968839811,2657,BOI,-,-,Please name all of the ways you could use this object. Keep in mind that one object can have many uses. Separate your responses with a comma.,NA,y,22748,NA,NA,2244,21346,NA,NA,NA,"baby, old person, a chair, shoes, toys, games, foot rests, ",1
20311420MP,m11przyh16,Affordance Norms_MSU_TEX,1,29,2022-11-15T00:17:42+00:00,38.39490914,89,updated stim.csv,Version89.csv,Version 89,List 89,barkeep,NA,2670,4.260869565,148,0.310357294,2671,BOI,-,-,Please name all of the ways you could use this object. Keep in mind that one object can have many uses. Separate your responses with a comma.,NA,y,37988,NA,NA,12279,36729,NA,NA,NA,"order, make drinks with, learn from, get drinks from, yell at, laugh with, cry with ",0.969
20311420MP,m11przyh16,Affordance Norms_MSU_TEX,1,30,2022-11-15T00:18:10+00:00,27.83663678,89,updated stim.csv,Version89.csv,Version 89,List 89,congresswoman,NA,2648,4.32,627,0.309120151,2649,BOI,-,-,Please name all of the ways you could use this object. Keep in mind that one object can have many uses. Separate your responses with a comma.,NA,y,27400,NA,NA,2620,26136,NA,NA,NA,"support, promote, campaign, meet, watch them, vote for them",1
20311420MP,m11przyh16,Affordance Norms_MSU_TEX,1,31,2022-11-15T00:18:50+00:00,39.4658041,89,updated stim.csv,Version89.csv,Version 89,List 89,needles,NA,2659,5.416666667,1747,0.410145567,2660,BOI,-,-,Please name all of the ways you could use this object. Keep in mind that one object can have many uses. Separate your responses with a comma.,NA,y,39081,NA,NA,4253,35617,NA,NA,NA,"shots, tattoos, piercings, drugs, medicines, therapy",1
20311420MP,m11przyh16,Affordance Norms_MSU_TEX,1,32,2022-11-15T00:19:26+00:00,35.91908097,89,updated stim.csv,Version89.csv,Version 89,List 89,radio,NA,2647,5.291666667,2122,0.897583079,2648,BOI,-,-,Please name all of the ways you could use this object. Keep in mind that one object can have many uses. Separate your responses with a comma.,NA,y,35478,NA,NA,2020,30385,NA,NA,NA,"listen to, party with, hear news from, sing with, serenade, ",1
20311420MP,m11przyh16,Affordance Norms_MSU_TEX,1,33,2022-11-15T00:19:39+00:00,13.41056013,89,updated stim.csv,Version89.csv,Version 89,List 89,croquette,NA,2669,4.681818182,702,0.945016361,2670,BOI,-,-,Please name all of the ways you could use this object. Keep in mind that one object can have many uses. Separate your responses with a comma.,NA,y,13023,NA,NA,3365,12016,NA,NA,NA,"play it, watch it, support it",1
20311420MP,m11przyh16,Affordance Norms_MSU_TEX,1,34,2022-11-15T00:20:06+00:00,26.85463285,89,updated stim.csv,Version89.csv,Version 89,List 89,plaintiff,NA,2654,4.375,1985,0.803622684,2655,BOI,-,-,Please name all of the ways you could use this object. Keep in mind that one object can have many uses. Separate your responses with a comma.,NA,y,26458,NA,NA,13727,24984,NA,NA,NA,"talk to, side with, help them",0.963
20311420MP,m11przyh16,Affordance Norms_MSU_TEX,1,35,2022-11-15T00:20:29+00:00,23.01492,89,updated stim.csv,Version89.csv,Version 89,List 89,waitress,NA,2649,4.826086957,2884,0.178678826,2650,BOI,-,-,Please name all of the ways you could use this object. Keep in mind that one object can have many uses. Separate your responses with a comma.,NA,y,22613,NA,NA,2006,21446,NA,NA,NA,"order from, get food from, talk to, learn from, pay, tip",1
20311420MP,m11przyh16,Affordance Norms_MSU_TEX,1,36,2022-11-15T00:20:53+00:00,23.6112361,89,updated stim.csv,Version89.csv,Version 89,List 89,hat,NA,2652,6.44,1258,0.995555698,2653,BOI,-,-,Please name all of the ways you could use this object. Keep in mind that one object can have many uses. Separate your responses with a comma.,NA,y,23203,NA,NA,1471,21768,NA,NA,NA,"wear it, sell it, make it, for the cold, when its sunny ",1
20311420MP,m11przyh16,Affordance Norms_MSU_TEX,1,37,2022-11-15T00:21:12+00:00,19.86793089,89,updated stim.csv,Version89.csv,Version 89,List 89,catwalk,NA,2665,4.652173913,464,0.140628779,2666,BOI,-,-,Please name all of the ways you could use this object. Keep in mind that one object can have many uses. Separate your responses with a comma.,NA,y,19467,NA,NA,2469,18713,NA,NA,NA,"fashion show, play, dancing, walking",1
20311420MP,m11przyh16,Affordance Norms_MSU_TEX,1,38,2022-11-15T00:21:42+00:00,29.16575599,89,updated stim.csv,Version89.csv,Version 89,List 89,jar,NA,2655,6.208333333,1373,0.13576901,2656,BOI,-,-,Please name all of the ways you could use this object. Keep in mind that one object can have many uses. Separate your responses with a comma.,NA,y,28775,NA,NA,2027,21675,NA,NA,NA,"jam, peanut butter, salsa, pickles, olives, ",1
20311420MP,m11przyh16,Affordance Norms_MSU_TEX,1,39,2022-11-15T00:22:23+00:00,40.98616004,89,updated stim.csv,Version89.csv,Version 89,List 89,rail,NA,2658,5.517241379,2127,0.025104214,2659,BOI,-,-,Please name all of the ways you could use this object. Keep in mind that one object can have many uses. Separate your responses with a comma.,NA,y,40594,NA,NA,2644,39209,NA,NA,NA,"trains, ledges, concerts, roller coasters, stairs, bathrooms ",1
20311420MP,m11przyh16,Affordance Norms_MSU_TEX,1,40,2022-11-15T00:22:30+00:00,7.50924015,89,updated stim.csv,Version89.csv,Version 89,List 89,picnicker,NA,2668,4.458333333,1951,0.609841409,2669,BOI,-,-,Please name all of the ways you could use this object. Keep in mind that one object can have many uses. Separate your responses with a comma.,NA,y,7115,NA,NA,3255,6014,NA,NA,NA,to eat with,1
20313402,m4i6p2fd76,Affordance Norms_MSU_TEX,1,11,2022-11-28T21:33:38+00:00,8.660799026,49,updated stim.csv,Version49.csv,Version 49,List 49,Leaf,NA,1450,5.584345479,1477,0.074225536,1451,BOI,-,-,Please name all of the ways you could use this object. Keep in mind that one object can have many uses. Separate your responses with a comma.,NA,y,8128,NA,NA,7610,7946,NA,NA,NA,tea,1
20313402,m4i6p2fd76,Affordance Norms_MSU_TEX,1,12,2022-11-28T21:33:46+00:00,8.075178146,49,updated stim.csv,Version49.csv,Version 49,List 49,washstand,NA,1446,4.652173913,2902,0.326825996,1447,BOI,-,-,Please name all of the ways you could use this object. Keep in mind that one object can have many uses. Separate your responses with a comma.,NA,y,7286,NA,NA,3804,7173,NA,NA,NA,washing hands,1
20313402,m4i6p2fd76,Affordance Norms_MSU_TEX,1,13,2022-11-28T21:33:51+00:00,5.226996899,49,updated stim.csv,Version49.csv,Version 49,List 49,sweetener,NA,1449,5.2,2606,0.105558644,1450,BOI,-,-,Please name all of the ways you could use this object. Keep in mind that one object can have many uses. Separate your responses with a comma.,NA,y,4934,NA,NA,2110,4624,NA,NA,NA,"tea,drinks",1
20313402,m4i6p2fd76,Affordance Norms_MSU_TEX,1,14,2022-11-28T21:33:56+00:00,4.791301012,49,updated stim.csv,Version49.csv,Version 49,List 49,lobe,NA,1447,4.47826087,1533,0.561515085,1448,BOI,-,-,Please name all of the ways you could use this object. Keep in mind that one object can have many uses. Separate your responses with a comma.,NA,y,4544,NA,NA,2782,4276,NA,NA,NA,soap,1
20313402,m4i6p2fd76,Affordance Norms_MSU_TEX,1,15,2022-11-28T21:34:03+00:00,7.535362005,49,updated stim.csv,Version49.csv,Version 49,List 49,pillowcase,NA,1453,5.92,1963,0.856965735,1454,BOI,-,-,Please name all of the ways you could use this object. Keep in mind that one object can have many uses. Separate your responses with a comma.,NA,y,7281,NA,NA,1487,3776,NA,NA,NA,sleep,1
20313402,m4i6p2fd76,Affordance Norms_MSU_TEX,1,16,2022-11-28T21:34:09+00:00,6.05470109,49,updated stim.csv,Version49.csv,Version 49,List 49,sneaker,NA,1443,6.48,2427,0.380118782,1444,BOI,-,-,Please name all of the ways you could use this object. Keep in mind that one object can have many uses. Separate your responses with a comma.,NA,y,5812,NA,NA,4032,5188,NA,NA,NA,"shoes,",1
20313402,m4i6p2fd76,Affordance Norms_MSU_TEX,1,17,2022-11-28T21:34:11+00:00,1.715116978,49,updated stim.csv,Version49.csv,Version 49,List 49,opium,NA,1441,4.269230769,1812,0.710041731,1442,BOI,-,-,Please name all of the ways you could use this object. Keep in mind that one object can have many uses. Separate your responses with a comma.,NA,y,1455,NA,NA,-1,-1,NA,NA,NA,,1
20313402,m4i6p2fd76,Affordance Norms_MSU_TEX,1,18,2022-11-28T21:34:14+00:00,3.034456015,49,updated stim.csv,Version49.csv,Version 49,List 49,tugboat,NA,1457,4.555555556,2793,0.722676779,1458,BOI,-,-,Please name all of the ways you could use this object. Keep in mind that one object can have many uses. Separate your responses with a comma.,NA,y,2804,NA,NA,2046,2569,NA,NA,NA,sit,1
20313402,m4i6p2fd76,Affordance Norms_MSU_TEX,1,19,2022-11-28T21:34:17+00:00,3.193938971,49,updated stim.csv,Version49.csv,Version 49,List 49,soles,NA,1462,4.913043478,2447,0.934824946,1463,BOI,-,-,Please name all of the ways you could use this object. Keep in mind that one object can have many uses. Separate your responses with a comma.,NA,y,2957,NA,NA,2066,2795,NA,NA,NA,shoes,1
20313402,m4i6p2fd76,Affordance Norms_MSU_TEX,1,20,2022-11-28T21:34:38+00:00,20.48955202,49,updated stim.csv,Version49.csv,Version 49,List 49,lady,NA,1448,5.32,1449,0.776370327,1449,BOI,-,-,Please name all of the ways you could use this object. Keep in mind that one object can have many uses. Separate your responses with a comma.,NA,y,20249,NA,NA,-1,-1,NA,NA,NA,,1
20313402,m4i6p2fd76,Affordance Norms_MSU_TEX,1,21,2022-11-28T21:34:54+00:00,16.50268888,49,updated stim.csv,Version49.csv,Version 49,List 49,thumb,NA,1465,6.357142857,2687,0.252507917,1466,BOI,-,-,Please name all of the ways you could use this object. Keep in mind that one object can have many uses. Separate your responses with a comma.,NA,y,16217,NA,NA,7321,16016,NA,NA,NA,drawing,1
20313402,m4i6p2fd76,Affordance Norms_MSU_TEX,1,22,2022-11-28T21:34:57+00:00,2.127714157,49,updated stim.csv,Version49.csv,Version 49,List 49,latrine,NA,1458,6.333333333,1471,0.125724427,1459,BOI,-,-,Please name all of the ways you could use this object. Keep in mind that one object can have many uses. Separate your responses with a comma.,NA,y,1853,NA,NA,-1,-1,NA,NA,NA,,1
20313402,m4i6p2fd76,Affordance Norms_MSU_TEX,1,23,2022-11-28T21:35:01+00:00,4.946833849,49,updated stim.csv,Version49.csv,Version 49,List 49,scissor,NA,1467,6.173913043,2275,0.190702019,1468,BOI,-,-,Please name all of the ways you could use this object. Keep in mind that one object can have many uses. Separate your responses with a comma.,NA,y,4713,NA,NA,1405,4529,NA,NA,NA,cut something,1
20313402,m4i6p2fd76,Affordance Norms_MSU_TEX,1,24,2022-11-28T21:35:15+00:00,13.6142261,49,updated stim.csv,Version49.csv,Version 49,List 49,stomp,NA,1444,4.321428571,2544,0.910656975,1445,BOI,-,-,Please name all of the ways you could use this object. Keep in mind that one object can have many uses. Separate your responses with a comma.,NA,y,13254,NA,NA,-1,-1,NA,NA,NA,,1
20313402,m4i6p2fd76,Affordance Norms_MSU_TEX,1,25,2022-11-28T21:35:21+00:00,6.384784937,49,updated stim.csv,Version49.csv,Version 49,List 49,maple,NA,1455,4.32,1601,0.056415774,1456,BOI,-,-,Please name all of the ways you could use this object. Keep in mind that one object can have many uses. Separate your responses with a comma.,NA,y,6132,NA,NA,2438,5351,NA,NA,NA,srurp,1
20313402,m4i6p2fd76,Affordance Norms_MSU_TEX,1,26,2022-11-28T21:35:30+00:00,8.124450922,49,updated stim.csv,Version49.csv,Version 49,List 49,icing,NA,1460,4.76,1348,0.303228036,1461,BOI,-,-,Please name all of the ways you could use this object. Keep in mind that one object can have many uses. Separate your responses with a comma.,NA,y,7853,NA,NA,2593,7619,NA,NA,NA,"leg, knee, hand",1
20313402,m4i6p2fd76,Affordance Norms_MSU_TEX,1,27,2022-11-28T21:35:31+00:00,1.52060008,49,updated stim.csv,Version49.csv,Version 49,List 49,abdomen,NA,1456,5.434782609,2,0.326098969,1457,BOI,-,-,Please name all of the ways you could use this object. Keep in mind that one object can have many uses. Separate your responses with a comma.,NA,y,1259,NA,NA,-1,-1,NA,NA,NA,,1
20313402,m4i6p2fd76,Affordance Norms_MSU_TEX,1,28,2022-11-28T21:35:35+00:00,3.481930017,49,updated stim.csv,Version49.csv,Version 49,List 49,finger,NA,1461,6,977,0.488160189,1462,BOI,-,-,Please name all of the ways you could use this object. Keep in mind that one object can have many uses. Separate your responses with a comma.,NA,y,3254,NA,NA,2255,3056,NA,NA,NA,type,1
20313402,m4i6p2fd76,Affordance Norms_MSU_TEX,1,29,2022-11-28T21:35:40+00:00,5.079173088,49,updated stim.csv,Version49.csv,Version 49,List 49,pushcart,NA,1470,5.272727273,2106,0.870120036,1471,BOI,-,-,Please name all of the ways you could use this object. Keep in mind that one object can have many uses. Separate your responses with a comma.,NA,y,4828,NA,NA,2202,4514,NA,NA,NA,put things in,1
20313402,m4i6p2fd76,Affordance Norms_MSU_TEX,1,30,2022-11-28T21:35:45+00:00,5.334982872,49,updated stim.csv,Version49.csv,Version 49,List 49,neckwear,NA,1466,5.652173913,1743,0.143387279,1467,BOI,-,-,Please name all of the ways you could use this object. Keep in mind that one object can have many uses. Separate your responses with a comma.,NA,y,5095,NA,NA,2290,4824,NA,NA,NA,keep warm,1
20313402,m4i6p2fd76,Affordance Norms_MSU_TEX,1,31,2022-11-28T21:35:51+00:00,5.885461092,49,updated stim.csv,Version49.csv,Version 49,List 49,lawyer,NA,1452,4.625,1475,0.448114174,1453,BOI,-,-,Please name all of the ways you could use this object. Keep in mind that one object can have many uses. Separate your responses with a comma.,NA,y,5643,NA,NA,2114,5443,NA,NA,NA,get out of trouble,1
20313402,m4i6p2fd76,Affordance Norms_MSU_TEX,1,32,2022-11-28T21:35:52+00:00,1.60748291,49,updated stim.csv,Version49.csv,Version 49,List 49,staff,NA,1454,4.928571429,2496,0.3474029,1455,BOI,-,-,Please name all of the ways you could use this object. Keep in mind that one object can have many uses. Separate your responses with a comma.,NA,y,1343,NA,NA,-1,-1,NA,NA,NA,,1
20313402,m4i6p2fd76,Affordance Norms_MSU_TEX,1,33,2022-11-28T21:35:56+00:00,3.67196393,49,updated stim.csv,Version49.csv,Version 49,List 49,boathouse,NA,1469,4.52173913,256,0.567941903,1470,BOI,-,-,Please name all of the ways you could use this object. Keep in mind that one object can have many uses. Separate your responses with a comma.,NA,y,3423,NA,NA,1971,3273,NA,NA,NA,ride,1
20313402,m4i6p2fd76,Affordance Norms_MSU_TEX,1,34,2022-11-28T21:36:01+00:00,4.733396053,49,updated stim.csv,Version49.csv,Version 49,List 49,wounds,NA,1464,4.391304348,2977,0.663523357,1465,BOI,-,-,Please name all of the ways you could use this object. Keep in mind that one object can have many uses. Separate your responses with a comma.,NA,y,4480,NA,NA,-1,-1,NA,NA,NA,,1
20313402,m4i6p2fd76,Affordance Norms_MSU_TEX,1,35,2022-11-28T21:36:03+00:00,1.761943102,49,updated stim.csv,Version49.csv,Version 49,List 49,gavel,NA,1463,4.545454545,1089,0.157083684,1464,BOI,-,-,Please name all of the ways you could use this object. Keep in mind that one object can have many uses. Separate your responses with a comma.,NA,y,1498,NA,NA,-1,-1,NA,NA,NA,,1
20313402,m4i6p2fd76,Affordance Norms_MSU_TEX,1,36,2022-11-28T21:36:05+00:00,2.350414038,49,updated stim.csv,Version49.csv,Version 49,List 49,Food,NA,1459,6.470350404,1027,0.4620995,1460,BOI,-,-,Please name all of the ways you could use this object. Keep in mind that one object can have many uses. Separate your responses with a comma.,NA,y,2106,NA,NA,1312,1694,NA,NA,NA,eat,1
20313402,m4i6p2fd76,Affordance Norms_MSU_TEX,1,37,2022-11-28T21:36:06+00:00,1.08462286,49,updated stim.csv,Version49.csv,Version 49,List 49,absinthe,NA,1468,4.590909091,3,0.397694971,1469,BOI,-,-,Please name all of the ways you could use this object. Keep in mind that one object can have many uses. Separate your responses with a comma.,NA,y,838,NA,NA,-1,-1,NA,NA,NA,,1
20313402,m4i6p2fd76,Affordance Norms_MSU_TEX,1,38,2022-11-28T21:36:08+00:00,2.04143095,49,updated stim.csv,Version49.csv,Version 49,List 49,fixture,NA,1451,5,994,0.042478359,1452,BOI,-,-,Please name all of the ways you could use this object. Keep in mind that one object can have many uses. Separate your responses with a comma.,NA,y,1681,NA,NA,-1,-1,NA,NA,NA,,1
20313402,m4i6p2fd76,Affordance Norms_MSU_TEX,1,39,2022-11-28T21:36:13+00:00,4.691692114,49,updated stim.csv,Version49.csv,Version 49,List 49,doghouse,NA,1445,5.076923077,813,0.29819541,1446,BOI,-,-,Please name all of the ways you could use this object. Keep in mind that one object can have many uses. Separate your responses with a comma.,NA,y,4444,NA,NA,1892,4161,NA,NA,NA,put dog into ,1
20313402,m4i6p2fd76,Affordance Norms_MSU_TEX,1,40,2022-11-28T21:36:17+00:00,3.919844866,49,updated stim.csv,Version49.csv,Version 49,List 49,eyedrop,NA,1442,5.48,932,0.351524997,1443,BOI,-,-,Please name all of the ways you could use this object. Keep in mind that one object can have many uses. Separate your responses with a comma.,NA,y,3637,NA,NA,1925,3488,NA,NA,NA,use for eyes,1
20314758RT,4qa1ynoojc,Affordance Norms_MSU_TEX,1,11,2022-11-10T00:30:07+00:00,28.18328691,70,updated stim.csv,Version70.csv,Version 70,List 70,teakettle,NA,2094,6.125,2646,0.428684651,2095,BOI,-,-,Please name all of the ways you could use this object. Keep in mind that one object can have many uses. Separate your responses with a comma.,NA,y,27939,NA,NA,17118,27700,NA,NA,NA,"water, warm water, make tea",1
20314758RT,4qa1ynoojc,Affordance Norms_MSU_TEX,1,12,2022-11-10T00:30:23+00:00,15.57036901,70,updated stim.csv,Version70.csv,Version 70,List 70,camera,NA,2089,6.086956522,406,0.371696308,2090,BOI,-,-,Please name all of the ways you could use this object. Keep in mind that one object can have many uses. Separate your responses with a comma.,NA,y,15307,NA,NA,1822,14948,NA,NA,NA,"pictures, capture moments in time",1
20314758RT,4qa1ynoojc,Affordance Norms_MSU_TEX,1,13,2022-11-10T00:30:42+00:00,19.14846587,70,updated stim.csv,Version70.csv,Version 70,List 70,bush,NA,2093,4.8,369,0.051668368,2094,BOI,-,-,Please name all of the ways you could use this object. Keep in mind that one object can have many uses. Separate your responses with a comma.,NA,y,18895,NA,NA,7219,18238,NA,NA,NA,"birds to lay eggs, berries, nature",1
20314758RT,4qa1ynoojc,Affordance Norms_MSU_TEX,1,14,2022-11-10T00:30:53+00:00,10.83271003,70,updated stim.csv,Version70.csv,Version 70,List 70,boatman,NA,2072,4.76,257,0.334661511,2073,BOI,-,-,Please name all of the ways you could use this object. Keep in mind that one object can have many uses. Separate your responses with a comma.,NA,y,10573,NA,NA,2911,9977,NA,NA,NA,"fishing, going on the lake",1
20314758RT,4qa1ynoojc,Affordance Norms_MSU_TEX,1,15,2022-11-10T00:31:23+00:00,29.89012718,70,updated stim.csv,Version70.csv,Version 70,List 70,match,NA,2084,4.565217391,1620,0.722618708,2085,BOI,-,-,Please name all of the ways you could use this object. Keep in mind that one object can have many uses. Separate your responses with a comma.,NA,y,29629,NA,NA,2733,29247,NA,NA,NA,"sets, together",1
20314758RT,4qa1ynoojc,Affordance Norms_MSU_TEX,1,16,2022-11-10T00:31:39+00:00,15.92558289,70,updated stim.csv,Version70.csv,Version 70,List 70,lobster,NA,2099,4.92,1534,0.919551161,2100,BOI,-,-,Please name all of the ways you could use this object. Keep in mind that one object can have many uses. Separate your responses with a comma.,NA,y,15664,NA,NA,2025,15353,NA,NA,NA,"food, sea animal, crawling",1
20314758RT,4qa1ynoojc,Affordance Norms_MSU_TEX,1,17,2022-11-10T00:32:07+00:00,28.11614013,70,updated stim.csv,Version70.csv,Version 70,List 70,rib,NA,2079,5.92,2164,0.592595279,2080,BOI,-,-,Please name all of the ways you could use this object. Keep in mind that one object can have many uses. Separate your responses with a comma.,NA,y,27815,NA,NA,4566,27608,NA,NA,NA,"keep your lungs safe, help your body, breathing",1
20314758RT,4qa1ynoojc,Affordance Norms_MSU_TEX,1,18,2022-11-10T00:32:25+00:00,17.67631984,70,updated stim.csv,Version70.csv,Version 70,List 70,paddle,NA,2086,5.68,1842,0.603333314,2087,BOI,-,-,Please name all of the ways you could use this object. Keep in mind that one object can have many uses. Separate your responses with a comma.,NA,y,17414,NA,NA,1910,17096,NA,NA,NA,"to move, to hit people with",1
20314758RT,4qa1ynoojc,Affordance Norms_MSU_TEX,1,19,2022-11-10T00:32:35+00:00,10.57908297,70,updated stim.csv,Version70.csv,Version 70,List 70,mallet,NA,2098,5.56,1584,0.493050633,2099,BOI,-,-,Please name all of the ways you could use this object. Keep in mind that one object can have many uses. Separate your responses with a comma.,NA,y,10316,NA,NA,2818,10077,NA,NA,NA,"to hit people with, to cook",1
20314758RT,4qa1ynoojc,Affordance Norms_MSU_TEX,1,20,2022-11-10T00:32:47+00:00,12.21276903,70,updated stim.csv,Version70.csv,Version 70,List 70,goalkeeper,NA,2082,4.458333333,1120,0.82824965,2083,BOI,-,-,Please name all of the ways you could use this object. Keep in mind that one object can have many uses. Separate your responses with a comma.,NA,y,11949,NA,NA,2326,11790,NA,NA,NA,"to keep balls out, to protect",1
20314758RT,4qa1ynoojc,Affordance Norms_MSU_TEX,1,21,2022-11-10T00:33:03+00:00,15.92469096,70,updated stim.csv,Version70.csv,Version 70,List 70,captain,NA,2097,4.913043478,427,0.964304761,2098,BOI,-,-,Please name all of the ways you could use this object. Keep in mind that one object can have many uses. Separate your responses with a comma.,NA,y,15666,NA,NA,2255,9449,NA,NA,NA,"to be incharge, to lead,",1
20314758RT,4qa1ynoojc,Affordance Norms_MSU_TEX,1,22,2022-11-10T00:33:33+00:00,29.58449221,70,updated stim.csv,Version70.csv,Version 70,List 70,furnishings,NA,2080,6.166666667,1067,0.472021137,2081,BOI,-,-,Please name all of the ways you could use this object. Keep in mind that one object can have many uses. Separate your responses with a comma.,NA,y,29305,NA,NA,1927,28346,NA,NA,NA,"to make a house look complete, to look presentable ",1
20314758RT,4qa1ynoojc,Affordance Norms_MSU_TEX,1,23,2022-11-10T00:33:47+00:00,13.74054098,70,updated stim.csv,Version70.csv,Version 70,List 70,cobblestone,NA,2092,5.086956522,583,0.77555436,2093,BOI,-,-,Please name all of the ways you could use this object. Keep in mind that one object can have many uses. Separate your responses with a comma.,NA,y,13476,NA,NA,3543,6020,NA,NA,NA,to make a wall,1
20314758RT,4qa1ynoojc,Affordance Norms_MSU_TEX,1,24,2022-11-10T00:34:04+00:00,17.25544286,70,updated stim.csv,Version70.csv,Version 70,List 70,skullcap,NA,2075,4.962962963,2403,0.972296881,2076,BOI,-,-,Please name all of the ways you could use this object. Keep in mind that one object can have many uses. Separate your responses with a comma.,NA,y,16139,NA,NA,2139,15905,NA,NA,NA,"to protect your head, to hit your head and it not be damaged",1
20314758RT,4qa1ynoojc,Affordance Norms_MSU_TEX,1,25,2022-11-10T00:34:28+00:00,24.09042597,70,updated stim.csv,Version70.csv,Version 70,List 70,Microscope,NA,2090,5.721024259,1655,0.84908262,2091,BOI,-,-,Please name all of the ways you could use this object. Keep in mind that one object can have many uses. Separate your responses with a comma.,NA,y,23837,NA,NA,1677,23154,NA,NA,NA,"to see cells, look at tiny germs, look at blood vessels",1
20314758RT,4qa1ynoojc,Affordance Norms_MSU_TEX,1,26,2022-11-10T00:34:39+00:00,11.33275199,70,updated stim.csv,Version70.csv,Version 70,List 70,daggers,NA,2100,4.75,748,0.051742591,2101,BOI,-,-,Please name all of the ways you could use this object. Keep in mind that one object can have many uses. Separate your responses with a comma.,NA,y,11068,NA,NA,1413,10569,NA,NA,NA,"to stab, to protect",1
20314758RT,4qa1ynoojc,Affordance Norms_MSU_TEX,1,27,2022-11-10T00:34:59+00:00,19.96090817,70,updated stim.csv,Version70.csv,Version 70,List 70,bedpost,NA,2073,5.346153846,186,0.658960506,2074,BOI,-,-,Please name all of the ways you could use this object. Keep in mind that one object can have many uses. Separate your responses with a comma.,NA,y,18474,NA,NA,1734,18325,NA,NA,NA,"to hold bed up, keep bed off the ground",1
20314758RT,4qa1ynoojc,Affordance Norms_MSU_TEX,1,28,2022-11-10T00:35:11+00:00,11.65130496,70,updated stim.csv,Version70.csv,Version 70,List 70,mitten,NA,2081,6.041666667,1671,0.614035394,2082,BOI,-,-,Please name all of the ways you could use this object. Keep in mind that one object can have many uses. Separate your responses with a comma.,NA,y,11365,NA,NA,2173,11148,NA,NA,NA,"warm your hand, keep unfrozen",1
20314758RT,4qa1ynoojc,Affordance Norms_MSU_TEX,1,29,2022-11-10T00:35:18+00:00,7.245179892,70,updated stim.csv,Version70.csv,Version 70,List 70,dumbwaiter,NA,2074,4.44,866,0.08191597,2075,BOI,-,-,Please name all of the ways you could use this object. Keep in mind that one object can have many uses. Separate your responses with a comma.,NA,y,6953,NA,NA,3627,6663,NA,NA,NA,to help,1
20314758RT,4qa1ynoojc,Affordance Norms_MSU_TEX,1,30,2022-11-10T00:35:27+00:00,8.368294954,70,updated stim.csv,Version70.csv,Version 70,List 70,sawhorse,NA,2095,5.125,2255,0.661153782,2096,BOI,-,-,Please name all of the ways you could use this object. Keep in mind that one object can have many uses. Separate your responses with a comma.,NA,y,8123,NA,NA,3518,7982,NA,NA,NA,to plow feilds,1
20314758RT,4qa1ynoojc,Affordance Norms_MSU_TEX,1,31,2022-11-10T00:35:44+00:00,17.57381821,70,updated stim.csv,Version70.csv,Version 70,List 70,sawdust,NA,2083,4.4,2254,0.49278594,2084,BOI,-,-,Please name all of the ways you could use this object. Keep in mind that one object can have many uses. Separate your responses with a comma.,NA,y,17319,NA,NA,1613,16969,NA,NA,NA,"to make a mess, to make as stuffing for insulation",1
20314758RT,4qa1ynoojc,Affordance Norms_MSU_TEX,1,32,2022-11-10T00:35:53+00:00,8.900164843,70,updated stim.csv,Version70.csv,Version 70,List 70,caterpillar,NA,2085,5.083333333,458,0.20144475,2086,BOI,-,-,Please name all of the ways you could use this object. Keep in mind that one object can have many uses. Separate your responses with a comma.,NA,y,8641,NA,NA,1294,8476,NA,NA,NA,"to crawl, to be a butterfly",1
20314758RT,4qa1ynoojc,Affordance Norms_MSU_TEX,1,33,2022-11-10T00:36:23+00:00,29.80154705,70,updated stim.csv,Version70.csv,Version 70,List 70,jockstrap,NA,2091,5.739130435,1387,0.194548827,2092,BOI,-,-,Please name all of the ways you could use this object. Keep in mind that one object can have many uses. Separate your responses with a comma.,NA,y,29537,NA,NA,2509,29221,NA,NA,NA,"to go up your butt, and always have a weggie, to protect you sack",1
20314758RT,4qa1ynoojc,Affordance Norms_MSU_TEX,1,34,2022-11-10T00:36:55+00:00,32.33127689,70,updated stim.csv,Version70.csv,Version 70,List 70,democrat,NA,2088,4.416666667,771,0.02269308,2089,BOI,-,-,Please name all of the ways you could use this object. Keep in mind that one object can have many uses. Separate your responses with a comma.,NA,y,32087,NA,NA,9106,31880,NA,NA,NA,"to be over sharing, to be loyal to the wrong side, to over voice your wrong opinions",1
20314758RT,4qa1ynoojc,Affordance Norms_MSU_TEX,1,35,2022-11-10T00:37:14+00:00,19.32040215,70,updated stim.csv,Version70.csv,Version 70,List 70,wall,NA,2076,4.68,2886,0.344868245,2077,BOI,-,-,Please name all of the ways you could use this object. Keep in mind that one object can have many uses. Separate your responses with a comma.,NA,y,18978,NA,NA,1788,18804,NA,NA,NA,"to protect, to keep structure",1
20314758RT,4qa1ynoojc,Affordance Norms_MSU_TEX,1,36,2022-11-10T00:37:31+00:00,16.70876288,70,updated stim.csv,Version70.csv,Version 70,List 70,executioner,NA,2078,4.44,927,0.320419935,2079,BOI,-,-,Please name all of the ways you could use this object. Keep in mind that one object can have many uses. Separate your responses with a comma.,NA,y,16452,NA,NA,13615,16314,NA,NA,NA,to help others,0.86
20314758RT,4qa1ynoojc,Affordance Norms_MSU_TEX,1,37,2022-11-10T00:37:56+00:00,24.91111398,70,updated stim.csv,Version70.csv,Version 70,List 70,passport,NA,2087,5,1883,0.971954656,2088,BOI,-,-,Please name all of the ways you could use this object. Keep in mind that one object can have many uses. Separate your responses with a comma.,NA,y,24626,NA,NA,1480,20918,NA,NA,NA,"to travel, to leave the country, to be identification ",1
20314758RT,4qa1ynoojc,Affordance Norms_MSU_TEX,1,38,2022-11-10T00:38:13+00:00,17.09365106,70,updated stim.csv,Version70.csv,Version 70,List 70,greyhound,NA,2071,4.636363636,1174,0.388872083,2072,BOI,-,-,Please name all of the ways you could use this object. Keep in mind that one object can have many uses. Separate your responses with a comma.,NA,y,16832,NA,NA,2608,15999,NA,NA,NA,"dog, to be a companion, friend, pet",1
20314758RT,4qa1ynoojc,Affordance Norms_MSU_TEX,1,39,2022-11-10T00:38:26+00:00,12.65710902,70,updated stim.csv,Version70.csv,Version 70,List 70,vibrator,NA,2077,6.464285714,2855,0.939566064,2078,BOI,-,-,Please name all of the ways you could use this object. Keep in mind that one object can have many uses. Separate your responses with a comma.,NA,y,12399,NA,NA,5087,12132,NA,NA,NA,"to relax, to arouse",1
20314758RT,4qa1ynoojc,Affordance Norms_MSU_TEX,1,40,2022-11-10T00:38:37+00:00,10.81970906,70,updated stim.csv,Version70.csv,Version 70,List 70,eyeglasses,NA,2096,6.28,934,0.049875509,2097,BOI,-,-,Please name all of the ways you could use this object. Keep in mind that one object can have many uses. Separate your responses with a comma.,NA,y,10571,NA,NA,1532,10356,NA,NA,NA,"to see, to make things clear, to start a fire",1
dlinares0803,wnl1tlx31g,Affordance Norms_MSU_TEX,1,11,2022-10-31T02:06:27+00:00,12.3551662,46,updated stim.csv,Version46.csv,Version 46,List 46,quarter,NA,1366,5.333333333,2110,0.584780359,1367,BOI,-,-,Please name all of the ways you could use this object. Keep in mind that one object can have many uses. Separate your responses with a comma.,NA,y,12150,NA,NA,1967,10863,NA,NA,NA,"buying,stacking,change",1
dlinares0803,wnl1tlx31g,Affordance Norms_MSU_TEX,1,12,2022-10-31T02:07:12+00:00,44.76250291,46,updated stim.csv,Version46.csv,Version 46,List 46,paper,NA,1375,5.695652174,1862,0.888785429,1376,BOI,-,-,Please name all of the ways you could use this object. Keep in mind that one object can have many uses. Separate your responses with a comma.,NA,y,44541,NA,NA,3071,40984,NA,NA,NA,"paper air plane, Origami, paper work, Paper cut, Toilet paper, blowing noise ",1
